posX, posY, posZ, velX, velY, velZ, angVelX, angVelY, angVelZ, accX, accY, accZ, rotX, rotY, rotZ, rotW, angAccX, angAccY, angAccZ
-0.00341,1.33708,-0.46159,-0.33892,0.16481,-0.20637,-0.94741,-0.56852,1.02061,2.62162,-1.39292,2.11045,0.14118,-0.89469,-0.13268,-0.40248,1.74728,-18.56719,-15.03466
-0.00620,1.33836,-0.46224,-0.30682,0.14820,-0.17015,-0.69433,-0.55648,0.68979,2.02941,-1.32520,2.41616,0.13863,-0.89343,-0.13205,-0.40636,16.35393,-3.60325,-22.49024
-0.00908,1.33899,-0.46210,-0.28333,0.12507,-0.12787,-0.32368,-0.31007,0.34969,1.19365,-1.55743,2.46466,0.13080,-0.89470,-0.13596,-0.40487,23.37706,13.80797,-21.33199
-0.01224,1.33934,-0.46191,-0.26957,0.10240,-0.09418,-0.03249,-0.06225,0.10878,0.94986,-1.46392,2.38946,0.12326,-0.89653,-0.14046,-0.40165,22.60085,19.87915,-18.90758
-0.01524,1.33954,-0.46160,-0.25642,0.08226,-0.06671,0.14672,0.05717,-0.07253,0.92470,-1.20248,1.90820,0.11661,-0.89762,-0.14359,-0.40008,14.77775,10.64107,-13.55635
-0.01808,1.33979,-0.46124,-0.24373,0.06793,-0.04426,0.26363,0.13467,-0.24052,0.86056,-0.81159,1.47136,0.10952,-0.89866,-0.14573,-0.39896,8.51856,5.03516,-11.82023
-0.02100,1.34012,-0.46065,-0.23538,0.05820,-0.02348,0.37917,0.24381,-0.37747,0.38187,-0.54227,1.42050,0.10165,-0.90015,-0.14862,-0.39661,8.44190,7.37899,-10.67757
-0.02422,1.34055,-0.46008,-0.23445,0.05222,-0.00840,0.43555,0.31633,-0.43759,-0.15477,-0.19913,1.23842,0.09531,-0.90148,-0.15119,-0.39419,7.07542,8.06617,-7.40076
-0.02794,1.34119,-0.45957,-0.24191,0.05170,0.00265,0.33820,0.24379,-0.36147,-0.72448,0.50057,0.70401,0.09442,-0.90162,-0.15106,-0.39415,-3.89007,-0.94936,2.52434
-0.03204,1.34230,-0.45941,-0.25403,0.05901,0.00522,0.15049,0.02997,-0.21443,-1.03239,0.71009,0.06745,0.09802,-0.90010,-0.14840,-0.39773,-13.32970,-14.47160,10.16103
-0.03645,1.34362,-0.45946,-0.26842,0.06755,0.00357,-0.00824,-0.14116,-0.06178,-1.31023,0.74586,-0.39539,0.10306,-0.89835,-0.14575,-0.40137,-13.68642,-15.85510,12.34009
-0.04159,1.34535,-0.45987,-0.29150,0.08123,-0.00296,-0.14664,-0.23940,0.07695,-1.52039,0.84440,-0.63033,0.10883,-0.89694,-0.14297,-0.40400,-10.23220,-7.97919,9.81502
-0.04673,1.34706,-0.46022,-0.30911,0.09135,-0.00724,-0.22193,-0.27915,0.12178,-1.29270,1.02788,-0.47125,0.11231,-0.89603,-0.14039,-0.40598,-8.74057,-4.43143,4.75708
-0.05196,1.34959,-0.46045,-0.32394,0.11212,-0.00872,-0.10983,-0.13674,0.07299,-0.86680,1.34433,-0.10986,0.11065,-0.89680,-0.14204,-0.40413,4.96171,8.01716,-1.82646
-0.05715,1.35234,-0.46070,-0.33522,0.13204,-0.00988,0.07216,0.03589,-0.01159,-0.80199,1.57364,-0.29884,0.10620,-0.89810,-0.14602,-0.40102,13.10457,12.42053,-5.87166
-0.06246,1.35561,-0.46123,-0.34594,0.15580,-0.01535,0.18818,0.16676,-0.08391,-0.81194,1.80381,-0.18351,0.10182,-0.89948,-0.14925,-0.39786,9.87018,11.93691,-5.80632
-0.06793,1.35931,-0.46166,-0.35664,0.18099,-0.01830,0.30545,0.16835,-0.16913,-0.85034,1.90567,-0.04964,0.09679,-0.89956,-0.15251,-0.39769,7.04354,1.48827,-4.95240
-0.07397,1.36465,-0.46212,-0.37509,0.22960,-0.02102,0.53880,0.23788,-0.25713,-1.30895,3.54001,-0.38433,0.08919,-0.89976,-0.15934,-0.39633,11.69185,2.83936,-6.57602
-0.08019,1.36987,-0.46259,-0.39206,0.26378,-0.02363,0.73385,0.34822,-0.24576,-1.90033,3.44183,-0.65159,0.08331,-0.90026,-0.16782,-0.39298,16.16357,7.57456,-0.55068
-0.08775,1.37708,-0.46354,-0.42675,0.32208,-0.03387,1.29108,1.05842,-0.27559,-2.20912,3.63792,-1.46178,0.06858,-0.90550,-0.18863,-0.37388,33.53289,34.44530,0.29618
-0.09567,1.38467,-0.46463,-0.46007,0.37393,-0.04428,1.77533,1.82169,-0.29898,-2.44798,4.13089,-0.10911,0.05173,-0.91187,-0.21121,-0.34814,39.51273,62.16098,-2.64176
-0.10424,1.39364,-0.46599,-0.49701,0.43813,-0.05676,1.96330,2.05119,-0.11340,-2.36586,4.39507,-0.07414,0.04419,-0.91430,-0.23016,-0.33035,18.35905,20.73584,10.95558
-0.11276,1.40265,-0.46740,-0.52478,0.48939,-0.06591,1.88828,1.92063,0.07620,-2.53195,4.54536,-0.47469,0.04228,-0.91466,-0.24285,-0.32038,-1.19405,-7.93334,14.47147
-0.12234,1.41313,-0.46890,-0.56330,0.55326,-0.07337,1.83737,1.84018,0.31579,-2.94887,4.72059,-0.76289,0.04294,-0.91467,-0.25656,-0.30938,-3.75702,-13.28515,15.90832
-0.13309,1.42509,-0.47011,-0.61303,0.62704,-0.07463,1.92460,1.98490,0.56363,-3.22501,4.51437,0.19829,0.04261,-0.91514,-0.27444,-0.29220,6.34504,6.91924,16.29898
-0.14413,1.43727,-0.47088,-0.65671,0.68896,-0.06762,2.04154,2.13173,0.73831,-3.16511,4.30901,0.60281,0.04102,-0.91502,-0.29327,-0.27394,8.72715,8.66520,13.41342
-0.15547,1.44973,-0.47143,-0.69426,0.73961,-0.05884,2.16825,2.35680,0.85604,-3.25986,4.29671,0.61326,0.03782,-0.91483,-0.31292,-0.25247,11.42114,12.86730,10.85655
-0.16798,1.46352,-0.47144,-0.74176,0.79894,-0.04370,2.28461,2.64934,1.03423,-3.57113,4.28751,1.63595,0.03575,-0.91436,-0.33376,-0.22644,9.79005,23.04983,12.52308
-0.18180,1.47830,-0.47043,-0.80041,0.86289,-0.01459,2.36127,2.77104,1.30878,-3.69277,3.94186,2.49174,0.03825,-0.91206,-0.35485,-0.20190,7.14695,8.06558,16.52958
-0.19561,1.49285,-0.46884,-0.84526,0.90721,0.01681,2.36663,2.70173,1.55865,-3.77386,3.65201,3.31717,0.04370,-0.90839,-0.37426,-0.18122,5.60897,-2.74336,18.61390
-0.21061,1.50815,-0.46578,-0.89846,0.95231,0.06454,2.36461,2.43180,1.88853,-3.85068,2.92165,3.97611,0.05518,-0.90250,-0.39398,-0.16504,5.51087,-19.60769,20.42503
-0.22652,1.52351,-0.46131,-0.95440,0.98824,0.12419,2.39203,2.12517,2.23583,-4.30649,2.43244,4.61826,0.07014,-0.89480,-0.41446,-0.15046,6.30127,-25.87953,20.03962
-0.24430,1.53899,-0.45467,-1.02969,1.01836,0.20743,2.57988,1.97956,2.72313,-5.28861,1.62914,5.37512,0.08892,-0.88395,-0.43996,-0.13100,16.44896,-15.34487,25.19056
-0.26323,1.55397,-0.44679,-1.10792,1.03220,0.29250,2.83533,2.02907,3.23488,-5.94266,0.50006,6.50892,0.10859,-0.87056,-0.46825,-0.10523,21.02394,1.76749,32.29165
-0.28366,1.56793,-0.43732,-1.19232,1.02515,0.38314,3.09511,1.89633,3.81946,-5.87490,-1.40832,6.81998,0.13478,-0.85299,-0.49764,-0.08124,25.11303,-5.13561,37.40580
-0.30498,1.58023,-0.42704,-1.27169,0.99176,0.46581,3.25819,1.43432,4.39841,-5.19749,-3.40307,5.87091,0.16890,-0.83201,-0.52447,-0.06449,25.38571,-29.12279,35.61868
-0.32672,1.59080,-0.41629,-1.33945,0.93653,0.53689,3.34264,0.70170,4.85597,-4.29372,-4.92423,4.98917,0.20843,-0.80841,-0.54756,-0.05674,22.30695,-49.32966,24.31584
-0.34858,1.59927,-0.40514,-1.39291,0.85860,0.59669,3.48288,-0.12420,5.15750,-3.37003,-6.39697,3.65983,0.25005,-0.78106,-0.56944,-0.05626,28.45736,-58.83473,11.47430
-0.37006,1.60637,-0.39426,-1.42707,0.77792,0.63763,3.63843,-0.63513,5.30755,-2.48918,-7.42062,2.53050,0.28762,-0.75181,-0.59089,-0.05395,28.77889,-46.22752,3.93098
-0.39139,1.60957,-0.38325,-1.45109,0.65162,0.67207,3.85658,-0.95016,5.45596,-0.69408,-8.35488,1.00807,0.32401,-0.71874,-0.61318,-0.04950,21.63590,-19.69861,5.41841
-0.41131,1.61170,-0.37342,-1.44675,0.53587,0.67998,3.94593,-0.99369,5.53528,1.14161,-8.38011,-0.34519,0.35587,-0.68617,-0.63319,-0.03995,10.58708,-3.98811,6.63504
-0.42979,1.61241,-0.36457,-1.41906,0.42332,0.66974,3.89840,-0.95125,5.52723,2.89629,-8.02422,-1.36761,0.38450,-0.65506,-0.64979,-0.02885,-1.49555,1.25550,1.96798
-0.44663,1.61208,-0.35673,-1.36856,0.32034,0.64791,3.78809,-0.88158,5.41447,4.42787,-7.00974,-1.75306,0.40964,-0.62538,-0.66391,-0.01808,-9.33466,3.44844,-5.57288
-0.46168,1.61107,-0.34963,-1.29967,0.23049,0.62021,3.67481,-0.81017,5.19292,5.61098,-6.13875,-2.13539,0.43108,-0.59683,-0.67667,-0.00908,-9.05330,5.59230,-13.05388
-0.47496,1.60969,-0.34317,-1.21821,0.15504,0.58767,3.55474,-0.78606,4.84555,6.20645,-4.89884,-2.32539,0.44910,-0.57036,-0.68774,-0.00370,-8.45752,5.57221,-21.49048
-0.48687,1.60830,-0.33718,-1.13258,0.09680,0.55232,3.36892,-0.77209,4.43786,6.20990,-3.56224,-2.86867,0.46435,-0.54704,-0.69651,-0.00026,-9.71974,3.78430,-29.47089
-0.49703,1.60696,-0.33229,-1.03600,0.05273,0.50652,2.98555,-0.75922,3.99977,5.96452,-2.04143,-3.00371,0.47754,-0.52986,-0.70085,0.00359,-21.05166,1.41089,-28.62889
-0.50664,1.60638,-0.32766,-0.95203,0.03075,0.46564,2.59781,-0.82582,3.60341,6.29458,-1.20535,-2.73751,0.49119,-0.51507,-0.70242,0.00628,-26.30816,-4.24061,-28.62618
-0.51544,1.60617,-0.32301,-0.87571,0.01965,0.43372,2.38652,-0.92205,3.21120,6.60594,-0.81212,-2.28289,0.50397,-0.49980,-0.70440,0.00532,-19.86967,-7.66420,-33.70396
-0.52128,1.60586,-0.31903,-0.76808,0.00952,0.39855,2.23336,-0.98839,2.66420,7.08705,-0.55499,-2.05727,0.51254,-0.48790,-0.70659,-0.00062,-6.73877,-1.83811,-34.83144
-0.52626,1.60568,-0.31502,-0.66939,0.00412,0.37138,2.13941,-0.98498,2.15793,7.13578,-0.18784,-1.89564,0.51878,-0.47658,-0.70971,-0.00762,-5.93704,3.62630,-36.32499
-0.53058,1.60585,-0.31097,-0.58537,0.00545,0.35035,2.05973,-0.94079,1.73283,7.09804,0.38554,-1.82199,0.52346,-0.46610,-0.71311,-0.01485,-3.93977,6.26431,-35.26445
-0.53181,1.60675,-0.30740,-0.46892,0.01892,0.32553,1.95657,-0.79092,1.04502,7.84204,1.14767,-1.35785,0.52054,-0.46202,-0.71753,-0.02710,-7.59653,12.92739,-39.53272
-0.53208,1.60829,-0.30387,-0.36185,0.04053,0.30639,1.94444,-0.55338,0.38803,7.57521,1.94522,-1.68540,0.51325,-0.45831,-0.72444,-0.04142,3.15107,19.91056,-47.83929
-0.53157,1.61032,-0.30035,-0.26934,0.06467,0.29123,1.58472,-0.16229,0.07680,7.33913,2.76228,-2.25742,0.50450,-0.45951,-0.72966,-0.04396,-12.95762,28.90974,-34.28694
-0.52878,1.61352,-0.29721,-0.16211,0.10262,0.27299,0.68950,0.43118,-0.01858,7.79481,3.10841,-1.37396,0.49205,-0.47252,-0.73057,-0.02961,-60.65698,42.48393,-3.27554
-0.52384,1.61802,-0.29457,-0.04136,0.15401,0.25152,0.03825,0.98754,-0.46257,7.71550,2.67947,-0.84859,0.47194,-0.49001,-0.73259,-0.02199,-48.66192,39.02614,-20.03616
-0.51921,1.62195,-0.29204,0.04600,0.18325,0.23345,-0.15692,1.28685,-0.88145,7.06923,1.86393,-1.40780,0.45275,-0.50176,-0.73670,-0.02288,-22.78867,28.19367,-35.99501
-0.51263,1.62552,-0.29018,0.14391,0.19895,0.20868,-0.25251,1.56427,-1.24296,6.70233,0.45028,-1.76777,0.43138,-0.51279,-0.74185,-0.02476,-10.76236,22.05882,-26.90258
-0.50450,1.62816,-0.28917,0.24669,0.19550,0.17551,-0.27306,1.82747,-1.53144,6.04063,-0.65160,-2.39888,0.40855,-0.52237,-0.74799,-0.02699,-0.77808,16.42077,-20.44938
-0.49686,1.63027,-0.28849,0.31725,0.18424,0.14469,-0.39812,2.03819,-1.58597,5.26083,-0.87412,-3.09990,0.38789,-0.53178,-0.75244,-0.02397,-5.02854,17.57040,-10.30241
-0.48821,1.63205,-0.28905,0.38607,0.17008,0.10064,-0.63103,2.19844,-1.50044,4.43720,-0.96331,-3.29037,0.36894,-0.54248,-0.75454,-0.01611,-14.99389,16.21580,7.45998
-0.47863,1.63371,-0.29148,0.45716,0.15753,0.03429,-0.75407,2.16306,-1.57937,3.64982,-0.63747,-3.79490,0.35129,-0.55338,-0.75508,-0.01456,-7.58529,-0.68909,-3.17899
-0.47004,1.63562,-0.29366,0.49525,0.15206,-0.01254,-0.83333,2.06192,-1.64837,2.67593,-0.33765,-3.97185,0.33499,-0.56378,-0.75479,-0.01482,-6.19285,-6.66619,-6.81338
-0.46122,1.63740,-0.29686,0.52852,0.14594,-0.06496,-0.96650,1.89781,-1.66762,2.05620,-0.51170,-3.54400,0.32124,-0.57519,-0.75215,-0.01490,-11.43601,-9.69439,0.32797
-0.45212,1.63902,-0.30087,0.55596,0.13732,-0.11936,-1.02531,1.65487,-1.68685,1.27475,-0.56947,-3.06297,0.30968,-0.58562,-0.74889,-0.01735,-6.25862,-13.02832,1.27093
-0.44365,1.64072,-0.30466,0.56666,0.13239,-0.15670,-0.99743,1.37166,-1.77138,0.54349,-0.49473,-2.70632,0.29908,-0.59498,-0.74565,-0.02376,-2.29969,-20.32859,-3.14920
-0.43561,1.64213,-0.30894,0.56760,0.12409,-0.19268,-0.90554,0.97485,-1.84138,-0.45578,-0.69113,-2.30030,0.29234,-0.60269,-0.74170,-0.03429,2.34362,-28.95035,-5.89621
-0.42816,1.64316,-0.31345,0.55800,0.11034,-0.22377,-0.83059,0.60502,-1.75964,-0.88492,-0.79771,-1.72186,0.28918,-0.60887,-0.73743,-0.04307,2.93288,-24.93359,4.62521
-0.42088,1.64424,-0.31752,0.54823,0.10125,-0.23994,-0.78932,0.39523,-1.64677,-0.88189,-0.64022,-1.19666,0.28532,-0.61485,-0.73356,-0.04938,1.38751,-19.35388,9.19923
-0.41387,1.64531,-0.32175,0.53657,0.09484,-0.25498,-0.82918,0.32022,-1.42036,-1.16357,0.00882,-1.56400,0.28221,-0.62109,-0.72940,-0.05074,0.23657,-9.40391,11.93552
-0.40704,1.64689,-0.32630,0.52415,0.09758,-0.27171,-0.98353,0.31026,-1.12790,-0.59173,0.23720,-0.85635,0.28031,-0.62901,-0.72357,-0.04721,-11.54292,4.21983,25.19562
-0.40022,1.64886,-0.33086,0.51428,0.10641,-0.28450,-0.93354,0.07275,-1.15670,-0.30044,0.38837,-0.34910,0.27871,-0.63521,-0.71822,-0.05464,-2.26012,-11.03588,5.37023
-0.39335,1.65112,-0.33533,0.50826,0.11865,-0.29282,-0.75297,-0.32967,-1.41642,-0.24487,0.99642,-0.22830,0.27732,-0.63984,-0.71304,-0.07264,9.58956,-29.75018,-14.28250
-0.38636,1.65377,-0.33944,0.50493,0.13345,-0.29306,-0.61863,-0.58872,-1.59081,-0.62654,1.13602,-0.27055,0.27514,-0.64415,-0.70806,-0.08952,10.32920,-26.27247,-16.98273
-0.37957,1.65623,-0.34343,0.49877,0.14170,-0.29128,-0.61297,-0.62199,-1.48473,-0.65906,0.35902,0.00358,0.27398,-0.64880,-0.70322,-0.09736,1.82916,-5.14168,4.19889
-0.37305,1.65795,-0.34724,0.49047,0.13580,-0.28710,-0.59302,-0.53169,-1.27202,-0.58322,-0.85413,0.29083,0.27279,-0.65241,-0.69990,-0.10043,-0.07289,4.85664,11.61156
-0.36639,1.65902,-0.35097,0.48701,0.11999,-0.28250,-0.53058,-0.40251,-1.04416,0.19072,-1.27208,0.36861,0.27149,-0.65468,-0.69815,-0.10137,3.91253,10.02990,17.73962
-0.35908,1.66019,-0.35463,0.49595,0.11002,-0.27806,-0.43069,-0.30778,-0.98161,1.34921,-0.48376,0.35060,0.26813,-0.65665,-0.69706,-0.10499,7.86046,7.10045,8.45377
-0.35091,1.66202,-0.35834,0.51825,0.11458,-0.27517,-0.38102,-0.20662,-1.08625,2.09218,0.75872,0.00692,0.26135,-0.66032,-0.69524,-0.11096,5.65872,6.47135,-5.33008
-0.34175,1.66472,-0.36221,0.55294,0.13243,-0.27586,-0.39818,-0.11681,-1.30870,3.03904,1.38192,-0.28276,0.25173,-0.66613,-0.69190,-0.11909,-0.13565,6.30333,-13.47526
-0.33147,1.66812,-0.36659,0.59855,0.15824,-0.28540,-0.49173,0.06484,-1.55321,3.51285,2.34100,-1.56653,0.23850,-0.67421,-0.68749,-0.12615,-1.89453,8.39923,-20.02119
-0.32008,1.67248,-0.37192,0.65351,0.19526,-0.30900,-0.79171,0.43434,-1.68868,4.40316,2.97809,-2.43084,0.22218,-0.68697,-0.68033,-0.12596,-15.89334,25.52030,-11.16359
-0.30777,1.67747,-0.37816,0.71096,0.23341,-0.34183,-1.09480,0.73528,-1.90275,5.44231,3.15753,-3.14502,0.20327,-0.70186,-0.67083,-0.12674,-22.63619,29.79652,-13.33753
-0.29421,1.68330,-0.38525,0.77335,0.27506,-0.37974,-1.48721,1.02678,-2.18441,4.74135,3.24401,-2.89870,0.18071,-0.72060,-0.65714,-0.12746,-25.52200,24.53219,-25.13137
-0.27937,1.68846,-0.39226,0.84361,0.29463,-0.40677,-1.69771,1.41658,-2.34590,3.45037,-0.47957,-0.01451,0.15556,-0.73732,-0.64558,-0.12403,-13.79800,22.27975,-10.60919
-0.26488,1.69164,-0.39750,0.89397,0.27731,-0.39819,-1.52288,1.85909,-2.34977,3.84029,-1.53347,1.05058,0.12930,-0.74647,-0.64204,-0.11769,12.76489,25.16155,-6.32360
-0.24921,1.69429,-0.40228,0.95222,0.25561,-0.38474,-1.26377,2.18964,-2.49641,5.01227,-1.68434,0.99129,0.09960,-0.75324,-0.64006,-0.11418,22.40302,29.68307,-7.85743
-0.23175,1.69744,-0.40817,1.02793,0.24817,-0.39353,-1.19829,2.19190,-2.99477,6.18026,-0.17089,-1.98260,0.06698,-0.76235,-0.63191,-0.12255,7.39935,-3.85830,-33.40742
-0.21253,1.70121,-0.41593,1.11534,0.25280,-0.43222,-1.46678,2.33703,-3.46615,6.07904,0.36260,-3.81299,0.03044,-0.77668,-0.61597,-0.12816,-17.78018,6.13325,-34.86430
-0.19309,1.70460,-0.42458,1.18355,0.24987,-0.47635,-1.78119,2.54597,-3.76513,4.90449,-0.70839,-3.57338,-0.00656,-0.79182,-0.59676,-0.12986,-27.38931,19.72534,-26.22763
-0.17395,1.70556,-0.43330,1.22655,0.20462,-0.51024,-1.87756,2.81140,-3.75728,-0.26384,-3.43012,0.44577,-0.04124,-0.80342,-0.58068,-0.12502,-6.09740,23.40266,-2.63332
-0.15868,1.70521,-0.43972,1.19477,0.14760,-0.49753,-1.61626,2.43017,-3.54964,-3.61902,-3.72852,2.63661,-0.06188,-0.80710,-0.57260,-0.12995,14.15588,-17.98605,12.51900
-0.14559,1.70490,-0.44485,1.13280,0.10626,-0.46529,-1.35342,1.87235,-3.21027,-6.38642,-2.45326,3.27799,-0.07383,-0.80875,-0.56692,-0.13814,15.69902,-46.58882,21.04716
-0.13644,1.70449,-0.44805,1.02198,0.07334,-0.40444,-1.00990,1.15444,-2.51050,-7.29099,-1.18302,4.48664,-0.07122,-0.80768,-0.56692,-0.14555,15.50536,-46.18236,43.83532
-0.12790,1.70474,-0.45011,0.92575,0.05921,-0.33867,-0.61181,0.67398,-1.89208,-6.36907,-0.80285,4.43813,-0.06849,-0.80463,-0.57044,-0.14996,25.37681,-39.82990,46.87455
-0.11866,1.70533,-0.45209,0.86386,0.05496,-0.29036,-0.34579,0.36311,-1.54903,-4.10020,-0.58723,3.28178,-0.06901,-0.80190,-0.57282,-0.15513,24.41870,-30.00482,37.79552
-0.10889,1.70622,-0.45397,0.82680,0.05715,-0.25278,-0.12951,0.28130,-1.37988,-1.67856,0.14649,1.54614,-0.07411,-0.79919,-0.57509,-0.15836,17.50731,-15.27226,14.81598
-0.09781,1.70749,-0.45638,0.82068,0.06510,-0.23321,-0.03893,0.45245,-1.41481,0.12248,0.45406,0.71414,-0.08673,-0.79833,-0.57438,-0.15888,7.31295,7.74108,1.25714
-0.08607,1.70885,-0.45907,0.82652,0.07296,-0.22345,0.01414,0.74846,-1.49586,0.44098,0.46611,0.84085,-0.10346,-0.79813,-0.57257,-0.15635,6.51741,21.44313,-5.73449
-0.07468,1.71022,-0.46131,0.82474,0.07948,-0.20769,0.05627,0.87527,-1.59250,-0.77583,0.52285,1.66913,-0.11943,-0.79726,-0.57059,-0.15663,3.19043,12.51238,-8.57047
-0.06463,1.71159,-0.46275,0.80039,0.08445,-0.18213,0.18499,0.92154,-1.50470,-2.47259,0.66595,2.18512,-0.13121,-0.79489,-0.57169,-0.15522,8.54070,4.02238,1.63788
-0.05612,1.71318,-0.46346,0.75538,0.09222,-0.15075,0.32327,0.85293,-1.28330,-3.70164,0.76901,2.46481,-0.13779,-0.79190,-0.57477,-0.15346,10.14460,-4.17816,12.89843
-0.04875,1.71500,-0.46378,0.70157,0.10251,-0.12065,0.40091,0.63262,-1.03909,-3.71784,0.79050,2.00438,-0.13960,-0.78894,-0.57817,-0.15431,7.99393,-13.24105,18.59577
-0.04161,1.71714,-0.46449,0.65772,0.11539,-0.10458,0.34356,0.39749,-0.86600,-3.64821,1.07548,0.95537,-0.13989,-0.78763,-0.57903,-0.15747,-1.71034,-20.91072,14.25131
-0.03581,1.71984,-0.46536,0.60217,0.13468,-0.09495,0.09109,0.04824,-0.71657,-3.30351,1.12034,0.44140,-0.13589,-0.78923,-0.57571,-0.16494,-14.72792,-19.35769,11.26637
-0.03054,1.72279,-0.46658,0.54947,0.15544,-0.09325,-0.25265,-0.27179,-0.62512,-3.33986,1.37381,-0.06203,-0.13111,-0.79280,-0.56906,-0.17450,-20.90860,-19.93304,6.14114
-0.02581,1.72616,-0.46775,0.49862,0.17808,-0.09068,-0.56245,-0.52076,-0.54962,-4.21010,2.05548,0.45819,-0.12595,-0.79698,-0.56126,-0.18423,-25.26241,-18.47783,3.67366
-0.02253,1.73023,-0.46801,0.43385,0.20700,-0.07336,-0.66570,-0.60660,-0.34204,-5.21766,2.66697,1.66853,-0.11964,-0.80006,-0.55673,-0.18882,-13.10099,-9.20953,11.80495
-0.02108,1.73502,-0.46669,0.35287,0.24178,-0.03284,-0.53156,-0.59948,-0.02272,-6.52150,2.92471,3.85819,-0.11189,-0.80069,-0.55758,-0.18834,3.79773,1.61718,20.29685
-0.02168,1.74037,-0.46368,0.25601,0.27729,0.02734,-0.21633,-0.70907,0.28160,-7.20580,2.42833,4.59808,-0.10183,-0.79740,-0.56412,-0.18857,19.80847,-4.86413,26.62754
-0.02404,1.74638,-0.45969,0.15197,0.31621,0.08934,0.11589,-0.84286,0.45851,-8.03086,3.46475,4.13663,-0.09271,-0.79188,-0.57270,-0.19064,25.63645,-9.77914,13.59199
-0.02746,1.75377,-0.45546,0.05674,0.36895,0.13942,0.23273,-0.87797,0.82377,-8.16005,5.26887,3.79902,-0.07856,-0.78937,-0.57919,-0.18777,15.95936,-5.23532,24.01055
-0.03471,1.76376,-0.45023,-0.08202,0.45293,0.19468,0.24183,-0.81318,1.40580,-9.38209,5.19381,3.19855,-0.05839,-0.78927,-0.58479,-0.17794,-4.52414,2.18278,36.20339
-0.04263,1.77345,-0.44489,-0.19871,0.51132,0.23794,0.30365,-0.85449,1.88011,-10.08320,4.76970,4.50571,-0.03634,-0.78730,-0.59178,-0.16921,2.23340,4.00904,38.44701
-0.05428,1.78401,-0.43743,-0.34904,0.56946,0.30609,0.44030,-1.21732,2.43234,-11.16001,3.71166,5.71430,-0.00439,-0.78144,-0.60191,-0.16444,7.16982,-20.73937,39.27201
-0.06842,1.79447,-0.42854,-0.50548,0.61213,0.38261,0.69818,-1.66519,2.99570,-11.14687,2.71675,5.11477,0.03317,-0.77077,-0.61560,-0.16078,19.17615,-32.29927,41.07257
-0.08434,1.80495,-0.41947,-0.65566,0.64519,0.44554,0.92968,-2.01215,3.51094,-10.64843,1.93530,3.58708,0.07257,-0.75800,-0.62930,-0.15542,19.41838,-24.80104,38.25368
-0.10186,1.81524,-0.41066,-0.79742,0.66708,0.48952,1.09567,-2.19418,4.00672,-10.01363,0.98651,2.80799,0.11276,-0.74431,-0.64183,-0.14608,11.16585,-15.83807,36.43414
-0.12119,1.82456,-0.40148,-0.93631,0.66734,0.53053,1.32039,-2.38680,4.49762,-10.08847,-0.99531,2.90654,0.15564,-0.72657,-0.65536,-0.13555,11.86445,-11.37423,35.18835
-0.14225,1.83226,-0.39221,-1.07213,0.64062,0.56574,1.57003,-2.62726,4.95761,-9.62244,-2.79433,2.49886,0.20141,-0.70444,-0.66895,-0.12529,16.98479,-14.64534,36.38794
-0.16625,1.83735,-0.38247,-1.22895,0.57433,0.60135,1.93293,-2.90379,5.53812,-10.18960,-5.55874,1.91327,0.25210,-0.67517,-0.68400,-0.11290,20.11912,-13.21501,36.65311
-0.19142,1.83994,-0.37334,-1.36865,0.47999,0.61467,2.25333,-3.19393,6.12076,-9.89960,-7.81716,0.04408,0.30578,-0.64101,-0.69694,-0.09939,23.39186,-18.03391,42.11297
-0.21813,1.83918,-0.36533,-1.50122,0.35012,0.60564,2.52790,-3.42847,6.82090,-9.11280,-10.85650,-1.33477,0.36320,-0.60110,-0.70726,-0.08089,16.34674,-16.32646,49.28590
-0.24484,1.83545,-0.35852,-1.59984,0.20304,0.57856,2.82395,-3.81174,7.37409,-7.19091,-14.05795,-2.44912,0.42280,-0.55449,-0.71375,-0.06588,18.76935,-21.72145,52.76960
-0.27312,1.82350,-0.35415,-1.70136,-0.04949,0.51500,3.41998,-4.58141,7.94663,-5.60355,-18.15475,-5.23560,0.48990,-0.49229,-0.71702,-0.05948,47.32838,-36.40537,35.02939
-0.30017,1.80399,-0.35325,-1.75856,-0.38136,0.40280,4.03963,-5.14680,8.87658,-1.00121,-22.91628,-9.55592,0.55888,-0.41688,-0.71551,-0.04370,40.36365,-29.40390,60.22965
-0.32394,1.78504,-0.35385,-1.74573,-0.61644,0.29501,4.31892,-5.46101,9.45400,3.75085,-24.30662,-12.55263,0.61946,-0.34323,-0.70554,-0.02611,30.35357,-29.38928,65.46832
-0.34116,1.75411,-0.36310,-1.62337,-0.99360,0.06555,4.48765,-6.06419,10.20311,12.11393,-22.54553,-16.29300,0.68434,-0.26006,-0.68118,-0.00638,19.21442,-35.89862,49.41914
-0.35084,1.72386,-0.37559,-1.39956,-1.27397,-0.16894,4.65149,-6.56046,10.43011,21.12530,-18.09179,-17.08590,0.73876,-0.17964,-0.64957,0.00548,23.70586,-45.57804,15.87447
-0.35669,1.69689,-0.38805,-1.17269,-1.42599,-0.33917,5.04584,-6.66373,10.37835,25.50451,-12.94997,-16.74176,0.77837,-0.09647,-0.62024,0.01171,31.35151,-1.06862,15.35749
-0.34409,1.66921,-0.40922,-0.69236,-1.54861,-0.61539,5.70499,-6.77825,9.84180,28.77656,-0.34802,-14.05491,0.80818,-0.01457,-0.58876,0.00051,43.78562,24.05519,-5.43892
-0.33382,1.64996,-0.42557,-0.35840,-1.50596,-0.75037,5.80891,-6.58171,9.22979,27.97755,8.03874,-9.37108,0.82910,0.05329,-0.55654,-0.00471,23.47186,31.29752,-27.14768
-0.31478,1.64036,-0.44095,0.04354,-1.30768,-0.83546,5.48789,-5.91210,7.99296,23.22519,17.16400,-2.72764,0.83929,0.09596,-0.53498,-0.01352,-9.63886,57.85826,-57.51686
-0.29734,1.63708,-0.45176,0.32815,-1.04870,-0.82326,4.36373,-5.35873,6.88630,18.06574,21.35107,3.14552,0.85074,0.11790,-0.51215,-0.00592,-56.49511,38.04789,-90.16397
-0.28128,1.63861,-0.45873,0.51852,-0.77465,-0.75018,3.25742,-4.70488,5.54168,14.70948,25.31680,8.60815,0.85950,0.12303,-0.49611,-0.00012,-76.78027,34.83421,-107.90630
-0.26239,1.65490,-0.45754,0.71402,-0.30944,-0.55279,1.48889,-3.40102,3.20907,8.59762,27.02937,13.59013,0.86072,0.08189,-0.50242,0.00598,-84.16791,62.91553,-146.46490
-0.24650,1.67233,-0.45313,0.81522,0.07816,-0.34158,-0.04631,-2.23776,1.49520,6.05583,29.42468,16.37380,0.85801,0.04184,-0.51160,0.01822,-89.30823,78.35413,-133.55020
-0.23165,1.69374,-0.44541,0.87299,0.43368,-0.12797,-1.62710,-1.33364,-0.06328,3.87130,31.47260,18.84315,0.85272,-0.01230,-0.52090,0.03727,-119.74650,61.10970,-143.50180
-0.21751,1.72682,-0.43189,0.90390,0.89752,0.13012,-2.84929,0.03494,-2.10165,1.65345,35.34480,19.66595,0.83255,-0.08835,-0.54506,0.04421,-99.42436,74.56402,-151.47040
-0.20433,1.77385,-0.41397,0.91091,1.49920,0.40598,-2.88622,2.12175,-5.11300,1.26377,39.03934,17.27917,0.78666,-0.18308,-0.58957,0.00786,-7.14917,96.65842,-205.42830
-0.18927,1.82231,-0.39731,0.95088,1.97834,0.59465,-2.11895,3.89082,-7.59037,7.56147,40.49821,16.67935,0.72580,-0.26647,-0.63228,-0.04935,45.84312,89.58047,-222.47450
-0.16519,1.88246,-0.37678,1.13707,2.53203,0.80158,-0.87980,5.84511,-10.59623,20.07302,38.37357,12.98668,0.62894,-0.35901,-0.67574,-0.13755,86.15380,77.64972,-259.34010
-0.12168,1.94853,-0.35477,1.61950,3.06132,0.98725,-0.59100,6.84535,-14.04199,38.72014,27.92908,7.20546,0.51056,-0.47352,-0.68107,-0.22638,1.98809,61.93496,-226.91160
-0.06738,2.00523,-0.33658,2.16792,3.30176,1.06358,-1.19336,7.11010,-16.24695,53.69712,12.45378,5.58440,0.39271,-0.57952,-0.65340,-0.28810,-90.74160,58.57077,-179.82570
0.01574,2.05264,-0.32021,3.06876,3.32127,1.08898,-1.29597,8.86731,-17.87980,74.16216,-10.38615,-3.71551,0.22850,-0.66099,-0.63294,-0.33208,59.99113,85.23198,-113.85540
0.12000,2.07902,-0.31207,4.10748,2.97778,0.97020,-2.19634,10.87579,-19.53120,74.48605,-39.07237,-15.73191,0.03772,-0.73862,-0.57678,-0.34690,18.31993,130.61220,-148.03720
0.22871,2.08099,-0.31369,4.96128,2.31658,0.71910,-2.78850,13.02698,-20.11225,65.99653,-70.70739,-27.43826,-0.15524,-0.78135,-0.50817,-0.32736,73.23658,142.90400,-118.84070
0.34877,2.02634,-0.33902,5.79553,0.86258,0.13202,-1.85266,16.47728,-19.84092,31.68082,-106.96760,-44.98500,-0.37126,-0.76807,-0.45161,-0.26132,152.13820,44.15205,-153.66560
0.43661,1.94198,-0.37568,5.90543,-0.76376,-0.50755,1.08980,19.61427,-17.96484,-16.42181,-119.19810,-45.44946,-0.55968,-0.69328,-0.42721,-0.15367,217.77550,-39.35228,-185.20840
0.49354,1.84647,-0.41554,5.48422,-2.16849,-1.04504,5.67244,20.64892,-16.79093,-52.18847,-112.17280,-41.66423,-0.71975,-0.54844,-0.42115,-0.06174,175.15150,-174.85280,-346.93800
0.49240,1.71794,-0.47585,4.16665,-3.80483,-1.80440,10.36182,18.28742,-17.49906,-91.04457,-71.09058,-38.01817,-0.83579,-0.34819,-0.42313,-0.03448,-113.29130,-115.18800,-261.90490
0.48057,1.62693,-0.52562,2.97571,-4.44905,-2.21508,11.43669,16.09200,-18.18559,-105.73780,-38.24510,-27.71027,-0.90823,-0.18518,-0.37465,-0.02130,-183.25050,-49.34167,-158.78530
0.44428,1.54968,-0.57137,1.69749,-4.70014,-2.45353,10.77835,13.92321,-18.56065,-106.59580,-7.05990,-10.48534,-0.94829,-0.04763,-0.31242,-0.02941,-191.10510,-3.69230,-20.30235
0.37159,1.49505,-0.60469,0.11853,-4.51410,-2.42637,8.58335,11.57985,-18.08683,-88.37998,26.59541,14.07326,-0.96380,0.04651,-0.25454,-0.06438,-171.48420,21.99570,109.72620
0.30932,1.46119,-0.61915,-0.94107,-4.02934,-2.09263,6.50877,9.63263,-17.23438,-62.66397,42.24803,33.30219,-0.96552,0.12770,-0.20406,-0.09913,-149.36440,9.13595,139.89620
0.25446,1.44498,-0.61487,-1.63005,-3.36535,-1.52747,3.83038,7.41075,-16.61546,-32.77289,51.89445,45.48597,-0.95096,0.20052,-0.16850,-0.16452,-200.22670,42.21635,122.65960
0.21964,1.44359,-0.59869,-1.82293,-2.60849,-0.89839,1.60928,5.04598,-14.90863,7.48781,56.17176,42.47701,-0.92934,0.24470,-0.16294,-0.22337,-204.40520,37.93306,165.93300
0.21190,1.44919,-0.58088,-1.52188,-1.91593,-0.39104,-0.30597,2.27731,-13.05109,32.66218,45.33168,29.87383,-0.89739,0.27982,-0.19242,-0.28172,-231.42860,-58.09832,159.45420
0.22920,1.45229,-0.56962,-0.87388,-1.42944,-0.11328,-1.02224,0.24156,-7.12976,63.03623,16.19996,11.95851,-0.90124,0.20818,-0.25389,-0.28278,-95.34830,-21.44313,237.48010
0.26235,1.44869,-0.56506,-0.12309,-1.16248,-0.00868,-1.73537,-0.65614,-0.75606,46.44875,19.39193,8.48544,-0.90698,0.07437,-0.31604,-0.26829,-98.21542,-119.73420,547.60030
0.29786,1.44810,-0.55897,0.49065,-0.90617,0.09962,-2.41774,-0.16403,5.19256,36.73129,20.03175,8.86050,-0.90170,-0.09828,-0.34351,-0.24348,-87.77506,88.86661,446.11690
0.32618,1.45063,-0.54947,0.84149,-0.65643,0.23793,-3.59247,0.26320,8.52271,16.98966,18.98846,10.96232,-0.87001,-0.24131,-0.35582,-0.24133,-89.71127,54.17304,276.97210
0.34534,1.45680,-0.53704,0.95741,-0.40455,0.39223,-4.62343,0.52200,10.09713,1.05063,17.61627,10.87669,-0.82664,-0.35478,-0.35902,-0.24882,-75.26379,10.34571,155.26700
0.35524,1.46515,-0.52325,0.89429,-0.17521,0.53311,-5.79007,0.68716,9.84633,-9.33439,17.04978,8.75259,-0.78343,-0.43052,-0.34973,-0.28031,-89.56531,-33.52418,20.56354
0.35585,1.47445,-0.50836,0.69081,0.01944,0.65955,-6.18106,-0.44016,8.33396,-13.51595,10.49268,6.06078,-0.74448,-0.45820,-0.36518,-0.32008,1.06145,-103.04150,-71.29445
0.35406,1.48115,-0.49502,0.49071,0.12690,0.73037,-5.70027,-1.70356,7.14967,-14.85965,6.23036,3.83803,-0.70822,-0.47400,-0.39423,-0.34401,81.91991,-98.16036,-45.39414
0.35061,1.48771,-0.48319,0.31186,0.20645,0.75867,-5.25921,-2.39136,6.30637,-11.81384,5.08639,0.76716,-0.67345,-0.49112,-0.41577,-0.36388,66.32766,-58.14019,-43.30327
0.34703,1.49512,-0.47341,0.17494,0.28301,0.74392,-4.80497,-2.69322,6.06452,-8.81893,5.13725,-2.37975,-0.63571,-0.51647,-0.43491,-0.37416,47.18385,-21.65940,-14.21970
0.34422,1.50306,-0.46557,0.08400,0.34864,0.69937,-4.68025,-2.45150,6.22455,-7.63049,4.61565,-4.18101,-0.59455,-0.55438,-0.44250,-0.37864,20.03596,14.14358,7.10468
0.33975,1.51224,-0.46028,-0.01223,0.41732,0.62363,-4.96228,-1.81859,6.43456,-7.50664,4.07159,-6.03529,-0.55099,-0.60099,-0.43457,-0.38259,-31.34755,33.92526,1.60660
0.33344,1.52072,-0.45707,-0.11536,0.45908,0.53166,-5.41230,-1.14810,6.40733,-7.75708,1.47805,-6.99884,-0.50768,-0.64648,-0.41613,-0.38880,-49.46493,32.17636,-12.37757
0.32558,1.52710,-0.45534,-0.22077,0.45640,0.43574,-5.65167,-0.69989,6.08399,-7.49234,-1.09799,-7.31157,-0.46851,-0.68281,-0.39666,-0.39614,-35.66606,14.94300,-30.87597
0.31646,1.53142,-0.45455,-0.32192,0.41992,0.34667,-5.32747,-0.44673,5.71622,-6.83247,-3.13716,-6.62546,-0.43618,-0.70957,-0.38614,-0.39642,6.12010,13.86681,-32.24514
0.30619,1.53313,-0.45488,-0.41944,0.34875,0.25896,-4.46178,-0.13718,5.38394,-5.61031,-5.42812,-5.19670,-0.41352,-0.72981,-0.38494,-0.38498,46.37872,26.29083,-26.14134
0.29677,1.53370,-0.45422,-0.48035,0.27568,0.20825,-3.85474,0.15471,5.11954,-4.68091,-7.17459,-3.43260,-0.39049,-0.75014,-0.38175,-0.37293,44.41746,36.22163,-29.69791
0.28695,1.53209,-0.45320,-0.53164,0.18621,0.17667,-3.54643,0.44416,4.67269,-4.34746,-8.64346,-1.20640,-0.37148,-0.76870,-0.37189,-0.36441,30.56613,29.61696,-35.24215
0.27603,1.52565,-0.45117,-0.58888,0.03709,0.16992,-3.52867,0.56647,3.74178,-2.38945,-8.40332,1.02472,-0.36108,-0.78080,-0.35266,-0.36825,-1.50034,-3.49461,-52.85330
0.26634,1.52030,-0.44762,-0.61348,-0.06109,0.18955,-3.52799,0.52008,3.12234,-1.64550,-8.03596,2.26358,-0.34628,-0.79239,-0.33576,-0.37345,-3.59479,-13.26677,-50.61911
0.25662,1.51284,-0.44243,-0.63252,-0.16969,0.23131,-3.42764,0.33052,2.40516,-1.15078,-7.43671,3.40041,-0.33667,-0.79815,-0.32022,-0.38349,7.83885,-21.00436,-47.19376
0.24680,1.50457,-0.43617,-0.64931,-0.26743,0.28142,-3.07862,0.17903,1.79120,-0.39313,-4.36726,2.28365,-0.33170,-0.80053,-0.30992,-0.39125,17.16920,-20.76841,-42.19407
0.23723,1.49788,-0.43022,-0.65819,-0.31721,0.31514,-2.58539,0.28478,1.66598,-0.07453,-2.30637,2.20719,-0.32375,-0.80716,-0.30602,-0.38733,35.08569,5.37863,-18.96495
0.22840,1.49101,-0.42399,-0.65246,-0.35896,0.34593,-2.57767,0.20507,1.35326,0.16035,-2.98658,2.46386,-0.31462,-0.81294,-0.29309,-0.39274,10.54863,-1.74188,-15.80096
0.21921,1.48409,-0.41746,-0.65425,-0.39142,0.37447,-2.51602,0.19348,1.11883,-0.10566,-1.84613,1.88813,-0.30642,-0.81860,-0.28065,-0.39653,2.52492,-6.69032,-18.43209
0.21004,1.47755,-0.41057,-0.65496,-0.40978,0.40251,-2.50066,0.14804,0.99563,0.23866,-1.02720,2.25201,-0.29620,-0.82445,-0.26842,-0.40062,3.97514,-2.44045,-10.22454
0.20111,1.47129,-0.40318,-0.65181,-0.41917,0.43238,-2.66754,-0.01170,0.88640,0.28339,-0.42784,2.60641,-0.28294,-0.82981,-0.25276,-0.40924,-8.96443,-9.90702,-7.41803
