posX, posY, posZ, velX, velY, velZ, angVelX, angVelY, angVelZ, accX, accY, accZ, rotX, rotY, rotZ, rotW, angAccX, angAccY, angAccZ
-0.11773,1.36830,-0.40998,-0.11217,-0.08685,-0.18386,-1.56148,-0.55017,1.06276,2.13924,-0.25481,0.60133,0.23519,-0.87001,-0.02897,-0.43236,5.18046,-6.25679,-12.28728
-0.11794,1.36729,-0.41209,-0.08907,-0.08333,-0.17593,-1.42052,-0.52375,0.82973,1.76895,0.63794,0.41618,0.23885,-0.86860,-0.02262,-0.43355,9.67068,-2.66151,-17.69891
-0.11810,1.36715,-0.41406,-0.07132,-0.06587,-0.16800,-1.13883,-0.34938,0.57432,0.88421,1.55361,0.30994,0.23802,-0.86961,-0.02064,-0.43209,17.47165,7.88678,-19.44827
-0.11884,1.36752,-0.41593,-0.06751,-0.04429,-0.16006,-0.76697,-0.02604,0.35089,0.04693,1.81393,0.47102,0.23412,-0.87324,-0.02375,-0.42670,26.06482,20.26666,-18.23141
-0.12020,1.36896,-0.41720,-0.07508,-0.00983,-0.14399,-0.17937,0.54456,0.02197,-0.80593,2.46965,1.33676,0.22181,-0.88173,-0.03496,-0.41489,36.69106,37.22982,-23.11654
-0.12172,1.37039,-0.41823,-0.08311,0.01599,-0.12810,0.10483,0.59585,-0.06665,-0.66387,2.77829,1.57969,0.21621,-0.88434,-0.04138,-0.41168,26.35542,21.46237,-17.33174
-0.12347,1.37311,-0.41858,-0.09290,0.05664,-0.10494,0.56726,0.72127,-0.17526,-0.68664,2.88648,1.76304,0.20635,-0.88774,-0.05456,-0.40787,35.33245,8.00033,-5.34010
-0.12533,1.37591,-0.41856,-0.10223,0.08899,-0.08099,0.86836,0.61920,-0.20573,-0.80286,2.38664,1.97375,0.19868,-0.88828,-0.06572,-0.40887,26.15006,-0.54045,-6.58385
-0.12725,1.37874,-0.41841,-0.11031,0.11462,-0.06060,0.82760,-0.02333,-0.02399,-0.62418,2.77772,0.97156,0.20090,-0.88090,-0.06831,-0.42308,-4.72603,-42.55627,5.03158
-0.12969,1.38303,-0.41864,-0.12558,0.15834,-0.05104,1.07159,-0.11757,0.07281,-1.22636,2.66505,-0.63210,0.19820,-0.87782,-0.08031,-0.42860,12.64021,-23.73887,12.90657
-0.13319,1.38783,-0.41906,-0.15454,0.20017,-0.04677,1.50949,0.44090,-0.10529,-2.25316,2.59577,-0.16406,0.18400,-0.88365,-0.09982,-0.41874,30.02044,32.73022,-9.87631
-0.13773,1.39316,-0.41962,-0.19479,0.24226,-0.04612,2.05799,1.26904,-0.31239,-2.52593,2.92513,-0.01748,0.16426,-0.89317,-0.12612,-0.39920,34.87472,53.91290,-8.31607
-0.14229,1.39858,-0.42035,-0.22577,0.27609,-0.04833,2.40701,1.72113,-0.32477,-2.80344,3.10252,0.01758,0.14936,-0.89885,-0.15112,-0.38331,32.24028,45.30150,-4.04915
-0.14802,1.40510,-0.42122,-0.26971,0.32079,-0.05174,2.82713,2.20357,-0.36957,-2.76020,2.73414,-0.30738,0.13107,-0.90428,-0.18024,-0.36416,27.61384,27.87960,0.76115
-0.15399,1.41176,-0.42215,-0.30869,0.35846,-0.05528,3.11518,2.67830,-0.38340,-2.82031,2.89167,-0.18296,0.11295,-0.90944,-0.20864,-0.34151,23.41595,35.10738,-2.32506
-0.16013,1.41836,-0.42325,-0.34060,0.38559,-0.06049,3.25197,2.88671,-0.29521,-2.61977,1.91935,-0.06284,0.09894,-0.91185,-0.23511,-0.32165,17.61081,24.55384,8.86806
-0.16670,1.42538,-0.42495,-0.37129,0.41309,-0.07528,3.19861,2.96663,-0.27035,-1.42479,1.76774,-1.25735,0.08584,-0.91371,-0.25640,-0.30336,2.04733,4.73023,3.71026
-0.17261,1.43249,-0.42716,-0.38422,0.43575,-0.09542,2.95738,2.91799,-0.31887,-0.61889,1.31710,-1.11654,0.07363,-0.91573,-0.27088,-0.28749,-17.48814,1.47384,1.11313
-0.17820,1.43949,-0.42932,-0.38882,0.45122,-0.10959,2.81698,2.89234,-0.45759,-0.19328,0.60687,-1.02430,0.05810,-0.91718,-0.28518,-0.27218,-15.14704,-5.36149,-6.74990
-0.18361,1.44604,-0.43128,-0.38991,0.45713,-0.11513,2.84522,3.08840,-0.61325,-0.01338,0.02979,-0.74922,0.03821,-0.91847,-0.30301,-0.25128,-3.32516,10.87418,-8.68885
-0.18912,1.45234,-0.43379,-0.39305,0.45912,-0.12706,2.79348,3.40871,-0.83507,-0.51594,0.31281,-0.66161,0.01451,-0.92069,-0.31810,-0.22569,-0.06886,27.78177,-12.62251
-0.19520,1.45865,-0.43694,-0.40424,0.45965,-0.14748,2.43708,3.13559,-0.76941,-0.81582,0.19150,-0.58028,0.00405,-0.92134,-0.32573,-0.21216,-19.97816,-4.90923,3.89499
-0.20140,1.46489,-0.44021,-0.41448,0.45875,-0.16527,1.97252,2.49273,-0.61407,-0.85748,0.02182,-1.08304,0.00198,-0.92090,-0.32827,-0.21019,-35.35160,-45.18032,11.35900
-0.20796,1.47106,-0.44381,-0.42833,0.45724,-0.18312,1.43277,1.77556,-0.43667,-1.20822,-0.18514,-1.40302,0.00530,-0.92083,-0.32576,-0.21432,-40.42392,-56.30877,12.77138
-0.21506,1.47690,-0.44749,-0.44784,0.45013,-0.19917,0.92906,1.15752,-0.25959,-1.66316,-1.21462,-1.05590,0.01079,-0.92114,-0.32125,-0.21950,-32.32064,-39.86643,12.20470
-0.22230,1.48266,-0.45091,-0.46446,0.44300,-0.20862,0.60223,0.88537,-0.19397,-1.16503,0.11064,-0.96994,0.01198,-0.92219,-0.31807,-0.21968,-29.65754,-32.70488,8.58897
-0.22983,1.48883,-0.45382,-0.48243,0.44408,-0.20691,0.46340,0.93461,-0.15567,-1.63010,-0.52104,0.29219,0.00957,-0.92386,-0.31795,-0.21282,-11.69339,-0.96828,2.76441
-0.23825,1.49423,-0.45578,-0.51177,0.43148,-0.19030,0.47129,1.04610,-0.11179,-1.90456,-0.60853,1.66087,0.00590,-0.92483,-0.32125,-0.20360,-0.39811,11.23015,2.85579
-0.24678,1.49994,-0.45723,-0.53563,0.42681,-0.16947,0.55203,1.08163,-0.05666,-2.19155,-0.23423,1.79449,0.00284,-0.92465,-0.32665,-0.19574,3.59210,-0.88763,3.60413
-0.25655,1.50532,-0.45722,-0.57508,0.41738,-0.12861,0.79175,1.36817,0.04960,-2.57198,-0.80654,3.01219,-0.00203,-0.92401,-0.33724,-0.18021,13.96840,16.79599,5.75592
-0.26642,1.51029,-0.45641,-0.60686,0.40280,-0.08403,0.97964,1.41096,0.14504,-1.89347,-1.23685,3.77795,-0.00494,-0.92212,-0.34798,-0.16905,16.21909,10.67951,6.64293
-0.27611,1.51498,-0.45517,-0.62731,0.38699,-0.04482,1.07511,1.24841,0.20251,-1.41055,-1.56709,3.34952,-0.00599,-0.91954,-0.35733,-0.16347,9.93189,-10.00126,4.58631
-0.28584,1.51893,-0.45321,-0.64340,0.36284,-0.00357,1.20183,1.15752,0.20598,-1.05042,-2.01088,2.23015,-0.00865,-0.91640,-0.36786,-0.15756,7.63042,-12.35534,0.16586
-0.29503,1.52183,-0.45113,-0.64628,0.32601,0.03038,1.30736,1.31413,0.14110,0.68435,-2.83978,1.70079,-0.01546,-0.91402,-0.37821,-0.14589,8.89327,10.60294,-1.67860
-0.30310,1.52446,-0.44972,-0.63012,0.29351,0.04457,1.27675,1.35127,-0.03196,1.89428,-3.09457,0.95280,-0.02429,-0.91233,-0.38483,-0.13774,-0.03820,7.88583,-10.79759
-0.31026,1.52631,-0.44865,-0.60356,0.25667,0.04977,1.16882,1.38165,-0.26838,2.46594,-3.34916,0.04528,-0.03575,-0.91145,-0.38843,-0.13081,-8.89574,2.19351,-17.10193
-0.31562,1.52631,-0.44783,-0.55488,0.19714,0.04732,0.92840,1.52340,-0.64307,2.67773,-3.23004,-0.38619,-0.05302,-0.91244,-0.38672,-0.12286,-14.15926,8.59860,-19.42746
-0.32136,1.52675,-0.44705,-0.52443,0.15802,0.04449,0.76391,1.63465,-0.85465,2.36824,-3.20724,-0.13193,-0.06828,-0.91292,-0.38591,-0.11393,-15.53908,12.77092,-17.31439
-0.32695,1.52665,-0.44616,-0.49937,0.12044,0.04446,0.60369,1.68832,-1.01557,1.84448,-2.88985,0.15814,-0.08317,-0.91349,-0.38393,-0.10593,-15.68729,7.71439,-13.14192
-0.33228,1.52523,-0.44476,-0.47533,0.06897,0.05418,0.44575,1.81700,-1.19148,0.81745,-2.64735,0.83475,-0.10030,-0.91428,-0.38048,-0.09627,-10.75076,7.38281,-8.93974
-0.33834,1.52436,-0.44293,-0.46810,0.03810,0.06971,0.42612,1.96194,-1.23236,0.37076,-2.14645,1.58830,-0.11567,-0.91381,-0.38013,-0.08405,-3.35053,11.60992,-5.46020
-0.34472,1.52313,-0.43980,-0.46821,0.00854,0.10360,0.46147,2.06478,-1.18020,-0.30559,-1.32101,2.80213,-0.12892,-0.91267,-0.38130,-0.07089,2.58888,9.44355,1.44317
-0.35194,1.52226,-0.43556,-0.48107,-0.00944,0.15069,0.50497,1.93920,-1.01727,-0.95909,-0.79983,3.33037,-0.13668,-0.91115,-0.38380,-0.06185,3.27080,-7.23986,9.22879
-0.35934,1.52173,-0.43109,-0.49421,-0.01722,0.19044,0.53151,1.79516,-0.85205,-1.06871,-0.50246,3.43036,-0.14268,-0.90966,-0.38636,-0.05372,3.75855,-11.11938,11.55302
-0.36706,1.52119,-0.42581,-0.50897,-0.02287,0.23414,0.48578,1.50370,-0.64431,-0.83661,-0.38223,3.06286,-0.14423,-0.90890,-0.38810,-0.04972,0.40464,-18.17110,14.35901
-0.37474,1.52080,-0.42052,-0.51899,-0.02405,0.26991,0.34837,1.18721,-0.46116,-0.70037,-0.10622,2.26778,-0.14376,-0.90933,-0.38744,-0.04844,-8.89976,-23.83243,13.63730
-0.38249,1.52051,-0.41502,-0.52810,-0.02302,0.30169,0.19898,0.96147,-0.28483,-0.50434,0.11486,1.62451,-0.14247,-0.91042,-0.38559,-0.04653,-9.74865,-17.11377,11.75699
-0.38999,1.52038,-0.40978,-0.53051,-0.01955,0.32043,0.11369,0.89157,-0.20828,-0.22231,0.39579,1.31366,-0.14393,-0.91107,-0.38397,-0.04238,-7.56235,-8.55650,8.31281
-0.39749,1.52038,-0.40448,-0.53158,-0.01410,0.33818,0.04784,0.91490,-0.15932,-0.04630,0.16347,1.12813,-0.14648,-0.91178,-0.38195,-0.03624,-4.26591,1.25662,4.83555
-0.40477,1.52038,-0.39932,-0.52831,-0.00988,0.34925,-0.04586,0.94652,-0.15142,0.47623,0.34091,0.59502,-0.14989,-0.91283,-0.37864,-0.03025,-6.02581,1.19620,1.72592
-0.41158,1.52059,-0.39408,-0.51848,-0.00365,0.35760,-0.14599,1.04796,-0.20238,0.71979,0.43373,0.64595,-0.15567,-0.91396,-0.37404,-0.02296,-8.49867,5.45200,-2.38496
-0.41795,1.52066,-0.38857,-0.50386,-0.00170,0.36704,-0.24786,1.06989,-0.31820,1.47757,-0.09459,0.79112,-0.16289,-0.91489,-0.36894,-0.01801,-6.41688,5.72371,-5.92955
-0.42353,1.52072,-0.38309,-0.47938,-0.00020,0.37381,-0.37309,1.06010,-0.53780,1.77429,0.04798,0.27662,-0.17323,-0.91562,-0.36246,-0.01560,-10.44353,-3.35688,-12.75998
-0.42860,1.52079,-0.37754,-0.45178,0.00099,0.38047,-0.38121,1.22749,-0.81377,2.01756,0.15244,0.34065,-0.18854,-0.91471,-0.35732,-0.00927,-4.32439,8.72647,-19.68114
-0.43311,1.52132,-0.37195,-0.42025,0.00968,0.38766,-0.35090,1.41284,-1.16706,2.19929,1.30137,0.68698,-0.20829,-0.91229,-0.35260,-0.00273,-1.19949,11.83877,-24.12256
-0.43764,1.52252,-0.36573,-0.39732,0.02713,0.40333,-0.14062,1.70085,-1.45956,1.44991,1.87290,1.58109,-0.23042,-0.90713,-0.35206,0.00860,9.28173,17.55265,-27.01446
-0.44200,1.52470,-0.35796,-0.37767,0.05673,0.43995,0.23607,1.97205,-1.74887,1.27768,2.25247,3.05861,-0.25492,-0.89842,-0.35690,0.02218,24.09985,20.17837,-22.51763
-0.44695,1.52765,-0.34897,-0.37287,0.09308,0.48868,0.47902,1.94787,-1.85402,-0.44538,1.47750,3.41253,-0.27338,-0.89074,-0.36184,0.03027,19.67657,-4.83865,-12.91652
-0.45275,1.52970,-0.33982,-0.38342,0.10592,0.52857,0.62077,1.71768,-2.02318,-0.42593,2.94498,3.29713,-0.29181,-0.88287,-0.36659,0.03156,1.32195,-10.22445,-14.82629
-0.46144,1.53305,-0.33219,-0.39600,0.15732,0.56611,0.95172,1.39107,-1.72761,-0.61933,4.25973,1.94535,-0.29717,-0.87577,-0.37882,0.03481,25.26120,-29.27173,12.17047
-0.47310,1.53652,-0.32665,-0.42174,0.20808,0.58307,1.05547,1.45260,-1.33365,-1.45733,3.53295,1.03801,-0.30102,-0.87145,-0.38435,0.04740,6.91850,-1.63069,34.86817
-0.48451,1.54027,-0.32056,-0.44763,0.24269,0.59442,1.23845,1.53076,-1.10432,-0.99630,2.71212,1.20695,-0.30717,-0.86485,-0.39236,0.06114,21.36271,8.74601,16.61469
-0.49206,1.54648,-0.31220,-0.46178,0.29140,0.60057,1.22442,1.37995,-0.76768,-0.68237,2.91999,0.11792,-0.30681,-0.86184,-0.39779,0.06972,1.55799,-11.25773,19.78860
-0.49907,1.55293,-0.30387,-0.47148,0.33116,0.59988,1.19968,1.29106,-0.45969,-0.63834,2.81228,-0.21903,-0.30559,-0.85931,-0.40235,0.07946,-0.54177,-8.57811,21.46162
-0.50600,1.55962,-0.29586,-0.47739,0.36564,0.59406,1.12604,1.15739,-0.16100,-0.12965,2.20955,-0.49715,-0.30208,-0.85804,-0.40594,0.08788,-0.98620,-8.83929,21.39630
-0.51289,1.56645,-0.28744,-0.47830,0.39331,0.58363,0.96523,0.93460,0.15045,0.23284,0.94554,-1.08616,-0.29534,-0.85896,-0.40775,0.09327,-7.22345,-14.51411,20.39512
-0.51941,1.57246,-0.27947,-0.47369,0.40124,0.57050,0.80808,0.74640,0.32529,0.57628,0.25289,-1.58984,-0.29010,-0.85980,-0.40883,0.09713,-12.16158,-17.18059,16.29602
-0.52534,1.57789,-0.27241,-0.46103,0.39784,0.54807,0.68514,0.65177,0.41809,0.95917,-0.71589,-2.14158,-0.28638,-0.86026,-0.40940,0.10165,-9.70835,-10.91816,9.13100
-0.52536,1.58396,-0.26421,-0.42298,0.38439,0.51840,0.61086,0.71998,0.38344,1.57156,-1.31072,-2.63514,-0.28705,-0.85911,-0.40951,0.10878,-5.20439,1.71572,-0.07232
-0.52620,1.58942,-0.25687,-0.38792,0.37008,0.49296,0.62546,0.91709,0.25923,1.97599,-1.40756,-2.64615,-0.29182,-0.85572,-0.41037,0.11909,-2.37501,12.69712,-7.23208
-0.52748,1.59391,-0.25088,-0.34939,0.34968,0.46274,0.71398,1.20696,0.07708,2.47148,-1.68005,-2.28404,-0.30033,-0.84990,-0.41216,0.13265,4.82024,21.64191,-11.87241
-0.52982,1.59720,-0.24623,-0.30500,0.32039,0.42838,0.80104,1.40592,-0.13835,2.69710,-1.69505,-1.51177,-0.31019,-0.84308,-0.41476,0.14480,3.84038,13.71961,-12.19519
-0.53248,1.60060,-0.24099,-0.27695,0.30064,0.41328,0.84533,1.39214,-0.23656,2.46626,-1.61331,-1.08262,-0.31637,-0.83765,-0.41804,0.15329,3.05246,3.17383,-9.82969
-0.53453,1.60368,-0.23593,-0.24590,0.28119,0.40034,0.90649,1.31524,-0.31999,2.14335,-1.14308,-0.82970,-0.32183,-0.83196,-0.42263,0.16018,3.07495,-5.30834,-6.73004
-0.53607,1.60674,-0.23093,-0.21314,0.26572,0.38923,1.02822,1.25338,-0.37873,2.02006,-0.76477,-0.69471,-0.32673,-0.82530,-0.42896,0.16773,7.25660,-3.61743,-4.63180
-0.53770,1.61011,-0.22577,-0.18993,0.25958,0.38410,1.17426,1.27936,-0.39595,1.78039,-0.29430,-0.23134,-0.33152,-0.81772,-0.43570,0.17776,8.01759,-1.77128,-4.11011
-0.53897,1.61342,-0.22047,-0.16678,0.25387,0.38270,1.29419,1.14459,-0.36180,2.01815,-0.84120,0.02431,-0.33326,-0.81094,-0.44398,0.18494,13.56203,-1.71706,-0.10964
-0.54004,1.61704,-0.21519,-0.14610,0.25451,0.38095,1.30241,0.83187,-0.25732,1.10810,0.35105,-0.13531,-0.33074,-0.80714,-0.45185,0.18702,-0.60170,-24.85943,4.40727
-0.54129,1.62069,-0.20984,-0.13348,0.25544,0.38098,1.38995,0.66628,-0.13516,0.89934,0.12691,-0.04182,-0.32751,-0.80221,-0.46072,0.19220,5.09957,-16.69539,7.87006
-0.54216,1.62435,-0.20476,-0.11730,0.25671,0.37686,1.46224,0.43914,-0.00051,1.05392,0.04189,-0.48572,-0.32183,-0.79803,-0.47046,0.19557,6.06127,-15.58860,8.20551
-0.54292,1.62800,-0.19999,-0.10313,0.25766,0.36891,1.47865,0.30497,0.05764,1.15197,0.06083,-0.83162,-0.31793,-0.79368,-0.47898,0.19893,1.94595,-13.14441,4.86919
-0.54325,1.63158,-0.19566,-0.08558,0.25700,0.35573,1.52270,0.28067,0.09417,1.10016,-0.07596,-1.11344,-0.31504,-0.78826,-0.48748,0.20436,2.61131,-4.58027,2.15123
-0.53704,1.63581,-0.19071,-0.04768,0.25777,0.33811,1.53843,0.28304,0.09761,1.34665,-0.05795,-1.42570,-0.31319,-0.78256,-0.49546,0.20983,1.84738,0.25076,0.99507
-0.52966,1.64014,-0.18555,-0.01341,0.25866,0.32530,1.55662,0.27187,0.09617,1.04084,-0.09698,-1.38977,-0.31122,-0.77671,-0.50366,0.21494,1.02957,-0.53822,-0.41226
-0.52209,1.64439,-0.18065,0.01883,0.25899,0.31258,1.54294,0.22432,0.09582,1.12171,-0.16822,-1.38713,-0.30877,-0.77144,-0.51152,0.21883,0.24650,-2.27288,0.32972
-0.51989,1.64787,-0.17761,0.03983,0.25580,0.28924,1.51382,0.14058,0.04906,0.97373,-0.20035,-1.29083,-0.30677,-0.76632,-0.51958,0.22066,-1.43430,-4.59500,-3.44796
-0.51852,1.65125,-0.17467,0.05365,0.25271,0.27081,1.45633,0.06057,0.00762,1.05806,-0.35064,-1.37822,-0.30484,-0.76166,-0.52699,0.22186,-2.14485,-4.24812,-3.24330
-0.51697,1.65463,-0.17217,0.06712,0.25045,0.24937,1.34670,-0.06430,-0.04598,0.98038,-0.04034,-1.68566,-0.30286,-0.75822,-0.53358,0.22063,-7.58554,-8.28985,-4.22568
-0.51521,1.65817,-0.17030,0.08130,0.25131,0.22202,1.20677,-0.15264,-0.08391,0.67696,0.16241,-1.69320,-0.30125,-0.75558,-0.53882,0.21911,-9.04433,-5.98679,-3.61783
-0.51361,1.66176,-0.16832,0.08929,0.25290,0.20304,1.13071,-0.17829,-0.08510,0.64250,0.16428,-1.52543,-0.29941,-0.75245,-0.54416,0.21924,-7.45137,-3.33184,-0.64968
-0.51177,1.66537,-0.16657,0.09932,0.25444,0.18504,1.08507,-0.16042,-0.10114,0.63846,0.16080,-1.04107,-0.29839,-0.74876,-0.54945,0.22003,-5.30088,0.22794,-1.25536
-0.50967,1.66885,-0.16465,0.11165,0.25322,0.17409,1.13432,-0.08278,-0.12157,0.92021,-0.06741,-0.40993,-0.29794,-0.74320,-0.55607,0.22287,2.73909,4.31707,-0.33958
-0.50731,1.67228,-0.16236,0.12545,0.25163,0.17178,1.21152,0.00758,-0.17097,1.22386,-0.08922,0.01352,-0.29846,-0.73639,-0.56346,0.22620,5.07290,6.36894,-2.76980
-0.50440,1.67562,-0.15972,0.14497,0.24896,0.17614,1.33103,0.09442,-0.24669,1.68559,-0.26056,0.61926,-0.29975,-0.72793,-0.57222,0.22988,9.07599,8.51487,-4.62929
-0.50111,1.67890,-0.15656,0.16633,0.24583,0.18818,1.40221,0.05081,-0.34146,1.73705,-0.28472,1.19257,-0.30015,-0.72010,-0.58167,0.23030,5.86710,0.24023,-6.23647
-0.49753,1.68210,-0.15275,0.18746,0.24209,0.20814,1.46355,-0.05939,-0.43612,1.59774,-0.38352,1.61765,-0.29963,-0.71237,-0.59201,0.22865,4.33540,-6.26685,-6.75707
-0.49366,1.68523,-0.14837,0.20838,0.23806,0.23308,1.51390,-0.18056,-0.54219,1.35029,-0.19896,1.96135,-0.29911,-0.70443,-0.60286,0.22554,2.48384,-9.17110,-8.66349
-0.48977,1.68825,-0.14333,0.22486,0.23312,0.26306,1.65811,-0.22834,-0.60342,0.78654,-0.25302,2.19386,-0.29808,-0.69434,-0.61531,0.22458,8.18932,-5.51834,-6.09616
-0.48577,1.69148,-0.13785,0.23947,0.23301,0.29337,1.84167,-0.17346,-0.61101,1.25656,0.43521,2.10163,-0.29716,-0.68244,-0.62807,0.22692,13.47998,1.54440,-0.36098
-0.48110,1.69530,-0.13191,0.26181,0.24270,0.32442,2.00099,-0.05136,-0.60453,1.68271,0.73152,2.40056,-0.29726,-0.66956,-0.64018,0.23129,11.38894,7.74132,0.69001
-0.47601,1.69915,-0.12524,0.28584,0.25043,0.36029,2.16535,0.04303,-0.61397,2.05483,0.38958,2.79905,-0.29732,-0.65545,-0.65300,0.23576,13.04550,8.42772,1.55647
-0.47022,1.70292,-0.11742,0.31657,0.25516,0.40799,2.31912,-0.00955,-0.69736,1.95630,0.04120,3.32704,-0.29638,-0.64075,-0.66763,0.23638,8.98961,-1.25888,-5.51250
-0.46456,1.70615,-0.10892,0.33789,0.24940,0.45651,2.51013,-0.14409,-0.75735,1.33436,-0.74444,3.70182,-0.29294,-0.62505,-0.68407,0.23566,12.16070,-7.93941,-5.92537
-0.45917,1.70865,-0.09952,0.34945,0.23244,0.50880,2.72961,-0.39786,-0.79356,0.53963,-1.58968,3.86408,-0.28574,-0.60860,-0.70271,0.23271,14.45623,-15.52020,-5.48324
-0.45423,1.71050,-0.08979,0.35055,0.20891,0.55347,2.92535,-0.67230,-0.80570,-0.13999,-2.23375,3.63293,-0.27606,-0.59177,-0.72205,0.22856,15.33138,-22.11176,-4.53922
-0.44961,1.71124,-0.07890,0.34608,0.17241,0.60693,3.12396,-1.09785,-0.84386,-0.28860,-2.36322,3.08443,-0.26188,-0.57452,-0.74359,0.22004,12.30049,-26.02648,-6.06194
-0.44508,1.71180,-0.06817,0.34117,0.14086,0.64567,3.26285,-1.45288,-0.91754,-0.35334,-2.21487,2.49437,-0.24774,-0.55681,-0.76455,0.20991,9.33598,-25.86938,-9.65642
-0.44042,1.71210,-0.05733,0.33981,0.11257,0.67725,3.38621,-1.76434,-1.03418,0.06888,-1.89744,2.02465,-0.23327,-0.53783,-0.78561,0.19783,9.39152,-21.37727,-10.77128
-0.43566,1.71221,-0.04643,0.34038,0.08778,0.70232,3.48863,-2.04858,-1.16690,-0.01003,-1.71349,1.60069,-0.21813,-0.51796,-0.80644,0.18384,7.32015,-18.61856,-13.51286
-0.43082,1.71209,-0.03551,0.34206,0.06483,0.72174,3.57375,-2.32064,-1.30877,0.28967,-1.68279,1.22615,-0.20196,-0.49727,-0.82689,0.16791,6.15823,-17.93598,-12.24254
-0.42581,1.71158,-0.02466,0.34645,0.04067,0.73524,3.62304,-2.59937,-1.51092,0.53392,-1.96882,0.69485,-0.18536,-0.47588,-0.84685,0.14842,5.83830,-16.96211,-16.20167
-0.42057,1.71049,-0.01417,0.35347,0.01239,0.73921,3.59377,-2.86149,-1.80900,0.72057,-2.31597,-0.11192,-0.16975,-0.45462,-0.86550,0.12418,1.14171,-14.66653,-22.83920
-0.41485,1.70880,-0.00408,0.36702,-0.01942,0.73509,3.52182,-3.04820,-2.20885,1.23879,-2.47683,-0.58472,-0.15678,-0.43263,-0.88269,0.09544,-1.67166,-8.48055,-30.19241
-0.40858,1.70641,0.00553,0.38664,-0.05545,0.72433,3.43541,-3.07907,-2.66650,1.36349,-2.77318,-1.03643,-0.14842,-0.40952,-0.89785,0.06424,-0.96706,1.96341,-33.96212
-0.40211,1.70350,0.01485,0.40526,-0.09135,0.71235,3.43446,-2.97900,-3.00627,1.39099,-3.08461,-1.01058,-0.14251,-0.38393,-0.91162,0.03514,5.17704,11.23040,-29.71251
-0.39508,1.69884,0.02351,0.42850,-0.14819,0.69090,3.44547,-2.76252,-3.48923,1.11244,-3.95497,-2.54756,-0.14251,-0.35564,-0.92369,0.00197,8.92823,13.37372,-26.59284
-0.38780,1.69293,0.03062,0.45116,-0.21467,0.64732,3.49014,-2.26438,-3.74949,1.07971,-4.08489,-3.26460,-0.14908,-0.32628,-0.93313,-0.02428,9.54095,30.97129,-12.51725
-0.38073,1.68678,0.03720,0.46449,-0.26923,0.60534,3.69789,-1.79419,-3.68016,0.63415,-4.43946,-3.47936,-0.15448,-0.29343,-0.94249,-0.04184,20.87217,34.18463,9.18660
-0.37421,1.67887,0.04254,0.46496,-0.33987,0.55278,4.23799,-1.29878,-3.25693,-1.33753,-4.55861,-3.95418,-0.15932,-0.25169,-0.95348,-0.04637,35.50481,24.62697,29.98521
-0.36934,1.66977,0.04675,0.43732,-0.41366,0.49387,5.03284,-1.03576,-2.26445,-3.16789,-4.83751,-3.73003,-0.15426,-0.20232,-0.96656,-0.03216,50.79465,-1.85685,69.72159
-0.36681,1.65983,0.04976,0.37648,-0.48424,0.42823,5.83653,-1.20547,-1.08121,-5.57775,-4.87593,-5.19860,-0.13545,-0.14854,-0.97955,-0.00856,52.43419,-37.53714,79.43734
-0.36733,1.64920,0.05048,0.27856,-0.54977,0.33925,6.53614,-1.78630,0.01194,-8.25702,-4.59258,-7.08819,-0.10290,-0.09218,-0.99026,0.01739,42.69868,-64.97462,66.32323
-0.37138,1.63817,0.04821,0.14404,-0.60637,0.22072,7.24746,-2.81267,1.08344,-10.90618,-3.36703,-9.48432,-0.05249,-0.03068,-0.99704,0.04713,45.11988,-88.99732,48.84888
-0.37902,1.62776,0.04195,-0.01873,-0.63888,0.06269,7.71549,-4.25419,1.95145,-11.93127,-1.49722,-12.94494,0.01670,0.02911,-0.99661,0.07517,41.71033,-117.44660,29.25975
-0.38805,1.61892,0.03315,-0.16390,-0.63770,-0.09770,7.74339,-5.55803,2.16564,-11.39434,0.58545,-14.43610,0.08937,0.08019,-0.98874,0.08929,26.84760,-113.84880,-13.10196
-0.40107,1.61269,0.01790,-0.34086,-0.59249,-0.32785,7.31509,-7.13970,1.77558,-9.61271,4.68980,-15.83381,0.17638,0.11741,-0.97351,0.08587,9.28392,-85.32172,-62.91726
-0.41241,1.60904,0.00257,-0.44949,-0.51599,-0.50568,6.66061,-7.87711,0.85779,-7.41905,7.29374,-15.52822,0.24713,0.14394,-0.95592,0.06653,-1.69041,-45.58809,-98.47591
-0.42457,1.60942,-0.01666,-0.54476,-0.39250,-0.70365,5.80490,-8.25796,-0.52951,-5.70725,10.56113,-14.27926,0.31140,0.15707,-0.93679,0.02807,0.79034,11.51676,-121.10170
-0.43591,1.61530,-0.04000,-0.60532,-0.20409,-0.92698,4.86123,-8.51971,-1.84202,-2.04083,13.81831,-14.28179,0.37417,0.15898,-0.91352,-0.01442,-5.74506,15.89191,-104.35670
-0.44414,1.62457,-0.06447,-0.60089,-0.00078,-1.12069,4.05862,-8.52257,-2.70268,2.20160,16.08541,-13.87785,0.43033,0.15794,-0.88733,-0.05004,-12.02124,22.35751,-86.61205
-0.45008,1.63440,-0.08841,-0.56121,0.15875,-1.25564,3.50826,-8.53615,-3.07379,5.00460,16.83097,-13.30992,0.48481,0.15879,-0.85668,-0.07646,-17.82222,25.98055,-67.79476
-0.44798,1.65678,-0.12131,-0.39508,0.49067,-1.50851,2.25470,-8.77586,-3.54941,11.09334,16.91726,-11.89411,0.54440,0.13398,-0.82216,-0.09870,-41.88507,4.06179,-49.69202
-0.44267,1.67665,-0.15113,-0.20704,0.71569,-1.66028,1.47284,-8.71733,-3.62955,16.39477,15.53777,-10.03717,0.59547,0.11747,-0.78657,-0.11372,-44.20715,5.96837,-55.00374
-0.43145,1.69894,-0.18155,0.03722,0.92816,-1.78590,0.80469,-8.39534,-3.64266,18.89727,14.47951,-8.14529,0.63785,0.09983,-0.75326,-0.12563,-35.97752,35.65493,-11.51475
-0.41472,1.72271,-0.21211,0.31738,1.11465,-1.88346,0.17726,-8.12162,-3.73692,21.36263,12.47083,-5.86284,0.67818,0.07772,-0.71783,-0.13694,-32.94328,28.24219,-25.37660
-0.39222,1.74777,-0.24207,0.62948,1.27865,-1.94712,-0.38641,-7.87063,-3.90099,23.55744,11.17384,-3.21516,0.71578,0.05203,-0.68048,-0.14799,-24.80545,27.14523,-26.88165
-0.36622,1.77298,-0.27033,0.92156,1.40386,-1.96618,-0.89730,-7.61625,-4.09595,25.63677,10.02971,0.13605,0.75008,0.02278,-0.64176,-0.15816,-24.86737,24.12568,-32.76453
-0.33194,1.80033,-0.29587,1.27836,1.53338,-1.93451,-1.35007,-7.02675,-4.39926,26.28639,8.54131,4.57849,0.77465,-0.01223,-0.60885,-0.17049,-13.58399,40.62349,-35.11540
-0.28970,1.82966,-0.31624,1.69129,1.66793,-1.82170,-1.62280,-6.07603,-4.90739,26.17674,8.26610,9.88948,0.78787,-0.05256,-0.58352,-0.18973,11.29875,54.63959,-36.91319
-0.24822,1.85857,-0.33324,1.99378,1.76403,-1.67999,-1.70490,-5.20747,-5.35317,25.32582,8.01965,14.27300,0.79609,-0.09244,-0.55949,-0.21134,24.30621,59.99583,-41.47052
-0.20023,1.89017,-0.34248,2.32892,1.88084,-1.44383,-1.68889,-3.73363,-6.22026,23.85460,8.62092,19.82449,0.78576,-0.14622,-0.54923,-0.24400,50.78278,79.89452,-59.22493
-0.14661,1.92490,-0.34155,2.68560,2.02546,-1.08773,-1.66626,-1.55863,-7.58747,23.51321,10.73679,24.63998,0.75060,-0.22019,-0.55379,-0.28538,65.53431,102.97880,-79.42450
-0.09257,1.96040,-0.33878,2.96649,2.14845,-0.78611,-1.92323,0.21896,-9.04435,25.52873,11.37758,25.43710,0.70514,-0.30861,-0.55072,-0.32287,71.05514,116.08630,-135.77980
-0.02723,1.99915,-0.32749,3.36595,2.29447,-0.41822,-2.59467,2.54283,-11.30511,33.29038,10.27005,26.08034,0.62348,-0.43242,-0.54443,-0.35761,41.05984,133.38580,-166.78830
0.04651,2.03681,-0.31406,3.80471,2.38662,-0.10509,-3.05845,4.64849,-13.38937,43.12056,4.69748,27.51383,0.51594,-0.55635,-0.52504,-0.38550,21.25482,134.48860,-204.96530
0.14522,2.06216,-0.29722,4.72256,2.33673,0.30576,-2.45995,8.41269,-17.23494,61.78924,-15.48030,17.69528,0.30676,-0.69208,-0.49640,-0.42487,90.15182,96.72778,-284.72900
0.22399,2.06422,-0.30300,5.46348,1.98532,0.42761,-2.34893,10.75561,-19.24835,69.24818,-42.87727,4.47424,0.11318,-0.78290,-0.44060,-0.42441,46.34598,93.10394,-250.15160
0.31742,2.04207,-0.31235,6.36418,1.08140,0.36674,-2.26018,14.44789,-20.44001,64.71153,-85.30829,-12.57789,-0.11567,-0.84228,-0.38267,-0.36159,102.07320,130.80210,-198.09820
0.43600,1.97536,-0.32617,7.05963,-0.38744,0.07246,-0.60216,18.56059,-20.71432,33.24890,-122.79100,-28.28719,-0.36019,-0.83117,-0.33762,-0.25578,175.82250,59.24744,-260.17190
0.54354,1.85762,-0.35455,7.18737,-2.24940,-0.42230,3.38634,20.70532,-20.78020,-17.89834,-141.33670,-38.69746,-0.58634,-0.72911,-0.31337,-0.16247,95.27563,-80.89034,-319.02900
0.61334,1.72226,-0.39352,6.67639,-3.93304,-0.95931,6.84188,19.65580,-21.71393,-68.75628,-138.15630,-44.60548,-0.76149,-0.57620,-0.27150,-0.12009,-126.92700,-90.76265,-268.40610
0.62168,1.55877,-0.44562,5.30433,-5.65431,-1.57960,9.86886,17.42973,-23.02761,-126.78240,-102.34860,-42.48340,-0.89267,-0.37820,-0.22648,-0.09386,-239.33300,6.69994,-177.28480
0.57007,1.41369,-0.49460,3.27834,-6.68925,-2.01983,12.68369,14.85463,-23.43440,-155.83920,-39.80717,-19.48516,-0.96435,-0.16324,-0.20184,-0.05138,-194.72270,-18.57402,-168.70040
0.49849,1.30862,-0.52675,1.43194,-6.85159,-2.08194,14.98705,11.23985,-23.48254,-146.43360,12.68775,7.98304,-0.97730,0.05822,-0.20297,-0.01721,-262.69960,-17.69730,-204.64810
0.37910,1.26084,-0.52854,-0.77098,-6.06830,-1.65476,11.87897,4.98084,-23.13564,-91.74114,61.04856,39.60242,-0.94438,0.20840,-0.22632,-0.11617,-353.28260,142.89870,-26.97195
0.31903,1.22881,-0.51857,-1.58194,-5.21066,-1.15258,7.47922,3.17212,-21.40860,-46.06904,78.55216,44.24273,-0.92076,0.28090,-0.18614,-0.19659,-313.31050,309.98370,205.46840
0.27895,1.21801,-0.49290,-1.87168,-4.20703,-0.51737,3.14102,1.58938,-18.39901,2.47866,66.91836,42.31668,-0.89187,0.30185,-0.17368,-0.28861,-210.91700,203.57220,253.58950
0.26808,1.20685,-0.46626,-1.63109,-3.45762,0.00832,-0.38241,0.17630,-14.93234,30.69352,40.96090,31.81923,-0.85850,0.29615,-0.18679,-0.37467,-198.60000,155.73160,253.80220
0.27989,1.18536,-0.44297,-1.09156,-3.04229,0.36730,-2.47941,-1.33889,-8.88890,41.94662,24.76951,21.02553,-0.84392,0.21199,-0.25555,-0.42138,-284.30470,107.64720,340.12260
0.29056,1.15590,-0.42573,-0.70171,-2.84477,0.55005,-3.64985,-1.78957,-5.79818,36.80940,18.01222,17.18797,-0.82218,0.16787,-0.29058,-0.45979,-126.70710,68.25912,414.52050
0.32027,1.13658,-0.40031,-0.11303,-2.53638,0.82192,-5.22967,-0.69876,-0.66108,27.17765,19.14363,13.79022,-0.81023,0.02310,-0.31822,-0.49165,-97.16955,161.49040,252.93410
0.34180,1.12126,-0.37734,0.23803,-2.22056,1.00893,-6.23223,0.68967,2.68274,16.14627,22.52072,9.06117,-0.78828,-0.10005,-0.32130,-0.51514,-78.43279,154.64340,188.05020
0.35649,1.11266,-0.35764,0.41387,-1.85370,1.10274,-7.03809,2.18730,4.08181,6.01210,24.60720,2.75758,-0.75955,-0.19408,-0.29829,-0.54447,-71.58448,125.09740,74.58719
0.36469,1.10383,-0.34222,0.44256,-1.57675,1.10657,-7.53606,2.88737,3.81570,0.38585,23.01803,-2.34341,-0.72749,-0.24546,-0.26905,-0.58148,-66.69124,55.69279,-20.39846
0.36954,1.09991,-0.33037,0.40926,-1.28804,1.05294,-7.47455,3.19960,3.65672,-3.86359,19.98857,-6.04805,-0.69871,-0.29056,-0.24617,-0.60563,-17.18950,27.82670,-19.51641
0.37068,1.09738,-0.32175,0.32862,-1.04172,0.95879,-7.08454,2.90862,3.31673,-6.31338,15.94518,-7.99995,-0.67231,-0.31886,-0.23481,-0.62546,21.02899,-17.35472,-19.97752
0.36988,1.09493,-0.31547,0.23289,-0.85009,0.84699,-6.47744,2.37693,2.96037,-7.11844,12.39380,-8.18103,-0.64975,-0.33715,-0.23110,-0.64090,46.81371,-37.86416,-16.41517
0.36768,1.09325,-0.31144,0.13736,-0.68852,0.72462,-5.88747,2.05723,2.58406,-7.48886,10.95474,-9.52942,-0.63048,-0.35337,-0.22415,-0.65375,44.34704,-30.81279,-19.78205
0.36443,1.09233,-0.30979,0.04963,-0.55070,0.59087,-5.28157,1.87492,2.25947,-5.96019,8.93718,-9.59802,-0.61483,-0.36863,-0.21597,-0.66291,43.33462,-16.85803,-26.05145
0.36122,1.09167,-0.31037,-0.01964,-0.44120,0.45201,-4.87952,2.04233,1.77126,-4.61763,6.36017,-9.69109,-0.60160,-0.38482,-0.19610,-0.67197,28.34025,-1.76223,-34.31149
0.35866,1.08993,-0.31238,-0.06191,-0.37333,0.32212,-4.31968,2.01580,1.40685,-1.18673,3.73299,-9.57489,-0.59224,-0.39688,-0.18151,-0.67734,24.43101,1.60266,-42.25687
0.35676,1.08776,-0.31548,-0.08181,-0.32640,0.20251,-3.31660,1.63801,1.53948,-0.80650,3.24037,-8.72308,-0.58853,-0.40703,-0.18887,-0.67253,68.34593,-19.40849,1.62975
0.35538,1.08616,-0.32007,-0.09059,-0.28158,0.08685,-2.27745,1.44931,1.73361,-0.94972,3.09807,-7.42697,-0.58974,-0.41921,-0.19936,-0.66085,80.98946,-9.93320,11.90445
0.35422,1.08487,-0.32457,-0.09254,-0.24175,-0.00031,-1.78099,1.68257,1.56006,-0.93477,3.55060,-5.30060,-0.59045,-0.43430,-0.19257,-0.65243,59.70372,12.46402,-7.36870
0.35342,1.08662,-0.33060,-0.08790,-0.16197,-0.09231,-2.09162,2.42100,0.81424,0.64524,6.12295,-4.47772,-0.58673,-0.45244,-0.15384,-0.65374,-20.08673,36.59481,-50.71566
0.35310,1.08999,-0.33563,-0.07599,-0.07466,-0.14930,-2.45877,2.83743,0.55690,2.26670,7.87529,-5.14845,-0.57429,-0.47394,-0.12238,-0.65620,-48.00460,38.73204,-38.91167
0.35356,1.09733,-0.34196,-0.05469,0.05564,-0.21326,-2.33956,2.76441,0.97546,1.93639,7.95180,-4.29419,-0.56004,-0.49702,-0.11628,-0.65254,2.43457,5.88252,18.03304
0.35372,1.10544,-0.34789,-0.04095,0.17362,-0.26047,-1.68406,2.25896,1.72980,0.29399,6.92670,-2.89377,-0.54941,-0.51625,-0.13491,-0.64299,47.49715,-20.20977,44.28419
0.35302,1.11348,-0.35386,-0.04513,0.26433,-0.29762,-1.05698,1.91453,2.22785,-1.58349,6.17542,-2.18875,-0.54180,-0.53371,-0.15275,-0.63109,57.43163,-20.63901,38.12535
0.35159,1.12078,-0.35969,-0.05897,0.32092,-0.32350,-0.83430,1.86636,2.27982,-2.52143,5.40003,-1.74358,-0.53440,-0.55049,-0.15669,-0.62196,40.63313,-7.21072,18.11391
0.34827,1.13068,-0.36645,-0.10002,0.40531,-0.35817,-0.86671,1.95442,1.96018,-2.80809,4.25782,-1.20772,-0.52895,-0.56438,-0.14824,-0.61621,-3.81676,3.97973,-17.44108
0.34456,1.13987,-0.37226,-0.13892,0.46144,-0.37057,-0.94719,1.93287,1.68303,-2.79476,3.78351,-0.60717,-0.52225,-0.57630,-0.13975,-0.61287,-10.93495,-0.36706,-19.97230
0.34054,1.14928,-0.37739,-0.17313,0.50804,-0.36940,-0.86356,1.76677,1.53972,-2.52686,4.13882,0.27400,-0.51671,-0.58574,-0.13741,-0.60912,0.68384,-9.76141,-16.54249
0.33549,1.16117,-0.38143,-0.21543,0.58522,-0.35111,-0.50128,1.37363,1.66691,-2.13206,5.44255,1.38145,-0.51185,-0.59267,-0.14888,-0.60381,22.30800,-20.48194,2.07635
0.33038,1.17444,-0.38495,-0.24939,0.66754,-0.32835,-0.14427,1.02518,1.97811,-2.30372,6.25857,1.83114,-0.50421,-0.60168,-0.16647,-0.59669,32.69837,-22.41353,19.26436
0.32512,1.18930,-0.38820,-0.27824,0.75780,-0.30683,0.01064,0.82353,2.32893,-1.68684,6.55325,1.98088,-0.49222,-0.61375,-0.18298,-0.58954,19.83944,-15.86371,24.00723
0.32009,1.20482,-0.39137,-0.29663,0.83746,-0.28971,-0.14503,0.78771,2.63765,-1.56898,6.64265,1.81654,-0.47443,-0.62957,-0.19338,-0.58409,1.02575,-7.53274,26.53813
0.31441,1.22289,-0.39468,-0.32120,0.93925,-0.27888,-0.77522,0.95776,2.94657,-1.76853,6.04094,0.52364,-0.44618,-0.65207,-0.19250,-0.58196,-35.70227,2.72092,22.65227
0.30837,1.24076,-0.39868,-0.34672,1.01712,-0.28140,-1.51880,1.18579,3.13988,-2.08174,5.09398,-0.41280,-0.41419,-0.67602,-0.18412,-0.58099,-51.88894,7.27679,17.78946
0.30190,1.25833,-0.40310,-0.37289,1.07125,-0.28978,-2.08506,1.35595,3.30445,-2.37277,3.97061,-1.28376,-0.38115,-0.69918,-0.17549,-0.57886,-54.37228,5.51765,15.91395
0.29350,1.27641,-0.40833,-0.42505,1.12167,-0.30985,-2.55682,1.54451,3.55738,-3.46692,1.64096,-1.44497,-0.34464,-0.72381,-0.16724,-0.57389,-28.42855,7.04883,16.27471
0.28470,1.29259,-0.41363,-0.47287,1.13020,-0.32715,-2.77951,1.63620,3.65094,-4.37287,-0.60174,-1.30003,-0.31245,-0.74439,-0.16080,-0.56781,-16.38798,3.33960,10.86458
0.27503,1.30781,-0.41879,-0.52213,1.12001,-0.33840,-2.79181,1.70144,3.70671,-4.10025,-1.76947,-1.14415,-0.28305,-0.76310,-0.15701,-0.55939,-9.67832,3.83990,2.07822
0.26402,1.32150,-0.42387,-0.58090,1.08749,-0.34546,-2.79905,1.74460,3.66293,-4.33610,-3.22905,-0.19799,-0.25521,-0.77997,-0.15175,-0.55091,-1.67248,4.67180,-0.84723
0.25175,1.33311,-0.42837,-0.64775,1.02697,-0.34172,-2.81462,1.70289,3.55991,-4.18340,-4.51557,0.58306,-0.22811,-0.79424,-0.14579,-0.54397,-1.77986,-3.10561,-5.72919
0.23951,1.34397,-0.43240,-0.69789,0.96806,-0.33169,-2.79752,1.62634,3.44717,-4.15934,-5.39516,0.99492,-0.20192,-0.80667,-0.14016,-0.53747,0.09251,-6.27646,-8.02755
0.22618,1.35267,-0.43578,-0.75301,0.88820,-0.31379,-2.72567,1.51659,3.32639,-3.69478,-6.16565,1.45599,-0.17724,-0.81714,-0.13562,-0.53148,4.45138,-7.86351,-7.56153
0.21230,1.35896,-0.43815,-0.80482,0.78492,-0.28414,-2.56666,1.37136,3.14408,-2.85786,-6.96454,2.08174,-0.15604,-0.82529,-0.13247,-0.52631,10.18917,-8.17099,-9.73957
0.19904,1.36488,-0.44029,-0.83475,0.69939,-0.25768,-2.39057,1.25180,2.95648,-2.16858,-7.51833,2.15476,-0.13680,-0.83244,-0.12976,-0.52105,13.15003,-10.35352,-13.87895
0.18587,1.36911,-0.44184,-0.85548,0.60901,-0.22820,-2.07282,1.20548,2.76046,-1.12196,-7.84430,2.28364,-0.12231,-0.83909,-0.13040,-0.51377,20.36038,-6.13787,-16.81458
0.17331,1.36996,-0.44201,-0.86252,0.48554,-0.18277,-1.48765,1.27470,2.45713,0.29920,-7.72964,3.00408,-0.11786,-0.84542,-0.13651,-0.50274,33.26897,6.36802,-21.87587
