posX, posY, posZ, velX, velY, velZ, angVelX, angVelY, angVelZ, accX, accY, accZ, rotX, rotY, rotZ, rotW, angAccX, angAccY, angAccZ
-0.02583,1.29636,-0.44244,-0.26196,0.12509,-0.00781,1.01217,0.32201,-0.55317,2.30504,-1.87283,1.20029,0.07501,-0.89085,0.00383,-0.44805,-9.02783,-13.70947,-8.98040
-0.02792,1.29687,-0.44145,-0.23669,0.10405,0.00959,1.07054,0.42587,-0.70644,0.93082,-0.87635,0.56580,0.06360,-0.89378,-0.00053,-0.44397,2.15885,4.21208,-10.72815
-0.03109,1.29775,-0.44070,-0.23511,0.09383,0.01959,1.07005,0.49966,-0.63188,-0.41878,-0.14377,1.10656,0.05768,-0.89625,-0.00641,-0.43973,4.98292,11.48469,-0.46085
-0.03478,1.29870,-0.43991,-0.24252,0.08723,0.02767,0.89826,0.34092,-0.35924,-0.65471,-0.47244,0.60696,0.05977,-0.89547,-0.01010,-0.44097,-10.72016,-10.01102,18.06820
-0.03851,1.29937,-0.43909,-0.24863,0.07756,0.03473,0.68164,0.14843,-0.15015,-0.20839,-0.89436,0.48181,0.06316,-0.89375,-0.01139,-0.44394,-15.35548,-14.35897,17.67036
-0.04182,1.30000,-0.43827,-0.24646,0.06934,0.03983,0.47954,-0.01114,-0.07348,0.28082,-0.51764,0.03968,0.06485,-0.89203,-0.01058,-0.44717,-15.30749,-13.01805,7.15111
-0.04508,1.30090,-0.43788,-0.24430,0.06768,0.03636,0.28607,-0.05761,-0.04851,-0.06946,0.16329,-0.77669,0.06610,-0.89136,-0.00844,-0.44836,-13.62610,-5.60076,1.12198
-0.04883,1.30209,-0.43798,-0.25052,0.07158,0.02579,0.14435,0.01643,0.00247,-0.78222,0.57459,-1.41804,0.06818,-0.89209,-0.00703,-0.44663,-14.15029,1.74985,3.35198
-0.05356,1.30425,-0.43887,-0.27151,0.09037,0.00483,0.18399,0.38655,0.06060,-1.96191,1.85199,-2.19532,0.06880,-0.89690,-0.01042,-0.43672,-3.31968,18.92804,4.09532
-0.05986,1.30750,-0.44019,-0.31405,0.12291,-0.01876,0.31577,0.84569,0.27115,-2.93256,2.31765,-0.74783,0.07224,-0.90354,-0.01933,-0.42192,11.15139,33.97599,11.12476
-0.06616,1.31105,-0.44117,-0.34666,0.15371,-0.03084,0.26393,0.89815,0.54406,-2.03113,2.36615,-0.25004,0.08076,-0.90591,-0.02487,-0.41495,-0.54178,9.22067,19.35609
-0.07224,1.31514,-0.44181,-0.36814,0.18631,-0.03425,0.17476,0.75522,0.78456,-1.40064,2.34406,-0.00870,0.09094,-0.90580,-0.02902,-0.41280,-6.24984,-9.28854,19.24164
-0.07841,1.31989,-0.44225,-0.38626,0.22258,-0.03389,0.16805,0.71485,0.93703,-1.28964,2.67900,-0.52297,0.09946,-0.90640,-0.03457,-0.40909,1.23887,-9.17525,13.10062
-0.08504,1.32535,-0.44291,-0.40775,0.26203,-0.03715,0.09770,0.61493,1.16744,-1.83300,2.90013,0.00961,0.11172,-0.90586,-0.03955,-0.40666,-3.71757,-2.60136,13.08483
-0.09230,1.33111,-0.44356,-0.43480,0.29695,-0.03981,0.05649,0.55158,1.41162,-1.89792,2.33151,-0.31109,0.12579,-0.90497,-0.04567,-0.40387,-4.00034,-7.72239,18.94490
-0.09965,1.33701,-0.44413,-0.45655,0.32568,-0.04043,0.14991,0.60730,1.56482,-1.68667,2.10733,-0.27980,0.13734,-0.90513,-0.05506,-0.39855,3.34231,0.01300,15.11666
-0.10753,1.34359,-0.44452,-0.48195,0.35910,-0.03789,0.42641,0.87110,1.63172,-1.41979,1.81607,0.07152,0.14472,-0.90760,-0.07013,-0.38781,15.00353,15.71272,5.35552
-0.11513,1.34996,-0.44478,-0.49718,0.38170,-0.03362,0.66163,1.15009,1.61232,-1.19580,1.82380,0.54815,0.14957,-0.91091,-0.08531,-0.37495,18.33219,25.25004,-1.26654
-0.12277,1.35652,-0.44463,-0.50894,0.40152,-0.02363,0.83499,1.29628,1.65556,-0.98291,1.71543,1.60641,0.15608,-0.91284,-0.10092,-0.36355,14.02964,21.14142,0.42059
-0.13077,1.36402,-0.44311,-0.52401,0.43255,0.00637,1.08858,1.33783,1.77221,-0.79083,1.99138,2.18407,0.16353,-0.91278,-0.12041,-0.35440,13.78453,3.75483,4.25989
-0.13864,1.37137,-0.44127,-0.53368,0.45442,0.03518,1.27441,1.31904,1.86922,-0.88492,1.65039,2.63398,0.17147,-0.91164,-0.13933,-0.34656,15.33238,0.12899,7.35413
-0.14666,1.37887,-0.43865,-0.54308,0.47303,0.06903,1.50610,1.38288,1.93569,-0.55555,1.31946,2.79807,0.17788,-0.91051,-0.16110,-0.33671,17.77469,3.64884,5.88643
-0.15436,1.38660,-0.43465,-0.54547,0.49127,0.11721,1.84740,1.53492,1.93217,0.31321,0.62289,3.28443,0.18042,-0.90941,-0.18729,-0.32456,21.17417,13.37936,0.69735
-0.16096,1.39361,-0.43028,-0.52966,0.49408,0.16121,2.05173,1.46705,1.85597,1.81164,-0.24883,3.48422,0.18222,-0.90658,-0.20988,-0.31758,16.33644,3.90103,-6.47442
-0.16573,1.39998,-0.42525,-0.48710,0.48595,0.20629,2.18249,1.22074,1.66648,3.34659,-0.80082,2.33886,0.18178,-0.90231,-0.22930,-0.31656,9.94396,-12.92520,-12.16297
-0.16921,1.40596,-0.42099,-0.43178,0.47250,0.22843,2.23119,1.03395,1.35027,4.69387,-1.75168,0.49105,0.17744,-0.89905,-0.24555,-0.31612,6.25234,-13.59996,-20.51520
-0.17027,1.41100,-0.41784,-0.34825,0.44642,0.22637,2.10512,0.90487,0.77123,5.93574,-2.10208,-2.10814,0.16592,-0.89862,-0.25416,-0.31680,-5.89684,-14.59253,-33.65999
-0.17040,1.41587,-0.41624,-0.26858,0.42366,0.19932,1.82286,1.02641,0.07460,7.21775,-2.27331,-2.64339,0.14800,-0.90284,-0.25651,-0.31174,-21.17885,20.56282,-46.63328
-0.16751,1.41996,-0.41636,-0.15897,0.39444,0.15077,1.39640,1.06729,-0.90271,8.08698,-2.16567,-4.04469,0.12005,-0.90983,-0.24822,-0.31015,-33.42720,8.08601,-63.70213
-0.16400,1.42403,-0.41723,-0.06648,0.37243,0.10241,0.94940,1.11789,-1.78896,7.13835,-1.63848,-3.88173,0.08883,-0.91753,-0.23487,-0.30835,-38.02886,14.15176,-71.50669
-0.15947,1.42755,-0.41891,0.02046,0.34649,0.05245,0.42954,0.95413,-2.62631,3.58204,-0.96929,-1.76273,0.05592,-0.92396,-0.21382,-0.31219,-40.08950,1.95701,-57.39458
-0.15793,1.43133,-0.41912,0.03913,0.33141,0.03792,0.16673,0.72792,-2.89017,-0.53172,0.14251,-0.44702,0.03321,-0.92641,-0.20033,-0.31706,-26.39596,-13.86179,-26.24320
-0.15946,1.43638,-0.41810,0.00288,0.34122,0.04712,0.12870,0.71705,-2.72289,-4.16213,2.29747,0.97194,0.01812,-0.92829,-0.19552,-0.31578,-8.59805,-5.29656,1.57936
-0.16464,1.44324,-0.41567,-0.08451,0.37747,0.07709,0.41962,0.94988,-2.01088,-7.50431,4.61902,2.17223,0.01467,-0.92973,-0.20574,-0.30506,12.29178,8.32177,36.35924
-0.17288,1.45206,-0.41203,-0.20152,0.43706,0.11900,0.98603,1.29841,-0.96535,-8.57506,4.42330,3.31764,0.02103,-0.92952,-0.23105,-0.28665,51.82856,20.57038,74.59995
-0.18146,1.46137,-0.40830,-0.29521,0.48974,0.15213,1.29508,1.34737,-0.16271,-7.15518,4.12568,3.10004,0.03032,-0.92765,-0.25237,-0.27359,39.94745,8.63133,68.95811
-0.19109,1.47190,-0.40448,-0.38398,0.54992,0.17911,1.39716,1.14082,0.60931,-4.30440,2.70604,0.98700,0.04715,-0.92395,-0.27071,-0.26611,13.76671,-18.30094,51.29605
-0.19880,1.48166,-0.40165,-0.42237,0.58470,0.18439,1.30995,0.98899,0.90072,-1.66843,1.55447,-0.12628,0.05655,-0.92198,-0.28125,-0.26011,-0.90786,-13.95922,27.49417
-0.20515,1.49097,-0.39943,-0.42987,0.60367,0.17863,1.17444,0.90614,0.90311,-0.03509,1.00658,-0.89641,0.06001,-0.92125,-0.28777,-0.25472,-9.56938,-10.62176,6.39414
-0.21048,1.50033,-0.39788,-0.41919,0.61918,0.16365,1.01269,0.94584,0.72421,1.02292,0.72485,-1.19745,0.05799,-0.92221,-0.29119,-0.24775,-12.30938,0.01366,-10.14715
-0.21509,1.50955,-0.39631,-0.39882,0.62966,0.15316,0.92731,1.02508,0.50123,1.41457,0.43485,-0.02761,0.05283,-0.92328,-0.29526,-0.23997,-6.93982,8.10031,-13.21160
-0.21981,1.51855,-0.39409,-0.38525,0.63389,0.15532,0.92381,0.98495,0.36661,1.31568,0.58500,0.68751,0.04896,-0.92288,-0.30116,-0.23493,-4.65846,0.01510,-13.75243
-0.22401,1.52773,-0.39071,-0.36648,0.63980,0.17559,1.06217,0.87759,0.18870,1.16094,0.26408,1.79333,0.04244,-0.92068,-0.31027,-0.23296,6.35085,-5.30945,-12.23468
-0.22781,1.53656,-0.38638,-0.34469,0.63864,0.20748,1.34328,0.82499,-0.03707,1.65651,-0.37534,1.97389,0.03216,-0.91700,-0.32355,-0.23106,16.41482,-3.59794,-14.25651
-0.23140,1.54521,-0.38225,-0.32486,0.63487,0.22803,1.53059,0.84623,-0.23604,2.17151,-0.57002,1.95517,0.02069,-0.91375,-0.33594,-0.22756,17.66645,1.59649,-17.89495
-0.23368,1.55338,-0.37690,-0.28844,0.62401,0.26302,1.83218,0.94205,-0.59240,2.51938,-0.83928,2.69468,0.00134,-0.90917,-0.35124,-0.22369,17.89924,10.86195,-22.62664
-0.23559,1.56142,-0.37106,-0.25359,0.61366,0.29835,2.07551,0.79848,-0.86928,2.71897,-0.64535,2.92236,-0.01582,-0.90248,-0.36642,-0.22585,17.14570,-2.85489,-21.70059
-0.23714,1.56966,-0.36431,-0.22099,0.60875,0.34121,2.37750,0.81345,-1.15172,0.54151,-0.87716,1.71436,-0.03651,-0.89464,-0.38374,-0.22590,12.11461,-15.78949,-23.72106
-0.23924,1.57758,-0.35717,-0.20395,0.59969,0.38063,2.65632,0.81652,-1.26251,1.87869,0.34348,3.51011,-0.05466,-0.88571,-0.40312,-0.22367,26.82130,21.98624,-3.27475
-0.24127,1.58632,-0.35033,-0.19053,0.60553,0.40520,2.79366,0.83419,-1.33947,0.30159,0.17118,1.00507,-0.07210,-0.87702,-0.42017,-0.22158,10.13236,-15.35489,-14.08856
-0.24373,1.59488,-0.34329,-0.18709,0.60779,0.42719,2.97560,1.12454,-1.31589,0.36660,0.73357,1.38045,-0.09090,-0.86860,-0.43934,-0.21035,14.38720,20.30740,4.17324
-0.24576,1.60424,-0.33572,-0.18046,0.62291,0.44718,3.12508,1.47179,-1.22365,0.37640,1.06683,1.12090,-0.10921,-0.86010,-0.45861,-0.19487,13.49291,19.35847,7.77743
-0.24783,1.61371,-0.32851,-0.17520,0.63655,0.45873,3.08366,1.56237,-1.12672,0.64502,1.16047,1.43654,-0.12375,-0.85223,-0.47391,-0.18384,5.13360,15.72803,11.14263
-0.24985,1.62367,-0.32131,-0.16979,0.65491,0.46906,2.81351,1.34166,-1.01812,0.24627,1.38624,0.89719,-0.13214,-0.84608,-0.48371,-0.18088,-15.86793,-12.82762,6.02784
-0.25234,1.63422,-0.31418,-0.17314,0.67825,0.47755,2.34762,0.95552,-0.85624,-0.61158,1.50465,0.54061,-0.13412,-0.84271,-0.48809,-0.18336,-28.46293,-23.40889,7.97387
-0.25541,1.64490,-0.30702,-0.18533,0.69887,0.48500,1.89395,0.60347,-0.66920,-1.04101,1.59392,0.60109,-0.13324,-0.84060,-0.49073,-0.18664,-33.75885,-26.11200,10.40633
-0.25878,1.65598,-0.29929,-0.19876,0.72139,0.50097,1.56895,0.42487,-0.45513,-1.15833,1.94294,1.19687,-0.13180,-0.83892,-0.49399,-0.18659,-28.59947,-19.25342,13.34614
-0.26245,1.66731,-0.29026,-0.21413,0.74228,0.53511,1.56495,0.53842,-0.15903,-1.25320,1.52983,2.94878,-0.13187,-0.83541,-0.50324,-0.17734,-6.56350,2.06354,20.04954
-0.26647,1.67849,-0.27944,-0.23173,0.75562,0.59100,1.83951,0.72768,0.13746,-1.41393,0.58638,4.52540,-0.13321,-0.82822,-0.51929,-0.16323,15.76408,11.34499,22.37522
-0.27088,1.68910,-0.26717,-0.25147,0.75673,0.65979,2.25120,0.84500,0.41612,-1.33655,-0.35635,5.36365,-0.13393,-0.81736,-0.54043,-0.14805,30.17894,9.40363,20.45992
-0.27551,1.69916,-0.25420,-0.26982,0.74898,0.72812,2.53325,0.66670,0.60638,-1.01400,-1.15231,5.22790,-0.13103,-0.80507,-0.56138,-0.13983,26.03981,-6.43317,14.60912
-0.28004,1.70883,-0.24109,-0.28200,0.73642,0.78117,2.62210,0.32973,0.66992,-0.86185,-1.45089,4.35719,-0.12623,-0.79327,-0.57930,-0.13857,11.68796,-26.00020,2.79706
-0.28471,1.71777,-0.22684,-0.29367,0.71473,0.84050,2.70791,-0.07327,0.72828,-0.76268,-1.32937,3.14748,-0.11879,-0.78011,-0.59792,-0.14071,6.97916,-27.40906,-1.87809
-0.28943,1.72655,-0.21322,-0.30343,0.69496,0.87825,2.77683,-0.25459,0.84110,-0.83109,-1.46076,2.14843,-0.11169,-0.76742,-0.61603,-0.13822,5.90338,-17.21532,4.01866
-0.29417,1.73506,-0.19983,-0.31120,0.67519,0.90202,2.85183,-0.27957,0.94869,-0.70089,-1.78326,1.71731,-0.10596,-0.75451,-0.63403,-0.13227,5.73514,-7.08860,8.00889
-0.29904,1.74261,-0.18570,-0.31984,0.64467,0.93018,3.03048,-0.15952,1.13826,-0.66339,-1.96718,1.56914,-0.10058,-0.73981,-0.65424,-0.12054,8.63750,4.50886,11.62657
-0.30413,1.74969,-0.17154,-0.33032,0.61310,0.95169,3.27286,0.08068,1.41118,-0.92378,-2.32602,1.37964,-0.09536,-0.72332,-0.67616,-0.10257,15.74790,12.59946,19.81094
-0.30928,1.75667,-0.15751,-0.33903,0.58783,0.96521,3.39688,0.18852,1.61860,-0.71238,-2.93054,1.61520,-0.08847,-0.70693,-0.69642,-0.08617,15.24284,14.69750,26.89473
-0.31530,1.76132,-0.14277,-0.36004,0.53028,0.98821,3.44949,0.08287,1.90678,-1.09193,-3.18803,1.35234,-0.07493,-0.69031,-0.71604,-0.07168,3.35450,-8.00237,12.74516
-0.32129,1.76581,-0.12815,-0.37629,0.48053,1.00498,3.42374,-0.16019,2.03580,-1.01739,-4.28579,1.28189,-0.06032,-0.67388,-0.73370,-0.06268,0.82252,-15.90756,8.52320
-0.32726,1.76930,-0.11359,-0.38830,0.42664,1.01580,3.37407,-0.48316,2.02526,-0.74862,-5.07202,0.85929,-0.04500,-0.65701,-0.75023,-0.05884,-0.79483,-24.35577,-2.00192
-0.33328,1.77032,-0.09910,-0.39729,0.34398,1.02345,3.29760,-0.96322,1.84455,-0.25549,-5.61752,0.21565,-0.02825,-0.63961,-0.76556,-0.06340,-0.25641,-27.14899,-15.53154
-0.33893,1.77057,-0.08525,-0.39803,0.26629,1.01886,3.24944,-1.38657,1.58148,0.17787,-5.56890,-0.88811,-0.01272,-0.62130,-0.78021,-0.07146,-0.38794,-27.90763,-25.07521
-0.34401,1.76972,-0.07210,-0.38911,0.18863,1.00264,3.28629,-1.56142,1.47524,0.76550,-5.12102,-1.85436,0.00160,-0.60139,-0.79547,-0.07446,3.86032,-15.83316,-15.93015
-0.34830,1.76812,-0.05970,-0.36975,0.11720,0.97579,3.35801,-1.50821,1.54164,1.77345,-4.76774,-2.38879,0.01468,-0.58062,-0.81100,-0.07032,4.95539,0.85985,3.77657
-0.35147,1.76611,-0.04807,-0.33577,0.05578,0.94233,3.35991,-1.36793,1.54281,2.95423,-4.25516,-2.68078,0.02470,-0.56088,-0.82495,-0.06534,1.14417,8.48608,4.62627
-0.35384,1.76412,-0.03690,-0.29728,0.00978,0.90986,3.28528,-1.20097,1.51938,3.61183,-3.73564,-2.83160,0.03290,-0.54283,-0.83706,-0.05981,-4.93829,13.15418,1.68916
-0.35456,1.76159,-0.02649,-0.24108,-0.03362,0.87286,3.13305,-1.04244,1.29738,4.58722,-3.01889,-2.54683,0.03674,-0.52713,-0.84697,-0.05864,-10.22538,12.96701,-9.72097
-0.35398,1.75887,-0.01629,-0.17646,-0.07049,0.84100,2.99096,-0.86823,0.99202,4.76693,-2.54327,-2.05861,0.03690,-0.51215,-0.85600,-0.05999,-11.72706,15.70165,-19.93787
-0.35195,1.75527,-0.00619,-0.10208,-0.11413,0.81464,2.92403,-0.63523,0.76103,4.48164,-2.84448,-1.13575,0.03476,-0.49615,-0.86549,-0.05971,-5.65131,16.48347,-14.24659
-0.35023,1.75137,0.00452,-0.04987,-0.15248,0.80424,2.96559,-0.49732,0.59316,4.30237,-3.56082,-0.35468,0.03368,-0.47737,-0.87602,-0.05986,-0.03594,15.89592,-7.76474
-0.34769,1.74615,0.01555,0.00267,-0.20325,0.80167,3.10075,-0.44958,0.31996,3.44858,-3.85746,0.32271,0.03140,-0.45555,-0.88729,-0.06481,8.57036,9.87213,-16.81654
-0.34511,1.74000,0.02699,0.04395,-0.25733,0.80639,3.26063,-0.46895,0.01312,2.49172,-3.98479,0.59603,0.02906,-0.43179,-0.89852,-0.07332,12.81474,3.33685,-22.05969
-0.34280,1.73219,0.03917,0.07141,-0.32771,0.82246,3.51237,-0.49942,-0.11037,0.75697,-4.65081,1.42320,0.02860,-0.40427,-0.91075,-0.07927,13.64684,1.58944,-11.53300
-0.34150,1.72364,0.05141,0.07630,-0.39392,0.83532,3.84219,-0.57905,-0.02351,-0.07823,-5.97932,0.98950,0.03210,-0.37221,-0.92404,-0.08109,23.39096,-5.88395,3.58043
-0.34084,1.71257,0.06334,0.06967,-0.48499,0.84015,4.32066,-0.73275,0.05497,-0.77213,-7.05999,-0.12120,0.03775,-0.33285,-0.93849,-0.08375,33.02825,-11.27385,6.95955
-0.34106,1.69899,0.07411,0.04971,-0.59791,0.82415,4.90408,-0.95928,-0.06717,-1.59470,-7.33413,-1.84029,0.04334,-0.28677,-0.95253,-0.09263,36.37798,-11.97499,-7.82829
-0.34153,1.68624,0.08407,0.03083,-0.66961,0.79948,5.27843,-1.09989,-0.17381,-2.19024,-7.12964,-3.12601,0.04803,-0.24208,-0.96375,-0.10134,38.02922,-10.74750,-13.08313
-0.34357,1.66996,0.09132,-0.00894,-0.78054,0.73694,5.83698,-1.29102,-0.17516,-2.92794,-6.54042,-4.96419,0.05520,-0.18811,-0.97455,-0.10871,36.18472,-11.43358,-3.95666
-0.34654,1.65315,0.09578,-0.05585,-0.87796,0.64065,6.27638,-1.47504,-0.08126,-3.05840,-5.44742,-7.14498,0.06406,-0.13354,-0.98248,-0.11316,28.35220,-13.59850,3.43624
-0.34918,1.63778,0.10006,-0.08592,-0.92877,0.56538,6.49180,-1.59925,0.07086,-3.24354,-4.40331,-8.10552,0.07327,-0.08218,-0.98729,-0.11458,23.50669,-14.22958,5.30187
-0.35349,1.62102,0.09888,-0.13559,-0.98920,0.42065,6.72267,-1.88744,0.49784,-3.26354,-2.79718,-10.15465,0.08995,-0.02721,-0.98973,-0.10772,14.53134,-25.85256,18.54949
-0.35825,1.60571,0.09539,-0.18204,-1.01337,0.26931,6.80181,-2.24757,0.80360,-3.38149,-0.49218,-11.52801,0.11010,0.02516,-0.98839,-0.10164,6.61010,-32.45019,12.44921
-0.36374,1.59229,0.08915,-0.22941,-1.00016,0.10776,6.71293,-2.69890,1.06090,-3.55829,2.58930,-11.69103,0.13543,0.07386,-0.98348,-0.09471,-2.20298,-35.16901,4.06915
-0.37002,1.58190,0.08073,-0.27923,-0.94256,-0.05178,6.35248,-3.38751,1.46153,-4.08760,6.46359,-10.96576,0.17162,0.11493,-0.97505,-0.08128,-15.41854,-47.30907,-1.49192
-0.37697,1.57496,0.07104,-0.32855,-0.84255,-0.19581,5.73780,-4.32011,1.94398,-3.52960,7.98065,-9.54640,0.22040,0.14719,-0.96233,-0.06062,-39.64804,-76.51215,1.41389
-0.38441,1.57108,0.06063,-0.37500,-0.71660,-0.31955,4.77068,-5.06384,2.02908,-2.63005,10.29067,-9.30110,0.27016,0.16360,-0.94773,-0.04531,-41.16169,-68.22610,-18.95126
-0.39231,1.56977,0.04878,-0.41809,-0.57702,-0.43856,3.70565,-5.65523,1.81024,-2.84251,9.98060,-8.83775,0.32063,0.16831,-0.93145,-0.03571,-67.36317,-45.46273,-52.30014
-0.40087,1.57216,0.03336,-0.46267,-0.40655,-0.59135,2.68715,-6.21636,1.28995,-2.37005,11.16644,-10.57665,0.37388,0.16538,-0.91200,-0.03348,-45.26302,-32.28370,-57.67757
-0.40881,1.57645,0.01548,-0.48713,-0.24114,-0.75180,1.94882,-6.64297,0.66434,-0.82830,12.46715,-12.52595,0.42609,0.16182,-0.88934,-0.03647,-31.78631,-27.39061,-65.47284
-0.41546,1.58410,-0.00600,-0.48439,-0.05850,-0.93476,1.41988,-6.92409,-0.10493,1.64931,13.33787,-13.70872,0.47662,0.15592,-0.86390,-0.04693,-14.98526,-18.04528,-67.26421
-0.42002,1.59499,-0.03057,-0.44753,0.13556,-1.12603,1.09583,-7.00025,-0.97403,3.99139,14.58295,-13.84458,0.52288,0.14848,-0.83681,-0.06553,5.32361,-1.34682,-67.58918
-0.42253,1.60779,-0.05626,-0.38652,0.31322,-1.28889,0.88657,-7.04838,-1.74204,6.40928,15.27509,-13.47883,0.56769,0.13960,-0.80668,-0.08664,8.29220,-1.56498,-64.50722
-0.42033,1.62758,-0.08666,-0.26212,0.56449,-1.49094,0.74657,-6.92152,-2.82028,9.78610,16.38977,-11.98116,0.60817,0.12369,-0.77472,-0.12097,21.78852,7.70345,-63.73154
-0.41434,1.64943,-0.11665,-0.10195,0.79554,-1.64279,0.58523,-6.72243,-3.68459,13.49920,17.26342,-9.91981,0.64431,0.10454,-0.74171,-0.15432,23.54325,14.92840,-61.58762
-0.40447,1.67290,-0.14580,0.08191,0.99675,-1.74429,0.29222,-6.55876,-4.28220,17.38456,17.29041,-7.22720,0.67841,0.08073,-0.70711,-0.18232,9.81597,15.19575,-55.90282
-0.38691,1.70106,-0.17474,0.34461,1.22431,-1.81752,-0.26162,-6.41482,-4.95907,20.01460,16.36462,-3.39099,0.71097,0.04404,-0.67003,-0.20891,-6.19707,23.47616,-54.22516
-0.36245,1.73162,-0.20083,0.65948,1.43991,-1.82883,-0.98861,-6.07748,-5.05941,26.59712,16.84696,2.20434,0.73772,0.00632,-0.63853,-0.21909,-34.98065,20.02723,-40.08445
-0.32786,1.76835,-0.22184,1.07127,1.71010,-1.75503,-1.68018,-4.86310,-5.89494,27.00172,16.63051,7.47694,0.74332,-0.05260,-0.62036,-0.24468,-2.43320,75.05017,-64.77649
-0.29329,1.80415,-0.23912,1.38909,1.90382,-1.63846,-1.82112,-3.61289,-6.67935,27.69687,15.51772,12.67872,0.73805,-0.10774,-0.60466,-0.27941,33.20491,79.54441,-73.80329
-0.24981,1.84405,-0.24880,1.77361,2.11663,-1.42832,-2.02570,-1.62543,-7.80844,29.26751,15.65867,17.02769,0.70651,-0.18274,-0.60347,-0.32137,66.90025,108.31250,-90.87785
-0.19536,1.88711,-0.25009,2.25482,2.33521,-1.12720,-3.09944,0.82948,-9.19775,32.31895,14.03924,19.51211,0.65267,-0.29244,-0.60669,-0.34702,32.78589,135.36660,-107.61090
-0.13937,1.92747,-0.25105,2.65223,2.46106,-0.88979,-4.45992,2.97040,-10.57421,36.17997,8.17685,19.37353,0.58507,-0.41793,-0.59644,-0.35677,-13.88282,173.85490,-148.58840
-0.06322,1.96567,-0.24636,3.28656,2.52048,-0.61603,-4.88834,6.16158,-12.87543,44.03745,-3.90817,15.81118,0.45348,-0.55639,-0.58358,-0.37977,35.96934,152.57390,-197.51180
0.02816,1.99136,-0.24456,4.10193,2.35342,-0.42579,-2.93872,9.04343,-15.54804,59.44301,-21.43057,7.05754,0.27155,-0.64885,-0.56121,-0.43624,100.49650,27.65303,-230.16890
0.12550,2.00352,-0.25084,4.82983,1.98670,-0.41552,-1.69295,10.80016,-18.28698,65.34177,-41.72811,-3.82470,0.07714,-0.72301,-0.49366,-0.47708,17.61650,20.72561,-287.95590
0.24109,1.98143,-0.26849,5.66607,1.12240,-0.60465,-1.68260,12.93647,-20.21290,54.50410,-77.39597,-23.82645,-0.12645,-0.78226,-0.39843,-0.46187,15.65104,69.16753,-225.01070
0.35721,1.90307,-0.30536,6.26528,-0.45959,-1.08925,-1.72261,17.57731,-20.16381,17.29777,-121.64340,-40.11906,-0.34666,-0.81391,-0.31707,-0.34182,191.00540,134.47930,-144.29630
0.44088,1.80229,-0.35020,6.18792,-2.03141,-1.58495,1.36570,20.00791,-19.53246,-31.41898,-137.87970,-39.53323,-0.54927,-0.75390,-0.27362,-0.23468,194.14200,-26.45102,-267.67620
0.47851,1.65876,-0.40403,5.37564,-3.90743,-2.09917,6.46011,20.47974,-20.12906,-85.59975,-129.80410,-30.47465,-0.74695,-0.60012,-0.24639,-0.14565,-19.29634,-112.49730,-325.92210
0.46072,1.50717,-0.45557,3.83711,-5.47960,-2.47822,11.52763,18.14802,-22.05888,-133.76450,-91.10499,-20.73340,-0.89850,-0.36684,-0.22082,-0.09677,-230.82770,-31.99775,-384.61410
0.38698,1.38024,-0.50142,1.74266,-6.27406,-2.66661,13.57572,14.06301,-23.89696,-156.16970,-18.36629,-0.25019,-0.97042,-0.13326,-0.18007,-0.08997,-283.27710,94.86429,-227.31150
0.28493,1.30882,-0.52685,-0.30904,-5.98405,-2.46700,12.77746,9.10580,-23.73017,-123.11180,55.19294,32.45209,-0.97816,0.04034,-0.16385,-0.12141,-324.47040,95.76157,-34.74876
0.19856,1.28958,-0.52558,-1.64102,-4.92991,-1.90435,9.45179,5.64475,-21.88716,-61.11826,85.41046,49.46275,-0.96430,0.13446,-0.14165,-0.17885,-353.98540,85.39711,158.53330
0.15778,1.29189,-0.50611,-1.92097,-3.76740,-1.16958,4.44082,1.86177,-16.62114,21.98564,65.89904,52.85196,-0.93689,0.11451,-0.17838,-0.27804,-355.06950,110.86630,243.38930
0.15284,1.29323,-0.48720,-1.56564,-2.89046,-0.60987,-0.16358,1.41690,-11.24725,35.07609,58.81645,31.99860,-0.91471,0.03132,-0.17108,-0.36477,-315.53440,186.53050,502.20620
0.16680,1.29189,-0.47306,-0.98978,-2.26219,-0.25336,-1.89245,0.58029,-5.55149,44.98376,40.30762,17.05639,-0.89172,-0.06849,-0.20755,-0.39633,-193.73870,64.98475,390.69810
0.18724,1.28631,-0.46397,-0.44353,-1.84147,-0.05664,-2.53938,-0.11320,-1.18830,31.30445,27.31210,11.42891,-0.86506,-0.15921,-0.25131,-0.40395,-30.52605,-12.10698,375.42570
0.20647,1.28442,-0.45620,-0.03690,-1.45285,0.08106,-3.24550,0.02665,1.89406,18.50838,23.56057,6.62386,-0.83382,-0.24705,-0.26977,-0.41344,-59.26606,57.33175,207.34580
0.21770,1.28149,-0.44994,0.14988,-1.16726,0.16711,-3.40938,-0.02318,3.43788,8.22738,19.60742,5.58808,-0.80633,-0.30440,-0.28564,-0.41903,-13.12425,7.74647,118.99070
0.22451,1.27760,-0.44473,0.22055,-0.96757,0.21467,-4.13974,1.11857,4.11531,-1.89609,16.15108,2.84878,-0.78043,-0.36589,-0.26107,-0.43462,-42.20610,50.07327,86.80414
0.22846,1.27935,-0.44222,0.22850,-0.72187,0.20649,-4.84314,2.44498,4.46596,-1.17144,16.32227,-6.90655,-0.75294,-0.42777,-0.21923,-0.44948,-82.88948,72.49709,7.03224
0.22832,1.27923,-0.44277,0.16969,-0.56580,0.15718,-3.97478,2.16721,4.43178,-1.25770,9.12942,-6.45059,-0.74045,-0.45561,-0.21799,-0.44344,-1.45227,90.28198,-107.74940
0.22929,1.27685,-0.44189,0.13962,-0.48248,0.14186,-2.87576,1.36402,4.02947,-4.68060,4.53367,2.36437,-0.73474,-0.46316,-0.23629,-0.43567,140.58580,-65.45754,-13.36036
0.22886,1.27635,-0.43899,0.09466,-0.38333,0.15967,-2.79229,1.30360,3.74047,-2.57283,6.78078,1.82191,-0.71999,-0.48427,-0.23092,-0.44019,1.21496,1.04768,-23.49249
0.22812,1.27702,-0.43505,0.05319,-0.28701,0.18954,-2.66322,0.92028,3.75710,-3.05942,6.60066,2.04264,-0.69967,-0.50606,-0.23700,-0.44519,11.90102,-22.18234,1.12475
0.22651,1.27614,-0.42778,0.00595,-0.19307,0.21789,-2.50109,0.50321,3.80171,-3.33134,5.19193,1.43230,-0.65701,-0.54954,-0.24706,-0.45310,17.99079,-23.19867,8.08018
0.22389,1.27817,-0.42335,-0.03594,-0.12698,0.23456,-2.31698,0.27968,3.81912,-3.16116,4.44908,0.81537,-0.63620,-0.56811,-0.25646,-0.45468,17.10139,-14.64876,3.36332
0.22067,1.28061,-0.41928,-0.07868,-0.06819,0.24270,-2.22253,0.29920,3.78674,-3.89336,4.07482,0.50473,-0.61646,-0.58863,-0.25884,-0.45442,11.27949,-0.01775,0.22092
0.21490,1.28456,-0.41555,-0.14897,0.00130,0.24523,-2.22096,0.56296,3.67140,-4.35423,3.22674,0.19887,-0.59875,-0.61102,-0.25236,-0.45218,-1.41606,11.60081,-5.44633
0.20954,1.28703,-0.41144,-0.20157,0.04001,0.25115,-2.32843,0.78463,3.49952,-3.83046,2.33623,0.69442,-0.58043,-0.63221,-0.24238,-0.45239,-10.49337,13.57263,-12.92951
0.20393,1.28925,-0.40707,-0.24580,0.06585,0.26027,-2.61541,0.89699,3.29304,-3.92738,1.99704,0.97037,-0.55921,-0.65189,-0.22863,-0.45832,-18.97604,4.76751,-17.16133
0.19576,1.29254,-0.40223,-0.32085,0.10505,0.27334,-3.34819,0.93005,2.92949,-3.55872,1.74552,0.16648,-0.53255,-0.66948,-0.20280,-0.47650,-39.80197,-8.51486,-14.47242
0.18885,1.29472,-0.39794,-0.36204,0.12002,0.27678,-3.52542,0.76890,2.70267,-2.49974,1.00031,-0.81635,-0.50939,-0.68244,-0.18961,-0.48872,-21.28169,-17.00632,-12.53994
0.18209,1.29663,-0.39439,-0.39151,0.12643,0.26878,-3.28456,0.59274,2.52714,-1.76018,0.54065,-1.39212,-0.49194,-0.69211,-0.18498,-0.49473,12.65289,-14.67466,-11.29895
0.17540,1.29849,-0.39183,-0.41252,0.13197,0.24820,-2.70113,0.48220,2.42128,-0.89240,0.50670,-1.75196,-0.48035,-0.70045,-0.18840,-0.49310,36.08541,-3.84422,-7.66434
0.16921,1.30048,-0.38984,-0.42171,0.13863,0.22247,-2.14590,0.51617,2.42301,-0.39999,0.60542,-2.15679,-0.46901,-0.71123,-0.19295,-0.48678,38.27740,5.82012,-3.66246
0.16325,1.30261,-0.38825,-0.42456,0.14420,0.19727,-1.69987,0.64272,2.44556,-0.18745,0.26204,-1.97436,-0.45793,-0.72345,-0.19668,-0.47774,38.46365,13.42047,-0.33653
0.15760,1.30446,-0.38727,-0.42158,0.14525,0.16971,-1.46874,0.90956,2.36524,-0.01449,-0.15615,-1.32477,-0.44815,-0.73706,-0.19383,-0.46727,22.48701,20.20718,-6.05031
0.15212,1.30575,-0.38681,-0.41717,0.13797,0.13933,-1.96608,1.27925,2.06219,0.24975,-1.15185,-0.77695,-0.43379,-0.75283,-0.16986,-0.46500,-24.86189,19.47705,-16.12994
0.14672,1.30655,-0.38575,-0.41184,0.12260,0.12552,-2.60847,1.42196,1.74733,0.36732,-0.76550,-1.15073,-0.41576,-0.76585,-0.14069,-0.46992,-59.09324,2.29322,-22.70080
0.14088,1.30741,-0.38405,-0.41420,0.11283,0.12592,-2.72679,1.42435,1.61854,-0.07541,-0.31929,-0.01643,-0.40025,-0.77665,-0.12346,-0.47051,-18.51451,-1.02842,-10.49644
0.13511,1.30851,-0.38153,-0.41492,0.10885,0.13888,-2.52041,1.29863,1.59899,0.26116,-0.14293,0.96692,-0.38683,-0.78524,-0.11633,-0.46929,10.18106,-6.88473,-2.22664
0.12963,1.30962,-0.37835,-0.41051,0.10424,0.15943,-2.12065,1.11479,1.57908,0.38642,-0.42919,1.50381,-0.37680,-0.79153,-0.11604,-0.46695,26.53440,-8.36707,-1.69754
0.12443,1.31034,-0.37478,-0.40288,0.09637,0.18345,-1.68635,0.85878,1.57038,0.52871,-0.69875,1.83404,-0.36800,-0.79566,-0.12055,-0.46580,35.37834,-16.86760,0.08473
0.11937,1.31077,-0.37121,-0.39492,0.08530,0.20133,-1.48327,0.69722,1.49536,0.60026,-1.09207,1.61486,-0.35891,-0.79984,-0.12027,-0.46580,23.99556,-11.48723,-3.08313
0.11477,1.31047,-0.36755,-0.38173,0.06615,0.21817,-1.31178,0.57630,1.33810,0.95339,-1.20014,0.87242,-0.35248,-0.80275,-0.11870,-0.46611,10.43973,-9.52393,-9.36991
0.11053,1.30987,-0.36422,-0.36561,0.04737,0.22939,-1.23971,0.54322,1.16643,0.96595,-0.99519,0.91556,-0.34649,-0.80626,-0.11412,-0.46569,7.86302,-2.29425,-11.01728
0.10618,1.30942,-0.36103,-0.35478,0.03360,0.23407,-1.45851,0.48901,1.02984,0.91208,-1.12641,0.86769,-0.33630,-0.81013,-0.10301,-0.46902,-6.75205,-3.86738,-10.17015
0.10249,1.30904,-0.35792,-0.33562,0.02381,0.23707,-1.69619,0.43782,0.83607,1.48198,-0.07363,-0.27416,-0.32702,-0.81285,-0.08858,-0.47380,-21.76699,-7.53198,-13.36829
0.09892,1.30917,-0.35504,-0.31916,0.02616,0.23880,-1.57247,0.43218,0.79688,1.20699,0.55473,-0.20941,-0.31972,-0.81636,-0.08319,-0.47372,3.77929,-1.88904,-4.91623
0.09547,1.30987,-0.35224,-0.30445,0.03702,0.23801,-1.28292,0.50045,0.81672,1.05084,1.16744,-0.14863,-0.31431,-0.82091,-0.08265,-0.46957,19.76491,4.81022,-0.43744
0.09189,1.31110,-0.34935,-0.29434,0.05076,0.23575,-1.15319,0.55304,0.84796,0.73549,1.13956,0.31341,-0.30709,-0.82581,-0.08017,-0.46616,18.42577,7.86675,2.38718
0.08864,1.31255,-0.34683,-0.28150,0.06767,0.23208,-1.23921,0.52416,0.84435,0.84491,1.15504,-0.16380,-0.29745,-0.82978,-0.07320,-0.46651,-5.48717,-1.55248,0.30232
0.08566,1.31423,-0.34428,-0.26665,0.08319,0.22673,-1.13249,0.57495,0.85780,1.31388,0.91981,-1.19837,-0.29003,-0.83440,-0.06989,-0.46344,-2.91268,-1.84613,0.22304
0.08335,1.31582,-0.34314,-0.24762,0.10122,0.21437,-0.95910,0.76464,0.79928,1.12888,1.52635,-0.10578,-0.28631,-0.84024,-0.06678,-0.45559,15.32276,13.97907,-7.01624
0.08079,1.31783,-0.34177,-0.23623,0.12055,0.20518,-1.06050,0.78288,0.79194,0.88264,2.19404,-0.54362,-0.27773,-0.84502,-0.05930,-0.45309,-6.07107,5.01786,-2.82723
0.07793,1.32112,-0.34028,-0.23186,0.15386,0.19603,-0.91503,0.82424,0.87912,-0.19918,2.41456,-1.21514,-0.26989,-0.85047,-0.05845,-0.44771,0.99086,0.49644,4.96725
