posX, posY, posZ, velX, velY, velZ, angVelX, angVelY, angVelZ, accX, accY, accZ, rotX, rotY, rotZ, rotW, angAccX, angAccY, angAccZ
-0.05176,1.40633,-0.42970,-0.58525,0.25077,-0.21842,-0.26890,0.69001,1.48240,1.14323,0.37992,-0.17799,0.07195,-0.85096,-0.25291,-0.45467,3.40516,11.55675,0.70606
-0.05900,1.41023,-0.43272,-0.56824,0.25622,-0.22068,-0.22777,0.79194,1.47853,1.31737,0.31397,-0.13113,0.07894,-0.85393,-0.25744,-0.44530,1.69907,8.15514,-0.58327
-0.06568,1.41414,-0.43572,-0.54477,0.25994,-0.22286,-0.24389,0.80220,1.42151,1.59073,0.11284,0.09410,0.08574,-0.85637,-0.26007,-0.43777,0.50949,3.70529,-2.09866
-0.07184,1.41797,-0.43892,-0.51847,0.26268,-0.22630,-0.38803,0.54079,1.31913,1.98272,0.14111,0.07074,0.09475,-0.85637,-0.25828,-0.43697,-6.83918,-13.77694,-5.97960
-0.07752,1.42195,-0.44235,-0.49055,0.26763,-0.23221,-0.43385,0.36735,1.19026,2.09695,0.15201,-1.32366,0.10161,-0.85620,-0.25715,-0.43643,-6.50878,-22.69687,-8.92572
-0.08939,1.42960,-0.44961,-0.46482,0.26999,-0.24425,-0.32516,0.62758,1.05714,2.08106,0.11532,-1.24379,0.10908,-0.86171,-0.26155,-0.42090,4.73715,12.69271,-9.22943
-0.09348,1.43382,-0.45393,-0.42930,0.27496,-0.25961,-0.12985,1.04569,0.82422,1.89911,-0.48371,-0.62053,0.10169,-0.86863,-0.26655,-0.40508,7.92531,25.34134,-13.82418
-0.09754,1.43778,-0.45808,-0.39835,0.27359,-0.27280,0.14924,1.46542,0.58776,2.11773,-0.02137,-1.50011,0.09085,-0.87512,-0.27440,-0.38809,13.33042,21.33665,-16.27270
-0.10126,1.44191,-0.46250,-0.36828,0.27570,-0.28654,0.49048,2.21368,0.33951,1.83862,0.23708,-0.54970,0.07332,-0.88514,-0.28570,-0.35989,18.80128,48.54298,-17.10312
-0.10492,1.44572,-0.46666,-0.34446,0.27361,-0.29067,0.69374,2.50384,0.13394,1.29829,-0.54953,0.83813,0.05889,-0.89145,-0.29424,-0.33951,13.97008,34.23062,-15.76388
-0.10867,1.44953,-0.46977,-0.32713,0.27252,-0.27737,0.85734,2.40486,-0.00678,1.13809,0.71442,2.02164,0.04786,-0.89363,-0.30234,-0.32823,7.08581,-2.99901,-13.47520
-0.11281,1.45368,-0.47117,-0.32063,0.27696,-0.23950,1.23392,2.25928,-0.05750,-0.08413,0.27022,3.21041,0.03613,-0.89221,-0.31778,-0.31886,21.45853,-9.56126,-10.23499
-0.11766,1.45832,-0.47103,-0.32665,0.28817,-0.18588,1.68852,2.06383,0.02009,-0.54919,1.13517,3.39225,0.02655,-0.88769,-0.33889,-0.31057,32.89946,-7.57948,-1.83110
-0.12275,1.46340,-0.47181,-0.33532,0.30427,-0.15869,1.76579,1.58162,0.11680,-0.69091,1.35126,1.26274,0.02432,-0.88250,-0.35240,-0.31051,12.20521,-31.66161,2.04149
-0.12808,1.46902,-0.47369,-0.34613,0.32625,-0.15455,1.69643,1.29992,0.20802,-0.91775,1.79181,-0.87887,0.02333,-0.87935,-0.36256,-0.30781,-3.65881,-30.47159,4.10077
-0.13384,1.47518,-0.47652,-0.36156,0.35236,-0.16596,1.57418,1.28435,0.31064,-1.15280,1.93461,-1.02597,0.02186,-0.87878,-0.37139,-0.29888,-5.39123,-2.04925,6.74424
-0.13960,1.48157,-0.47978,-0.37312,0.37579,-0.18129,1.34880,1.09260,0.36052,-0.83453,1.99816,-0.86140,0.02283,-0.87806,-0.37613,-0.29497,-14.53289,-7.86527,7.03526
-0.14570,1.48917,-0.48359,-0.38816,0.41325,-0.20286,0.95700,0.62749,0.41971,-1.18195,2.62503,-1.35651,0.02998,-0.87686,-0.37483,-0.29952,-23.00295,-29.34449,2.46884
-0.15225,1.49754,-0.48755,-0.40738,0.45453,-0.22324,0.69565,0.38784,0.49477,-1.72447,3.58186,-2.37521,0.03621,-0.87617,-0.37505,-0.30058,-21.93727,-29.16462,3.68922
-0.16025,1.50763,-0.49163,-0.44681,0.51524,-0.24106,0.64948,0.80115,0.74797,-3.30912,4.08282,-0.73016,0.03947,-0.87886,-0.38176,-0.28339,-4.77467,22.49769,14.22597
-0.16971,1.51794,-0.49472,-0.50178,0.56653,-0.23757,0.66050,0.99109,1.06755,-4.49193,3.53663,1.55630,0.04677,-0.87945,-0.39069,-0.26787,1.22662,22.01470,23.87595
-0.18087,1.52863,-0.49656,-0.57250,0.61213,-0.21461,0.69594,0.93131,1.47677,-5.39505,3.30383,2.07421,0.06040,-0.87735,-0.40132,-0.25604,3.70095,-3.49993,25.73463
-0.19377,1.53984,-0.49725,-0.65643,0.65656,-0.17719,0.81225,0.73426,1.98290,-4.94288,2.15286,2.36999,0.07994,-0.87211,-0.41546,-0.24582,12.70512,-11.87714,34.23322
-0.20596,1.55057,-0.49828,-0.70817,0.68362,-0.15253,0.83468,0.63702,2.23485,-3.73632,2.00206,1.74466,0.09595,-0.86796,-0.42652,-0.23565,6.27486,-12.76309,23.96021
-0.21835,1.56191,-0.49904,-0.75045,0.71422,-0.12940,0.78916,0.54541,2.35802,-2.75692,1.95594,1.26088,0.11091,-0.86430,-0.43519,-0.22649,-0.93245,-7.57064,11.02407
-0.23093,1.57354,-0.49979,-0.78650,0.74261,-0.11124,0.67015,0.64430,2.43886,-1.82541,1.38542,1.19006,0.12403,-0.86263,-0.44179,-0.21285,-6.49382,5.04321,7.24982
-0.24314,1.58463,-0.50016,-0.81284,0.75787,-0.09012,0.58279,0.72864,2.52196,-2.39648,0.88184,1.92398,0.13735,-0.86060,-0.44833,-0.19875,-9.07495,2.95311,3.66089
-0.25613,1.59530,-0.49964,-0.84491,0.76141,-0.05959,0.56756,0.78719,2.69200,-3.03191,0.19930,3.47949,0.15302,-0.85701,-0.45666,-0.18328,-3.81693,7.46867,12.39428
-0.27079,1.60539,-0.49681,-0.89674,0.75405,0.00427,0.67215,0.60095,2.96137,-3.30294,-0.92506,5.04765,0.17427,-0.84927,-0.46774,-0.17202,7.57963,-6.93763,16.14251
-0.28559,1.61467,-0.49351,-0.93696,0.73649,0.06902,0.84950,0.29645,3.15214,-2.44701,-1.58225,4.36094,0.19662,-0.83871,-0.48010,-0.16555,16.52912,-24.72252,13.23893
-0.29976,1.62358,-0.48976,-0.95630,0.71650,0.12351,1.01631,0.32291,3.24517,-1.06897,-1.93454,4.29542,0.21403,-0.82885,-0.49369,-0.15321,15.67272,-2.73633,10.52432
-0.31327,1.63179,-0.48478,-0.95952,0.68887,0.18225,1.17216,0.32948,3.23515,0.66722,-2.42318,4.28520,0.22926,-0.81844,-0.50731,-0.14227,11.02976,6.37778,2.55548
-0.32536,1.63939,-0.47921,-0.93837,0.65688,0.23517,1.28860,0.25594,3.06502,2.25711,-2.39655,3.66149,0.24151,-0.80835,-0.51944,-0.13577,9.88573,-3.48281,-9.82838
-0.33630,1.64660,-0.47286,-0.90352,0.62564,0.28908,1.39391,0.33345,2.82709,2.58763,-2.39672,3.94604,0.24899,-0.79920,-0.53196,-0.12768,5.77404,4.28677,-17.22248
-0.34647,1.65321,-0.46531,-0.86385,0.59112,0.34835,1.54040,0.51742,2.59135,3.18735,-2.45192,4.30522,0.25291,-0.78966,-0.54647,-0.11764,6.92407,13.96062,-15.32135
-0.35510,1.65943,-0.45608,-0.80745,0.55729,0.42161,1.69945,0.82769,2.26626,3.68461,-1.91307,4.87802,0.25060,-0.78080,-0.56243,-0.10592,5.59322,23.55057,-17.33999
-0.36356,1.66568,-0.44609,-0.76075,0.53108,0.49149,1.85620,1.10387,1.99883,3.03139,-1.91138,5.24379,0.24710,-0.77118,-0.57911,-0.09411,6.96892,21.86019,-19.76157
-0.37186,1.67136,-0.43489,-0.72228,0.50157,0.56516,2.05410,1.31937,1.81223,2.45544,-2.06532,5.52538,0.24345,-0.75961,-0.59744,-0.08241,9.74613,21.30739,-13.10199
-0.38039,1.67678,-0.42328,-0.69717,0.47507,0.62679,2.22565,1.40352,1.69748,1.79177,-2.28786,5.04317,0.24149,-0.74668,-0.61556,-0.07243,13.09548,12.36933,-11.16558
-0.38881,1.68131,-0.41065,-0.67670,0.44047,0.68974,2.36217,1.36782,1.61538,1.23081,-2.64844,4.37006,0.24123,-0.73284,-0.63289,-0.06476,10.12454,3.15842,-6.68035
-0.39731,1.68457,-0.39732,-0.66227,0.39177,0.75049,2.42489,1.32675,1.62195,0.58082,-3.31609,3.24182,0.24294,-0.71880,-0.64898,-0.05605,5.66849,-3.85944,-2.64593
-0.40583,1.68707,-0.38429,-0.65140,0.34103,0.79235,2.43752,1.26754,1.69028,1.08302,-3.92958,2.75384,0.24657,-0.70454,-0.66384,-0.04626,1.22080,-1.53838,6.13617
-0.41403,1.68914,-0.37166,-0.63762,0.29603,0.81747,2.45801,1.10392,1.69254,1.36783,-3.69318,1.74623,0.25119,-0.68990,-0.67774,-0.04016,3.53472,-10.62164,-0.70496
-0.42149,1.69024,-0.35917,-0.61484,0.24539,0.83364,2.41353,0.86975,1.63595,1.47368,-2.83721,0.23439,0.25675,-0.67645,-0.68928,-0.03721,0.05598,-16.13389,-6.64877
-0.42865,1.69167,-0.34716,-0.59092,0.21068,0.83584,2.29173,0.78992,1.61455,1.92000,-2.31316,-0.25893,0.26103,-0.66443,-0.69961,-0.03073,-7.29596,-7.04472,-1.32534
-0.43507,1.69291,-0.33581,-0.56148,0.18187,0.82908,2.17253,0.67034,1.50992,2.42608,-2.02628,-0.69081,0.26456,-0.65361,-0.70857,-0.02698,-9.16692,-7.00764,-6.22933
-0.44090,1.69400,-0.32494,-0.52850,0.15736,0.81647,2.05767,0.51631,1.30561,2.34579,-1.76297,-1.04459,0.26683,-0.64411,-0.71638,-0.02692,-7.42717,-10.56639,-15.24154
-0.44640,1.69483,-0.31423,-0.49975,0.13511,0.80657,1.96583,0.48793,1.17140,2.38140,-1.88650,-0.88882,0.26768,-0.63468,-0.72451,-0.02464,-8.25979,-4.86685,-13.07312
-0.45095,1.69484,-0.30365,-0.46037,0.10394,0.79494,1.88803,0.53132,1.03558,2.42995,-1.98211,-0.75781,0.26651,-0.62551,-0.73297,-0.02164,-5.58042,2.60515,-8.86003
-0.45520,1.69447,-0.29299,-0.42562,0.07297,0.78588,1.85975,0.58091,0.95590,2.46560,-2.33336,-0.51182,0.26542,-0.61531,-0.74204,-0.01797,-4.52942,5.44904,-5.12185
-0.45899,1.69366,-0.28255,-0.39131,0.04203,0.77536,1.86151,0.59349,0.86473,2.55117,-1.95406,-0.99727,0.26421,-0.60467,-0.75121,-0.01568,0.24228,1.40081,-6.55659
-0.46213,1.69297,-0.27262,-0.35321,0.02072,0.75970,1.79394,0.63631,0.74320,2.91731,-1.26612,-1.36191,0.26140,-0.59585,-0.75925,-0.01333,-3.65333,3.11454,-6.69339
-0.46430,1.69242,-0.26334,-0.30689,0.00682,0.73673,1.68193,0.69865,0.56133,2.96057,-0.62813,-1.63953,0.25639,-0.58897,-0.76631,-0.01193,-6.95166,4.59156,-10.46387
-0.46619,1.69214,-0.25447,-0.26617,0.00047,0.71169,1.55991,0.74274,0.38741,2.83038,-0.31819,-1.92269,0.25086,-0.58308,-0.77264,-0.01105,-9.75762,5.36683,-11.27098
-0.46805,1.69208,-0.24599,-0.23513,-0.00054,0.68685,1.45475,0.72134,0.20048,2.39862,0.09601,-2.14119,0.24552,-0.57785,-0.77824,-0.01237,-8.79307,0.10965,-14.30475
-0.46937,1.69218,-0.23808,-0.20406,0.00123,0.65770,1.28034,0.73449,0.06564,2.04584,0.16282,-2.13147,0.23968,-0.57477,-0.78233,-0.01239,-12.43868,1.11431,-10.71730
-0.47047,1.69214,-0.23045,-0.17634,0.00030,0.63062,1.11999,0.76754,-0.03948,1.82288,-0.28484,-1.80608,0.23329,-0.57229,-0.78608,-0.01185,-12.50411,2.29467,-7.90146
-0.47117,1.69150,-0.22312,-0.14784,-0.01075,0.60506,1.00831,0.82698,-0.09601,1.69508,-0.91536,-1.47012,0.22658,-0.56931,-0.79022,-0.01025,-8.12451,3.69022,-2.85907
-0.47198,1.69072,-0.21565,-0.12790,-0.02143,0.58818,0.93661,0.88196,-0.11046,1.55290,-0.81350,-1.40715,0.22010,-0.56572,-0.79464,-0.00798,-5.42630,3.66600,-2.45776
-0.47232,1.68966,-0.20839,-0.10550,-0.03410,0.57168,0.84987,1.00494,-0.06852,1.51781,-0.90230,-1.07349,0.21260,-0.56251,-0.79899,-0.00284,-6.31139,8.04812,3.05127
-0.47230,1.68837,-0.20130,-0.08131,-0.04774,0.55638,0.79153,1.15514,-0.02452,1.57072,-0.76236,-0.82946,0.20398,-0.55895,-0.80372,0.00352,-4.66593,9.80444,4.81676
-0.47234,1.68738,-0.19414,-0.06405,-0.05327,0.54547,0.76487,1.21195,-0.06928,1.40760,-0.32678,-0.88833,0.19533,-0.55540,-0.80829,0.00689,-1.95758,6.93226,-1.01896
-0.47228,1.68652,-0.18719,-0.04984,-0.05516,0.53424,0.72747,1.25089,-0.09892,0.99672,-0.04872,-1.00712,0.18678,-0.55220,-0.81245,0.01033,-2.55513,3.54738,-4.25978
-0.47199,1.68573,-0.18085,-0.03410,-0.05545,0.51558,0.65960,1.30402,-0.10103,0.65214,0.14405,-1.04579,0.17801,-0.54973,-0.81602,0.01492,-3.88252,3.14144,-0.35849
-0.47208,1.68510,-0.17444,-0.02778,-0.05302,0.50258,0.60277,1.30734,-0.09514,0.38869,0.26332,-1.11709,0.17028,-0.54728,-0.81922,0.01906,-4.47244,1.22112,1.09958
-0.47222,1.68459,-0.16856,-0.02373,-0.04913,0.48360,0.53240,1.27790,-0.02919,0.01733,0.14834,-0.86965,0.16427,-0.54511,-0.82175,0.02426,-4.24233,-1.40846,3.81118
-0.47258,1.68392,-0.16242,-0.02416,-0.04898,0.47332,0.51283,1.23047,0.02022,-0.04315,-0.10668,-0.70092,0.15881,-0.54210,-0.82466,0.02886,-1.95924,-2.61998,4.95709
-0.47309,1.68317,-0.15639,-0.02716,-0.05015,0.46395,0.52652,1.10269,0.00097,-0.30432,-0.20156,-0.46621,0.15466,-0.53878,-0.82757,0.03048,0.10309,-7.97722,-0.97353
-0.47372,1.68224,-0.15026,-0.03149,-0.05405,0.45840,0.56904,0.96487,-0.02851,-0.30786,-0.43333,-0.41168,0.15132,-0.53475,-0.83078,0.03089,2.58583,-10.66239,-1.94756
-0.47445,1.68114,-0.14437,-0.03639,-0.05994,0.45001,0.63526,0.74619,-0.12903,-0.17244,-0.33657,-0.62523,0.14955,-0.53035,-0.83404,0.02743,3.68078,-13.38023,-6.30854
-0.47501,1.68019,-0.13875,-0.03711,-0.06173,0.43900,0.66662,0.56578,-0.25348,0.11533,0.09955,-1.06445,0.14730,-0.52661,-0.83694,0.02271,2.82873,-13.89396,-9.85930
-0.47521,1.67960,-0.13357,-0.03163,-0.05698,0.42304,0.62222,0.46121,-0.33000,0.60645,0.62991,-1.49254,0.14453,-0.52439,-0.83890,0.01927,-1.88885,-8.94875,-6.64869
-0.47486,1.67959,-0.12884,-0.01805,-0.04358,0.40321,0.50259,0.45009,-0.41672,1.29544,1.24369,-1.66435,0.13962,-0.52434,-0.83982,0.01665,-7.83520,-2.28307,-4.67139
-0.47412,1.68006,-0.12437,-0.00137,-0.02542,0.38421,0.35485,0.51678,-0.45065,1.37389,1.80177,-1.76351,0.13323,-0.52553,-0.84012,0.01622,-10.65476,3.72841,-5.62877
-0.47271,1.68133,-0.12064,0.02253,0.00163,0.35703,0.14146,0.64403,-0.45384,1.56850,1.61544,-1.81807,0.12523,-0.52908,-0.83909,0.01804,-13.41820,8.46186,0.63187
-0.47109,1.68264,-0.11725,0.04457,0.02349,0.33000,-0.03073,0.71846,-0.52502,1.75773,1.40889,-1.97608,0.11674,-0.53301,-0.83783,0.01785,-12.21913,7.26548,-2.10101
-0.46910,1.68422,-0.11433,0.06787,0.04469,0.30171,-0.19621,0.74933,-0.69285,1.74017,1.47527,-2.06533,0.10711,-0.53819,-0.83586,0.01450,-12.53485,2.51328,-11.03202
-0.46662,1.68601,-0.11186,0.09401,0.06442,0.27249,-0.35990,0.82249,-0.86553,1.98081,1.39706,-2.22187,0.09553,-0.54431,-0.83335,0.01091,-11.99245,3.90533,-11.75146
-0.46357,1.68798,-0.10976,0.12334,0.08246,0.24390,-0.51208,1.00441,-0.94900,2.05159,1.28063,-2.10360,0.08155,-0.55074,-0.83062,0.01052,-11.40010,11.07600,-8.78800
-0.46026,1.68984,-0.10782,0.14983,0.09433,0.21966,-0.61209,1.24188,-0.96347,2.21755,0.94449,-2.10426,0.06581,-0.55644,-0.82818,0.01298,-8.12122,18.08068,-1.68287
-0.45591,1.69202,-0.10690,0.18802,0.10877,0.18364,-0.74024,1.65467,-0.90587,1.82431,0.61755,-1.93965,0.04548,-0.56279,-0.82508,0.02085,-5.46256,23.25347,1.85586
-0.45202,1.69375,-0.10583,0.20994,0.11231,0.15780,-0.78257,1.93073,-0.83164,1.44532,-0.02666,-1.61767,0.02685,-0.56752,-0.82242,0.02863,-2.01082,22.24001,6.41266
-0.44832,1.69526,-0.10475,0.22332,0.11144,0.13870,-0.76888,2.11196,-0.81038,0.90408,-0.12490,-1.43147,0.00829,-0.57107,-0.82011,0.03505,0.63641,16.38963,0.88769
-0.44461,1.69659,-0.10407,0.23327,0.10768,0.11729,-0.71637,2.32298,-0.70708,0.38138,-0.23077,-1.08296,-0.01060,-0.57319,-0.81813,0.04470,4.16188,14.03665,5.06275
-0.44129,1.69791,-0.10324,0.23447,0.10449,0.10354,-0.64639,2.41740,-0.65935,-0.07248,-0.29403,-0.75320,-0.02833,-0.57454,-0.81630,0.05254,5.99373,9.78644,4.29167
-0.43835,1.69935,-0.10227,0.22896,0.10433,0.09556,-0.62481,2.37776,-0.69638,-0.73616,0.02185,-0.54473,-0.04459,-0.57667,-0.81378,0.05677,4.51129,1.45180,-0.90295
-0.43676,1.70103,-0.10132,0.20145,0.10810,0.08951,-0.62711,2.10537,-0.77262,-2.09074,0.26071,0.21556,-0.05587,-0.57964,-0.81104,0.05581,-1.76389,-13.88871,-3.82961
-0.43595,1.70272,-0.09978,0.16669,0.11130,0.09481,-0.63295,1.76604,-0.80317,-2.68207,0.20601,0.75743,-0.06367,-0.58283,-0.80833,0.05343,-1.07581,-22.50024,-1.40829
-0.43588,1.70446,-0.09770,0.12766,0.11456,0.10818,-0.64106,1.37638,-0.82322,-2.85337,0.31422,1.23678,-0.06828,-0.58630,-0.80573,0.04884,-2.54193,-28.19306,-1.29720
-0.43703,1.70621,-0.09527,0.08955,0.11769,0.12772,-0.64392,1.04325,-0.77304,-2.52168,0.23854,1.52662,-0.07091,-0.58978,-0.80318,0.04514,-0.98594,-25.10832,3.55652
-0.43799,1.70790,-0.09250,0.06243,0.11859,0.14715,-0.62515,0.83499,-0.69199,-1.94253,0.05525,1.71991,-0.07373,-0.59272,-0.80087,0.04317,0.14739,-19.85345,6.48080
-0.43901,1.70938,-0.08870,0.03911,0.11554,0.17958,-0.54539,0.68671,-0.57378,-1.09158,-0.34521,2.21725,-0.07573,-0.59423,-0.79958,0.04276,3.80204,-10.88668,7.14910
-0.43922,1.71051,-0.08488,0.02980,0.10870,0.20620,-0.42600,0.62969,-0.49115,-0.45850,-0.70289,2.36788,-0.07914,-0.59418,-0.79926,0.04330,9.43610,-5.70319,8.01383
-0.43918,1.71124,-0.08053,0.02767,0.09697,0.23544,-0.28045,0.57615,-0.49665,0.36330,-1.05534,2.00458,-0.08336,-0.59263,-0.80004,0.04221,11.61584,-4.09922,2.66237
-0.43847,1.71161,-0.07555,0.03550,0.08089,0.26690,-0.09852,0.56739,-0.54464,0.55902,-0.64852,1.57163,-0.08908,-0.58939,-0.80190,0.04061,10.29268,-1.78497,-3.87603
-0.43749,1.71215,-0.07081,0.04393,0.07065,0.28476,0.04533,0.63803,-0.48243,0.61900,-0.88755,1.35190,-0.09490,-0.58618,-0.80347,0.04269,10.86796,2.93141,1.60627
-0.43623,1.71212,-0.06577,0.05519,0.05307,0.30322,0.27210,0.75565,-0.37236,0.87229,-1.48091,1.26559,-0.10099,-0.58019,-0.80679,0.04773,16.20172,7.92079,8.04965
-0.43479,1.71155,-0.06052,0.06679,0.03024,0.32112,0.52971,0.85256,-0.25541,0.65925,-1.43837,1.09422,-0.10662,-0.57226,-0.81133,0.05384,17.35547,6.84375,6.78412
-0.43361,1.71098,-0.05537,0.07119,0.01296,0.33296,0.68274,0.81464,-0.21103,0.28245,-1.62909,1.12082,-0.11045,-0.56534,-0.81544,0.05701,13.80355,0.21993,4.74834
-0.43262,1.70984,-0.04993,0.07096,-0.00981,0.34684,0.84156,0.67866,-0.20433,0.03749,-1.74043,1.00894,-0.11211,-0.55740,-0.82060,0.05794,12.46037,-7.60746,1.59274
-0.43176,1.70842,-0.04434,0.06871,-0.03199,0.35997,0.96012,0.43986,-0.29659,-0.29034,-1.17336,0.72636,-0.11221,-0.54946,-0.82617,0.05429,6.95727,-15.42342,-8.08103
-0.43101,1.70716,-0.03883,0.06517,-0.04613,0.36865,1.05525,0.28409,-0.31023,-0.44019,-1.10992,0.73761,-0.11194,-0.54146,-0.83159,0.05243,7.42844,-13.26341,-3.29628
-0.43051,1.70567,-0.03309,0.05817,-0.06038,0.37890,1.16320,0.12985,-0.29976,-0.84512,-1.17148,1.01861,-0.11027,-0.53262,-0.83762,0.05051,7.28326,-13.28306,-1.57108
-0.43065,1.70351,-0.02687,0.04204,-0.08258,0.39472,1.35789,-0.04417,-0.16864,-1.30360,-1.32451,0.95025,-0.10500,-0.52138,-0.84531,0.05098,11.47177,-12.36182,5.68085
-0.43113,1.70117,-0.02068,0.02383,-0.10305,0.40656,1.52769,-0.19547,-0.00950,-1.35309,-1.63723,0.74979,-0.09835,-0.50972,-0.85307,0.05281,13.06871,-11.26101,11.32317
-0.43182,1.69862,-0.01458,0.00668,-0.12160,0.41391,1.62514,-0.37544,0.05654,-1.36109,-1.71115,0.53270,-0.09093,-0.49862,-0.86046,0.05219,9.78239,-14.22168,7.15952
-0.43327,1.69566,-0.00840,-0.01916,-0.14274,0.42082,1.63691,-0.71779,-0.02834,-1.66215,-1.19505,0.47281,-0.08057,-0.48885,-0.86748,0.04488,2.24458,-20.13750,-5.28430
-0.43514,1.69291,-0.00217,-0.04670,-0.15561,0.42728,1.63662,-1.01309,-0.08877,-2.33539,-0.63124,0.48648,-0.06938,-0.47932,-0.87410,0.03710,-0.80427,-21.26112,-8.85796
-0.43774,1.68991,0.00446,-0.07996,-0.16991,0.43897,1.75862,-1.18548,0.08334,-2.79275,-1.10589,1.08088,-0.05603,-0.46709,-0.88170,0.03586,4.09118,-15.42099,5.49465
-0.44136,1.68586,0.01149,-0.12336,-0.19929,0.45474,2.03475,-1.34167,0.26810,-2.75182,-2.33042,0.90194,-0.04104,-0.45005,-0.89132,0.03627,16.30314,-10.39203,13.92261
-0.44542,1.68117,0.01840,-0.16455,-0.23305,0.46487,2.31142,-1.48389,0.38655,-3.16965,-2.43519,0.57186,-0.02585,-0.43105,-0.90125,0.03576,17.97267,-11.08969,7.15257
-0.45022,1.67610,0.02510,-0.20857,-0.26495,0.46866,2.57299,-1.62001,0.59640,-3.19635,-1.95801,-0.06337,-0.00827,-0.41051,-0.91103,0.03793,19.44162,-10.60494,13.95985
-0.45532,1.67122,0.03139,-0.24643,-0.28532,0.46454,2.71126,-1.76780,0.75449,-3.10672,-1.69708,-0.67549,0.01047,-0.39110,-0.91944,0.03954,13.45973,-12.53066,15.33632
-0.46144,1.66609,0.03708,-0.29197,-0.30492,0.45123,2.79198,-1.99623,0.83344,-3.32776,-1.39627,-1.28966,0.03174,-0.37201,-0.92689,0.03852,7.16109,-16.34037,4.63787
-0.46877,1.66067,0.04190,-0.34815,-0.32504,0.42583,2.82795,-2.31627,0.83603,-3.63074,-1.27764,-1.87662,0.05598,-0.35336,-0.93318,0.03429,4.08163,-19.28158,-0.93835
-0.47625,1.65533,0.04639,-0.39354,-0.33907,0.40102,2.87163,-2.58495,0.83970,-4.00874,-1.04575,-2.28669,0.08089,-0.33400,-0.93862,0.02976,3.30605,-20.74460,-5.76739
-0.48500,1.64972,0.04972,-0.44848,-0.35397,0.36261,2.92677,-2.89744,0.85747,-3.99940,-1.01938,-3.13996,0.10903,-0.31366,-0.94294,0.02440,5.25091,-21.97840,-1.62405
-0.49494,1.64388,0.05135,-0.51185,-0.36956,0.30350,3.00336,-3.26315,0.88598,-3.80864,-0.90280,-4.49948,0.14052,-0.29200,-0.94587,0.01816,6.43535,-22.67691,-0.01540
-0.50465,1.63822,0.05211,-0.55606,-0.37821,0.24396,3.03642,-3.53158,0.85353,-3.56177,-0.67001,-5.55668,0.17102,-0.27074,-0.94728,0.01070,5.34972,-22.27832,-4.51787
-0.51517,1.63252,0.05043,-0.60281,-0.38576,0.15842,3.08736,-3.84764,0.77013,-3.09316,-0.46546,-6.78500,0.20385,-0.24856,-0.94692,0.00045,5.79999,-21.02002,-8.54955
-0.52606,1.62701,0.04575,-0.64514,-0.38775,0.04018,3.17175,-4.22430,0.64945,-2.19938,0.29568,-7.99205,0.23944,-0.22489,-0.94442,-0.01258,8.21307,-21.02540,-10.61673
-0.53625,1.62200,0.04036,-0.66556,-0.38109,-0.06153,3.26500,-4.53023,0.53751,-1.11229,0.80291,-9.04455,0.27502,-0.20011,-0.94002,-0.02627,9.93118,-22.68042,-9.62345
-0.54583,1.61783,0.03139,-0.67038,-0.36177,-0.19811,3.41850,-4.87571,0.41200,0.41760,2.26021,-10.61779,0.31284,-0.17269,-0.93301,-0.04249,15.25491,-21.97639,-13.77801
-0.55310,1.61554,0.01830,-0.63405,-0.31412,-0.37457,3.51023,-5.22968,0.61971,4.24801,4.28785,-11.64548,0.35451,-0.14365,-0.92256,-0.05064,5.25490,-26.11822,8.33180
-0.55713,1.61543,0.00412,-0.54988,-0.23965,-0.52976,3.53274,-5.32779,0.75726,8.21500,6.54003,-10.98195,0.39063,-0.11582,-0.91142,-0.05753,-1.30357,-14.62087,10.05622
-0.55815,1.61769,-0.01013,-0.43646,-0.14384,-0.64618,3.52680,-5.22878,0.68601,11.61092,9.46745,-8.74151,0.42038,-0.08999,-0.90032,-0.06782,-0.78875,1.86885,3.16729
-0.55263,1.62634,-0.02511,-0.23837,0.03875,-0.74659,3.45849,-4.69528,0.52352,14.15444,14.55127,-5.51019,0.43718,-0.06725,-0.89343,-0.07840,8.18806,32.03024,-0.11267
-0.54468,1.63930,-0.03772,-0.04362,0.25397,-0.78384,2.67818,-4.17429,0.36147,13.70409,16.95076,-0.98574,0.45229,-0.06502,-0.88567,-0.08249,-46.26493,42.38920,-21.85039
-0.53555,1.65411,-0.04692,0.12297,0.45955,-0.77819,1.85463,-3.82442,0.37272,13.83919,18.11800,1.68734,0.46947,-0.06782,-0.87669,-0.08012,-62.97282,30.22796,-12.54198
-0.53278,1.66447,-0.05006,0.33728,0.75168,-0.73082,0.67263,-3.36744,0.05385,13.69994,18.32069,3.92837,0.48182,-0.08958,-0.86811,-0.07883,-71.84926,28.58241,-28.78534
-0.52813,1.67810,-0.05190,0.52156,1.00706,-0.66842,-0.17934,-2.90192,-0.50574,13.32869,17.96834,5.09425,0.49001,-0.11352,-0.86004,-0.08567,-55.34323,33.90474,-47.58210
-0.52112,1.69441,-0.05487,0.65359,1.18416,-0.61710,-0.67505,-2.53172,-1.02184,13.81440,17.33892,5.36633,0.49662,-0.13537,-0.85190,-0.09652,-45.09618,34.77617,-55.74266
-0.51399,1.71405,-0.05187,0.90549,1.48473,-0.52250,-1.44622,-1.80301,-2.03128,14.77347,16.11144,5.27832,0.48964,-0.17679,-0.84584,-0.11646,-30.63391,39.65231,-64.05946
-0.50335,1.73578,-0.05000,1.12278,1.69538,-0.45074,-2.05945,-1.18647,-2.75096,16.54031,14.40022,4.92948,0.48120,-0.21724,-0.83873,-0.13337,-31.78580,41.97723,-62.46037
-0.48943,1.75933,-0.04709,1.36525,1.88129,-0.38222,-2.66532,-0.49396,-3.41083,18.60049,12.49730,4.77518,0.46596,-0.26302,-0.83150,-0.14939,-31.96172,47.32594,-56.14932
-0.47102,1.78434,-0.04318,1.64241,2.03875,-0.31738,-3.24990,0.30688,-4.05212,21.53045,10.16653,4.41924,0.44213,-0.31399,-0.82387,-0.16483,-30.01674,52.92191,-56.00948
-0.44719,1.81014,-0.03822,1.95698,2.16016,-0.25842,-3.77036,1.23624,-4.75946,24.27002,7.02203,3.91079,0.40735,-0.36972,-0.81515,-0.18138,-24.78626,60.51594,-60.64491
-0.41694,1.83566,-0.03284,2.31110,2.22758,-0.21144,-4.17586,2.34578,-5.51376,26.92342,2.22300,2.48867,0.35870,-0.42814,-0.80535,-0.19860,-13.99366,66.87334,-71.27654
-0.27553,1.92699,-0.06216,2.82354,2.18992,-0.17644,-4.29835,3.95758,-6.66633,31.49184,-7.08287,1.85128,0.28386,-0.48831,-0.79492,-0.22154,3.54030,74.20952,-73.93478
-0.13651,2.00133,-0.07611,3.27550,2.04961,-0.16354,-4.08347,5.66542,-7.87638,34.06644,-14.67718,-1.94865,0.13717,-0.58271,-0.75678,-0.26252,1.91214,60.38955,-134.38500
-0.03682,2.01839,-0.08927,3.83020,1.69628,-0.24732,-3.61982,8.10957,-7.99740,34.31876,-27.47253,-8.78916,0.00685,-0.61622,-0.74738,-0.24829,88.18968,102.68710,-80.01091
0.05897,2.01181,-0.10846,4.35719,1.16104,-0.44782,-2.87403,10.77118,-8.16220,31.03692,-40.01397,-17.38600,-0.14361,-0.63392,-0.72771,-0.21901,85.20330,121.51160,-84.90148
0.14120,2.00068,-0.13013,4.63835,0.73521,-0.66146,-2.16621,12.27169,-8.47616,25.48876,-46.50534,-25.09579,-0.27897,-0.63636,-0.69130,-0.19832,89.37290,94.52742,-121.62670
0.23085,1.94111,-0.18579,4.94201,-0.33282,-1.32965,-0.36651,14.78345,-9.56259,2.41563,-61.07243,-39.45155,-0.46178,-0.59207,-0.63926,-0.16602,72.60262,75.42351,-134.61000
0.28485,1.88997,-0.23400,4.84208,-1.07623,-1.83456,0.59854,15.44831,-10.83540,-19.59755,-63.36836,-42.85489,-0.60163,-0.54138,-0.56509,-0.16007,-23.33829,50.63548,-145.37840
0.31731,1.81042,-0.30296,4.27981,-2.08195,-2.50428,2.21782,16.06100,-11.46803,-50.44820,-59.94317,-39.09019,-0.72677,-0.45907,-0.49365,-0.13178,22.22900,2.24776,-111.55240
0.32308,1.73279,-0.36773,3.41562,-2.84573,-2.96476,3.38199,15.84857,-12.15263,-71.78712,-49.09621,-25.02913,-0.82392,-0.36676,-0.41713,-0.11245,-0.87040,-19.47127,-99.37485
0.30037,1.65796,-0.42491,2.30227,-3.39895,-3.20602,3.99861,14.91613,-12.94078,-84.83833,-30.35183,-7.70528,-0.89401,-0.26930,-0.34091,-0.10954,-68.87238,-28.94623,-66.50676
0.25574,1.59203,-0.46864,1.09092,-3.68690,-3.18068,4.68906,13.44067,-13.58247,-86.14787,-9.49309,11.81973,-0.94043,-0.16069,-0.27896,-0.10934,-81.66992,-54.74754,-56.49164
0.18984,1.54249,-0.49289,-0.19517,-3.64700,-2.84583,4.49768,11.34486,-14.09524,-71.93052,12.85531,29.44546,-0.96274,-0.05985,-0.22914,-0.13057,-123.43360,-60.33255,-14.52578
0.13912,1.50629,-0.50711,-0.95383,-3.41132,-2.43393,3.90035,9.74702,-14.35954,-53.61257,26.34879,39.47320,-0.97195,0.03339,-0.17489,-0.15369,-135.01750,-33.66319,8.04430
0.08859,1.48738,-0.50289,-1.53060,-2.95750,-1.82912,2.54858,7.79270,-14.08423,-27.94203,37.68691,46.38109,-0.96478,0.10562,-0.13900,-0.19680,-142.88870,-29.38427,66.83064
0.05598,1.48766,-0.48336,-1.69102,-2.29069,-1.10809,0.82218,4.50199,-13.15587,10.54158,44.41840,38.86091,-0.93927,0.16218,-0.15524,-0.25954,-213.12150,-31.56932,77.92442
0.04899,1.49086,-0.47159,-1.41034,-1.72272,-0.66892,-0.36702,2.29864,-11.60960,26.89010,36.83643,26.15145,-0.91535,0.19981,-0.17372,-0.30337,-186.91640,-104.06890,121.44940
0.06573,1.49037,-0.46592,-0.81060,-1.34454,-0.42912,-1.09392,0.75987,-4.80764,42.90794,25.71406,10.93025,-0.92106,0.08430,-0.23666,-0.29756,-62.37466,-46.37607,402.45640
0.09346,1.49419,-0.46126,-0.16127,-0.97343,-0.25466,-2.00249,0.66027,0.33755,38.87288,22.19315,10.09202,-0.91686,-0.03885,-0.26440,-0.29658,-44.76218,54.45330,305.75190
0.11072,1.49328,-0.45865,0.15789,-0.76889,-0.15606,-2.38355,0.01630,2.76567,28.31853,20.75296,9.08002,-0.90035,-0.11364,-0.29644,-0.29762,-48.93510,-0.03159,311.83180
0.13228,1.50097,-0.45189,0.46512,-0.47612,-0.01456,-2.97478,-0.44474,5.12400,11.99892,17.78486,8.41231,-0.87139,-0.20468,-0.32951,-0.30034,-35.10007,-17.78835,159.82610
0.14460,1.50757,-0.44582,0.55980,-0.26270,0.08573,-3.53367,-0.56183,5.93379,2.31771,14.52329,6.03270,-0.84298,-0.26793,-0.34527,-0.31366,-40.23805,-1.72619,82.03416
0.14969,1.51540,-0.44044,0.51474,-0.07492,0.15277,-3.76654,-0.79353,5.72449,-6.91902,10.45309,2.61268,-0.81838,-0.30482,-0.35829,-0.33009,-14.00811,-21.73634,-0.00984
0.14963,1.52092,-0.43724,0.39409,0.03409,0.16955,-3.71559,-0.89275,5.00555,-10.48104,6.39857,0.12977,-0.80071,-0.32540,-0.36538,-0.34565,11.22634,-17.58761,-39.94971
0.14770,1.52477,-0.43581,0.27312,0.08941,0.15323,-3.61965,-0.63347,4.39079,-10.61346,3.47005,-2.31296,-0.78729,-0.34636,-0.36295,-0.35844,7.74623,-4.19454,-54.54667
0.14292,1.52889,-0.43701,0.13408,0.13672,0.09753,-3.28658,-0.34768,3.64691,-6.16387,3.13836,-4.82618,-0.78032,-0.35898,-0.35708,-0.36706,10.48474,18.34581,-55.52151
0.14058,1.53328,-0.43984,0.06454,0.17897,0.02713,-2.79010,-0.29441,3.41331,-3.78135,2.78918,-5.21611,-0.77063,-0.37580,-0.36103,-0.36681,40.17929,1.42681,-24.42776
0.13947,1.53819,-0.44338,0.03164,0.21913,-0.03729,-2.61392,-0.02872,3.45173,-2.15896,3.03031,-5.10831,-0.75812,-0.40207,-0.35932,-0.36672,17.36653,22.01316,-5.83341
0.13807,1.54401,-0.44860,0.00150,0.26477,-0.11421,-2.53571,0.27830,3.61327,-1.95958,2.17058,-4.42931,-0.74367,-0.43285,-0.35551,-0.36498,0.72561,22.47844,7.30297
0.13599,1.54876,-0.45333,-0.03370,0.28380,-0.16697,-2.47161,0.44403,3.58991,-3.17985,0.88759,-3.27238,-0.72944,-0.45903,-0.35195,-0.36517,0.55031,14.00445,0.95820
0.13302,1.55272,-0.45763,-0.07468,0.28496,-0.19981,-2.33912,0.50861,3.39615,-3.54145,-0.07051,-2.59335,-0.71741,-0.47934,-0.34887,-0.36585,3.72905,9.14787,-12.78713
0.12787,1.55549,-0.46209,-0.14315,0.26572,-0.22714,-1.76078,0.31264,3.01704,-3.96516,-1.59853,-0.71059,-0.71139,-0.48721,-0.35499,-0.36128,34.73818,-6.96295,-20.12207
0.12289,1.55766,-0.46536,-0.19426,0.24026,-0.22811,-1.51495,0.18231,2.73367,-3.30673,-2.23941,0.89641,-0.70290,-0.49737,-0.35837,-0.36072,28.11506,-9.05105,-21.89738
0.11816,1.55989,-0.46791,-0.22832,0.22234,-0.21701,-1.60264,0.12046,2.61780,-2.30663,-1.67196,1.43542,-0.69004,-0.51256,-0.35810,-0.36455,1.60773,-7.06501,-13.56495
0.11326,1.56196,-0.46985,-0.25664,0.20594,-0.19882,-1.86664,0.05601,2.62783,-1.91472,-1.21864,1.38675,-0.67279,-0.53140,-0.35616,-0.37165,-16.10871,-8.40425,-0.95251
0.10800,1.56326,-0.47173,-0.28466,0.18093,-0.18376,-2.21577,0.07603,2.59701,-1.62526,-1.84559,0.45504,-0.65460,-0.55138,-0.34987,-0.38088,-24.30938,-3.24106,0.26301
0.10317,1.56429,-0.47400,-0.29883,0.15735,-0.17891,-2.23191,0.06283,2.53270,-1.26891,-2.15964,0.00106,-0.63944,-0.56741,-0.34713,-0.38556,-14.79016,-1.45642,-5.35206
0.09771,1.56370,-0.47624,-0.31998,0.11304,-0.17471,-1.93882,-0.00871,2.42866,-1.46794,-2.98042,0.11618,-0.62812,-0.57835,-0.34991,-0.38542,17.86777,-3.25229,-5.59853
0.09202,1.56200,-0.47858,-0.34067,0.05927,-0.17265,-1.73288,0.00308,2.25802,-1.23571,-3.77552,0.41989,-0.61855,-0.58842,-0.35002,-0.38555,15.22566,0.84298,-9.92205
0.08663,1.56051,-0.48070,-0.35134,0.02198,-0.16775,-1.69317,-0.00200,2.11975,-1.01157,-3.89382,0.79613,-0.60744,-0.59918,-0.34820,-0.38828,7.65325,1.09805,-13.18403
0.08071,1.55706,-0.48231,-0.36801,-0.03813,-0.15582,-1.72951,-0.07159,1.88726,-1.01798,-3.89839,0.74051,-0.59697,-0.60725,-0.34504,-0.39475,0.16495,-5.81299,-13.70240
0.07496,1.55321,-0.48423,-0.37850,-0.09185,-0.15146,-1.87940,-0.09008,1.61055,-0.66144,-3.78651,-0.01372,-0.58688,-0.61510,-0.33779,-0.40389,-10.63217,-5.24056,-17.93209
0.06932,1.54870,-0.48646,-0.38470,-0.14414,-0.15312,-1.80239,-0.12637,1.34887,-0.21679,-3.33403,-0.68639,-0.57976,-0.61985,-0.33358,-0.41035,-1.40719,-4.68505,-19.85470
0.06385,1.54378,-0.48901,-0.38659,-0.19099,-0.16035,-1.47094,-0.16617,1.14379,0.06651,-3.03992,-0.82189,-0.57609,-0.62166,-0.33455,-0.41199,21.80021,-3.27728,-15.54693
0.05869,1.53890,-0.49195,-0.38312,-0.22590,-0.17205,-1.21141,-0.14563,1.00168,0.53924,-2.86810,-1.05060,-0.57283,-0.62423,-0.33494,-0.41232,25.21317,0.48145,-11.93568
0.05418,1.53314,-0.49565,-0.36976,-0.26710,-0.19353,-1.02411,-0.03391,0.86908,1.05436,-2.62957,-1.22296,-0.57087,-0.62767,-0.33311,-0.41131,14.59423,6.47339,-9.07603
0.05021,1.52700,-0.49965,-0.35049,-0.30663,-0.21478,-0.99732,0.12009,0.71850,1.13620,-2.54330,-1.14263,-0.56875,-0.63238,-0.32722,-0.41177,0.93505,9.24850,-9.18499
0.04625,1.52064,-0.50343,-0.33519,-0.34123,-0.22761,-1.01536,0.23112,0.53989,0.99643,-2.44692,-0.66150,-0.56714,-0.63631,-0.32001,-0.41359,-1.35961,8.70999,-12.22157
0.04238,1.51401,-0.50695,-0.32201,-0.37239,-0.23320,-0.95645,0.27216,0.34157,0.96782,-1.89514,-0.33752,-0.56713,-0.63794,-0.31408,-0.41563,0.76965,2.82401,-15.02127
0.03859,1.50745,-0.51016,-0.31069,-0.39503,-0.23214,-0.79740,0.26316,0.19628,0.79950,-1.19125,0.29166,-0.56807,-0.63810,-0.31107,-0.41636,10.37352,0.16628,-12.00965
0.03481,1.50116,-0.51308,-0.30128,-0.40735,-0.22631,-0.67938,0.22741,0.09446,0.79014,-0.60917,0.58872,-0.56852,-0.63810,-0.30867,-0.41754,10.53565,-2.71882,-7.83462
0.03133,1.49522,-0.51581,-0.28946,-0.41141,-0.21909,-0.61938,0.19621,0.03182,0.94698,0.01161,0.51210,-0.56824,-0.63859,-0.30590,-0.41922,3.12503,-2.42505,-5.35255
0.02804,1.48968,-0.51840,-0.27698,-0.40791,-0.21132,-0.56065,0.16307,0.00199,0.95129,0.41385,0.59275,-0.56770,-0.63914,-0.30379,-0.42062,6.07963,-2.08429,-1.76319
0.02503,1.48457,-0.52097,-0.26301,-0.39843,-0.20538,-0.53899,0.17151,-0.01182,0.96917,0.88008,0.37275,-0.56702,-0.64045,-0.30079,-0.42171,2.05578,-0.80082,-1.68911
0.02213,1.47983,-0.52358,-0.25039,-0.38459,-0.20108,-0.57214,0.19594,-0.01305,0.89055,1.03447,0.38461,-0.56568,-0.64259,-0.29667,-0.42317,-0.39357,1.57716,0.12335
0.01943,1.47538,-0.52609,-0.23757,-0.36925,-0.19568,-0.58673,0.20531,-0.00750,0.93355,1.25401,0.32803,-0.56423,-0.64463,-0.29288,-0.42464,-3.64354,0.88336,-0.27429
0.01676,1.47113,-0.52846,-0.22719,-0.35439,-0.18932,-0.56120,0.19668,0.00774,0.91502,1.31052,0.69239,-0.56291,-0.64632,-0.29028,-0.42561,3.34127,0.00152,1.39269
0.01440,1.46759,-0.53054,-0.21452,-0.33154,-0.17986,-0.53754,0.17494,0.03621,0.96075,2.00899,0.54265,-0.56114,-0.64807,-0.28816,-0.42671,-1.00678,-1.39586,0.97649
0.01234,1.46493,-0.53242,-0.20009,-0.29950,-0.16908,-0.43362,0.15062,0.11895,0.85525,1.95663,0.78128,-0.55926,-0.64998,-0.28876,-0.42588,9.07761,-1.78031,5.95956
0.01023,1.46222,-0.53438,-0.18946,-0.27545,-0.16210,-0.47816,0.15591,0.15617,0.80956,1.87918,0.71703,-0.55648,-0.65284,-0.28611,-0.42693,0.30112,0.19493,3.50775
0.00852,1.46015,-0.53615,-0.17476,-0.24632,-0.15340,-0.59721,0.18523,0.17690,0.96280,1.87755,0.48196,-0.55292,-0.65662,-0.28116,-0.42905,-9.07655,1.43995,0.92723
0.00681,1.45822,-0.53778,-0.16326,-0.22120,-0.14379,-0.61868,0.18077,0.21231,0.74042,1.78770,0.76373,-0.54967,-0.65974,-0.27832,-0.43029,-2.12806,0.72173,3.02416
0.00511,1.45651,-0.53915,-0.15423,-0.19816,-0.13229,-0.57489,0.15231,0.23598,0.59983,1.62016,0.79888,-0.54703,-0.66198,-0.27703,-0.43105,1.16182,-1.48203,2.14880
0.00353,1.45524,-0.54013,-0.14540,-0.17286,-0.11639,-0.40401,0.08239,0.26982,0.57572,1.63710,1.00200,-0.54544,-0.66274,-0.27931,-0.43041,9.39813,-3.81592,1.83594
0.00194,1.45395,-0.54111,-0.13877,-0.15403,-0.10412,-0.28159,0.03624,0.31068,0.52756,1.49811,1.13983,-0.54354,-0.66386,-0.28162,-0.42959,12.46174,-4.69109,3.22136
0.00054,1.45309,-0.54185,-0.13090,-0.13265,-0.09082,-0.27929,0.00658,0.35345,0.49170,1.43136,1.11134,-0.54027,-0.66597,-0.28226,-0.43003,3.52555,-2.39040,3.52037
-0.00080,1.45258,-0.54236,-0.12306,-0.10988,-0.07689,-0.39874,0.00588,0.39921,0.49881,1.27540,0.94800,-0.53538,-0.66955,-0.28029,-0.43186,-5.92740,-0.34485,3.33071
-0.00207,1.45207,-0.54287,-0.11577,-0.09223,-0.06624,-0.52510,0.00865,0.42638,0.53037,1.27820,0.62226,-0.53020,-0.67332,-0.27738,-0.43427,-11.39198,0.27078,1.57400
-0.00331,1.45167,-0.54318,-0.10951,-0.07706,-0.05505,-0.49637,-0.03164,0.48124,0.43532,1.08227,0.74300,-0.52556,-0.67606,-0.27802,-0.43524,0.24925,-1.90533,3.59067
-0.00455,1.45143,-0.54343,-0.10524,-0.06286,-0.04559,-0.54261,-0.06360,0.52573,0.17773,0.86027,0.72176,-0.52002,-0.67930,-0.27748,-0.43719,0.46525,-2.50938,3.80315
-0.00573,1.45119,-0.54380,-0.10069,-0.05199,-0.04036,-0.63476,-0.08067,0.53619,0.36697,0.69270,0.08937,-0.51418,-0.68272,-0.27527,-0.44014,-8.68169,-1.71593,0.91560
-0.00680,1.45085,-0.54426,-0.09548,-0.04554,-0.03825,-0.61203,-0.07486,0.53225,0.33318,0.28819,-0.00224,-0.50991,-0.68547,-0.27448,-0.44134,0.30744,0.55509,0.53447
-0.00783,1.45026,-0.54480,-0.09066,-0.04448,-0.03751,-0.52502,-0.06194,0.50601,0.29669,-0.05193,0.01159,-0.50709,-0.68737,-0.27465,-0.44152,5.03897,0.49546,-2.21219
-0.00880,1.44942,-0.54537,-0.08612,-0.04811,-0.03750,-0.48444,-0.04701,0.42617,0.29776,-0.47912,0.07230,-0.50519,-0.68863,-0.27353,-0.44244,4.83806,0.90702,-4.26063
-0.00968,1.44830,-0.54591,-0.08092,-0.05554,-0.03717,-0.41340,-0.03272,0.33564,0.41204,-0.49757,0.02726,-0.50443,-0.68917,-0.27272,-0.44297,3.19031,1.05714,-7.00434
-0.01056,1.44721,-0.54640,-0.07718,-0.06066,-0.03561,-0.36944,-0.03308,0.27661,0.29701,-0.42344,0.31115,-0.50328,-0.68978,-0.27203,-0.44375,5.76146,0.82632,-5.05664
-0.01132,1.44604,-0.54674,-0.07235,-0.06586,-0.03179,-0.33707,-0.03566,0.20649,0.27791,-0.27416,0.26649,-0.50259,-0.68999,-0.27097,-0.44485,1.10794,-0.57783,-4.74423
-0.01215,1.44486,-0.54685,-0.06941,-0.07028,-0.02564,-0.26041,-0.06806,0.14372,0.14501,-0.25604,0.37789,-0.50246,-0.68931,-0.27131,-0.44584,4.49108,-1.92230,-3.46242
-0.01300,1.44371,-0.54697,-0.06726,-0.07315,-0.02125,-0.19240,-0.07953,0.09148,0.19105,-0.21557,0.33999,-0.50265,-0.68865,-0.27161,-0.44646,5.77845,-1.73485,-4.20983
-0.01379,1.44260,-0.54704,-0.06475,-0.07475,-0.01729,-0.12639,-0.09278,0.04067,0.19689,-0.06066,0.26216,-0.50326,-0.68763,-0.27212,-0.44704,4.88743,-0.85636,-4.10633
-0.01393,1.44225,-0.54694,-0.06135,-0.07411,-0.01300,-0.04301,-0.09834,0.01389,0.24087,0.18824,0.34132,-0.50432,-0.68670,-0.27326,-0.44658,5.76772,-0.52161,-1.77628
-0.01455,1.44155,-0.54697,-0.05914,-0.07054,-0.00960,-0.04902,-0.09943,0.01670,0.23654,0.31677,0.44460,-0.50389,-0.68661,-0.27338,-0.44713,2.21116,0.45002,-0.01148
-0.01518,1.44084,-0.54695,-0.05606,-0.06575,-0.00561,-0.07054,-0.10128,0.02149,0.28103,0.46237,0.28132,-0.50315,-0.68664,-0.27324,-0.44801,-2.84072,-0.78103,-0.17200
-0.01582,1.44022,-0.54668,-0.05164,-0.05760,0.00194,-0.02069,-0.10183,0.06238,0.17976,0.46233,0.63428,-0.50247,-0.68666,-0.27466,-0.44786,4.40401,0.04220,2.44589
-0.01698,1.43920,-0.54630,-0.04983,-0.05106,0.00776,-0.13352,-0.10537,0.08187,0.14748,0.49966,0.69164,-0.49964,-0.68768,-0.27354,-0.45015,-4.40609,0.28623,2.24680
