posX, posY, posZ, velX, velY, velZ, angVelX, angVelY, angVelZ, accX, accY, accZ, rotX, rotY, rotZ, rotW, angAccX, angAccY, angAccZ
-0.03379,1.22384,-0.40691,0.05802,0.32383,-0.22625,0.54392,0.60613,-0.18254,0.12367,4.02295,-0.74615,-0.06326,-0.94183,0.00751,-0.33000,23.58484,-0.51636,-7.76586
-0.03307,1.23240,-0.41047,0.05583,0.39146,-0.23292,0.92912,0.54286,-0.23642,-0.65303,4.65224,-0.12705,-0.07125,-0.94242,-0.00573,-0.32671,24.70110,-2.47056,-6.08525
-0.03336,1.24172,-0.41366,0.03731,0.45751,-0.23181,1.35955,0.52089,-0.19684,-1.78551,4.83423,0.04938,-0.07807,-0.94306,-0.02323,-0.32250,26.10999,-4.58842,1.44900
-0.03427,1.25156,-0.41653,0.01330,0.51538,-0.22590,1.88572,0.62311,-0.21225,-2.18899,4.59911,0.31132,-0.08809,-0.94413,-0.04585,-0.31427,39.95856,3.31993,0.73922
-0.03579,1.26243,-0.41907,-0.01465,0.57582,-0.21573,2.43026,0.75464,-0.27370,-1.78191,4.07499,1.34718,-0.10104,-0.94465,-0.07221,-0.30367,44.13627,12.67538,-5.53341
-0.03737,1.27383,-0.42088,-0.03766,0.63176,-0.19586,2.81460,0.71422,-0.34572,-1.26774,3.08383,1.70218,-0.11404,-0.94301,-0.09737,-0.29706,25.85236,-1.43828,-5.58595
-0.03860,1.28432,-0.42275,-0.04939,0.65937,-0.18175,2.92168,0.61654,-0.37960,-1.15209,2.63900,1.56178,-0.12450,-0.94072,-0.11759,-0.29279,18.25527,-5.21679,-6.62716
-0.04076,1.29532,-0.42482,-0.07288,0.69515,-0.17044,2.91603,0.51742,-0.38645,-1.91331,2.22558,-0.00285,-0.13346,-0.93811,-0.13549,-0.28946,0.26046,-8.37375,-2.93676
-0.04400,1.30622,-0.42808,-0.10878,0.72395,-0.17855,2.81364,0.65924,-0.31418,-2.97164,2.22970,-1.07384,-0.13967,-0.93784,-0.15054,-0.27981,-4.02894,5.77310,4.51254
-0.04886,1.31788,-0.43237,-0.16371,0.75680,-0.20287,2.51349,0.87935,-0.08941,-3.64051,2.18596,-1.62401,-0.13957,-0.93984,-0.16051,-0.26732,-16.37039,11.41735,15.51907
-0.05412,1.33002,-0.43648,-0.21427,0.78340,-0.22434,2.15511,1.03909,0.17758,-3.45158,1.61852,-1.00897,-0.13586,-0.94248,-0.16782,-0.25518,-21.80977,10.96014,21.98201
-0.05934,1.34190,-0.44032,-0.25171,0.79935,-0.23615,1.76743,1.00539,0.41698,-2.86794,1.08585,-0.54458,-0.12954,-0.94451,-0.17251,-0.24772,-30.05050,-0.55818,22.19570
-0.06522,1.35380,-0.44370,-0.29114,0.81144,-0.23721,1.41597,0.94972,0.60658,-1.80422,0.14149,0.74452,-0.12245,-0.94655,-0.17571,-0.24119,-21.63783,-2.59701,13.89788
-0.07023,1.36534,-0.44665,-0.30717,0.81493,-0.23120,1.21278,0.83805,0.63426,-1.45623,0.02874,0.06685,-0.11900,-0.94724,-0.18005,-0.23700,-21.54378,-15.50501,7.22785
-0.07565,1.37659,-0.44914,-0.32613,0.81263,-0.21891,1.20801,0.92185,0.53479,-1.47959,-0.49585,1.01371,-0.12105,-0.94788,-0.18707,-0.22775,-4.08312,4.97971,-5.17804
-0.08139,1.38733,-0.45084,-0.34603,0.80263,-0.19635,1.33121,1.10900,0.37569,-1.17599,-0.85651,1.60202,-0.12697,-0.94818,-0.19664,-0.21486,6.20445,11.72436,-9.17319
-0.08712,1.39772,-0.45196,-0.36132,0.78861,-0.16875,1.42693,1.22920,0.28266,-0.85099,-1.09878,2.62071,-0.13196,-0.94813,-0.20655,-0.20242,7.22326,12.65413,-8.34174
-0.09273,1.40776,-0.45238,-0.37082,0.77238,-0.13661,1.42920,1.15560,0.26802,-0.49145,-1.56213,3.29435,-0.13395,-0.94748,-0.21547,-0.19471,2.39160,0.34954,-3.23201
-0.09800,1.41691,-0.45117,-0.37220,0.74542,-0.08494,1.38961,0.90219,0.24360,0.40881,-1.78837,3.63782,-0.13485,-0.94576,-0.22390,-0.19292,-2.27026,-14.50888,-1.86309
-0.10276,1.42593,-0.44930,-0.36459,0.72192,-0.03385,1.33138,0.54612,0.20393,0.44557,-1.44784,3.58565,-0.13520,-0.94315,-0.23201,-0.19587,-4.57906,-24.05269,-4.31950
-0.10786,1.43505,-0.44695,-0.36462,0.70580,0.01236,1.48019,0.42053,0.14103,0.18653,-1.36445,3.84441,-0.13857,-0.93978,-0.24487,-0.19401,8.33398,-12.70694,-6.72926
-0.11274,1.44394,-0.44394,-0.36117,0.69006,0.05806,1.66268,0.31218,0.01450,-0.34237,-1.00089,2.20333,-0.14433,-0.93527,-0.25915,-0.19307,7.51723,-17.12832,-7.94254
-0.11799,1.45257,-0.44072,-0.36465,0.67314,0.09720,1.99371,0.51460,-0.18805,-0.09169,-1.07477,2.30745,-0.15630,-0.93017,-0.27703,-0.18332,24.07895,16.34721,-12.70717
-0.12318,1.46136,-0.43803,-0.36630,0.66292,0.11910,2.05803,0.55528,-0.27174,0.01822,-0.70658,2.12722,-0.16417,-0.92595,-0.29029,-0.17722,11.17817,9.28283,-9.03102
-0.12864,1.47012,-0.43471,-0.37181,0.65454,0.14581,1.96299,0.44853,-0.24447,-0.45342,-0.29290,1.56298,-0.16752,-0.92246,-0.30059,-0.17508,-5.29641,-6.61765,0.13753
-0.13435,1.47915,-0.43145,-0.38013,0.65141,0.16519,1.81302,0.34028,-0.18718,-0.65785,-0.26555,1.40904,-0.16916,-0.91961,-0.30908,-0.17370,-8.60346,-6.83767,3.13186
-0.14035,1.48825,-0.42852,-0.39109,0.65045,0.17440,1.55609,0.19426,-0.08329,-0.97893,0.09085,0.32152,-0.16773,-0.91801,-0.31418,-0.17439,-16.70686,-12.55865,5.50070
-0.14696,1.49776,-0.42637,-0.40981,0.65614,0.16773,1.02676,0.04885,0.11292,-1.80651,0.41175,-1.35034,-0.16083,-0.91996,-0.31077,-0.17673,-34.77030,-13.97157,11.83220
-0.15391,1.50731,-0.42475,-0.42957,0.66164,0.15368,0.84080,0.33619,0.21583,-1.87150,0.70611,-2.12657,-0.15998,-0.92174,-0.31130,-0.16704,-23.73493,8.39566,11.24142
-0.16139,1.51711,-0.42364,-0.45319,0.66930,0.13489,0.76089,0.85328,0.28687,-1.75807,0.28406,-0.97003,-0.16246,-0.92428,-0.31199,-0.14822,-6.65368,38.04220,8.16857
-0.16920,1.52666,-0.42203,-0.47704,0.67142,0.12811,0.65892,1.14469,0.35016,-1.04371,-0.14877,0.51396,-0.16362,-0.92641,-0.31212,-0.13260,-6.04952,22.74927,5.63632
-0.17664,1.53590,-0.41959,-0.48957,0.66790,0.13584,0.58090,1.14352,0.39986,-0.84539,-0.37801,0.95872,-0.16265,-0.92739,-0.31340,-0.12362,-7.23271,3.63283,4.77922
-0.18407,1.54505,-0.41667,-0.49891,0.66417,0.14924,0.59562,1.15722,0.43290,-0.93076,-0.26403,0.96920,-0.16226,-0.92758,-0.31666,-0.11395,-2.45223,-1.66560,3.67802
-0.19204,1.55386,-0.41272,-0.51639,0.65567,0.17520,0.66814,1.24662,0.49295,-1.14525,-0.42144,2.11265,-0.16198,-0.92747,-0.32145,-0.10114,4.93265,7.27624,2.78403
-0.20013,1.56307,-0.40841,-0.53221,0.65585,0.20074,1.02294,1.53182,0.52885,-1.49120,0.57630,0.96534,-0.16498,-0.92474,-0.33324,-0.08119,13.96299,5.02477,3.62933
-0.20809,1.57202,-0.40372,-0.54218,0.65094,0.22605,1.22685,1.72763,0.51861,-0.27599,-1.29993,2.39881,-0.16876,-0.92191,-0.34320,-0.06182,23.22247,30.28336,-0.64475
-0.21515,1.57982,-0.39904,-0.53522,0.62989,0.24730,1.30801,1.76639,0.40228,1.48046,-2.33220,1.58915,-0.17409,-0.91881,-0.35103,-0.04752,8.32146,6.35832,-5.64536
-0.22101,1.58655,-0.39441,-0.51160,0.59634,0.26183,1.20884,1.61280,0.17824,1.86492,-2.90553,0.95021,-0.18098,-0.91634,-0.35480,-0.04090,-5.80377,-7.84458,-15.66788
-0.22641,1.59259,-0.39005,-0.48580,0.55978,0.26986,1.03449,1.41875,-0.00722,1.29995,-2.23572,0.12356,-0.18714,-0.91476,-0.35610,-0.03728,-16.23519,-16.11095,-14.64825
-0.23222,1.59835,-0.38538,-0.47250,0.52681,0.28150,1.03881,1.47811,-0.05693,0.56878,-1.25653,1.18781,-0.19309,-0.91225,-0.36035,-0.02578,-2.48149,5.39458,-4.76311
-0.23858,1.60446,-0.37957,-0.47101,0.50624,0.30964,1.21151,1.46951,0.02914,0.40850,-1.52850,2.80820,-0.19524,-0.90824,-0.36987,-0.01340,12.27442,4.19285,3.09112
-0.24451,1.61013,-0.37315,-0.46169,0.48340,0.34212,1.24261,1.10117,0.12299,1.13822,-1.99740,2.31466,-0.19248,-0.90518,-0.37877,-0.01143,5.88490,-23.05089,6.19062
-0.24977,1.61489,-0.36683,-0.44378,0.45038,0.36472,1.16104,0.67089,0.11733,1.49359,-3.22379,0.99723,-0.19010,-0.90278,-0.38553,-0.01498,-1.43826,-29.61849,0.00444
-0.25411,1.61870,-0.36193,-0.41491,0.40979,0.35860,0.91791,0.39590,0.00384,2.10882,-2.78129,-1.89188,-0.19106,-0.90193,-0.38683,-0.01943,-16.11681,-28.38136,-7.66012
-0.25780,1.62226,-0.35828,-0.38168,0.37465,0.33569,0.72042,0.45226,-0.17554,1.87657,-2.39905,-1.64349,-0.19765,-0.90089,-0.38604,-0.01740,-17.61330,1.48698,-12.08193
-0.26155,1.62547,-0.35464,-0.35693,0.34161,0.31676,0.68687,0.62815,-0.32638,1.46256,-1.97331,-1.63578,-0.20616,-0.89835,-0.38773,-0.01121,-6.18304,9.11498,-10.46111
-0.26515,1.62856,-0.35092,-0.33572,0.31422,0.30406,0.83464,0.95154,-0.46246,1.37832,-1.55087,-0.52373,-0.21752,-0.89348,-0.39292,0.00108,6.45309,23.57187,-10.08171
-0.26879,1.63138,-0.34666,-0.31956,0.28877,0.30315,1.05759,1.15207,-0.55394,1.39303,-2.18166,0.28348,-0.22799,-0.88696,-0.40145,0.01304,19.67512,21.05742,-7.60341
-0.27216,1.63389,-0.34292,-0.30337,0.26431,0.29261,1.00243,1.03627,-0.59371,1.21188,-1.65669,-1.18844,-0.23429,-0.88339,-0.40554,0.01635,0.54206,-5.60018,-3.67205
-0.27560,1.63652,-0.34005,-0.29209,0.24755,0.27075,0.87406,0.96035,-0.60623,0.19947,-0.75052,-1.89065,-0.24018,-0.88104,-0.40706,0.01951,-11.74040,-8.31993,-1.56225
-0.27966,1.63939,-0.33757,-0.29289,0.23858,0.24919,0.78147,0.96384,-0.53659,-0.16590,-0.34336,-1.24065,-0.24472,-0.87903,-0.40836,0.02550,-5.14557,2.32458,3.20564
-0.28416,1.64257,-0.33503,-0.30064,0.23698,0.23386,0.67504,0.84706,-0.37944,-0.66551,0.27982,-0.87888,-0.24499,-0.87831,-0.40952,0.02920,-8.08914,-7.48108,10.09831
-0.28894,1.64612,-0.33225,-0.31101,0.24152,0.22597,0.70994,0.82847,-0.21177,-1.21518,0.74128,-0.72104,-0.24466,-0.87636,-0.41330,0.03620,-1.78612,-7.76210,13.16602
-0.29407,1.65006,-0.32963,-0.32461,0.25117,0.21671,0.77534,0.81121,-0.00852,-0.54462,0.45900,-0.72111,-0.24225,-0.87433,-0.41817,0.04454,7.12778,0.19333,13.34071
-0.29883,1.65423,-0.32764,-0.32957,0.26295,0.19881,0.68644,0.74235,0.12283,-0.18351,0.83885,-1.19241,-0.24009,-0.87396,-0.41960,0.04993,-4.96581,-5.45257,9.43862
-0.30344,1.65843,-0.32539,-0.33074,0.27190,0.19010,0.66393,0.72804,0.17099,-0.24415,1.02160,-0.70357,-0.23979,-0.87256,-0.42190,0.05600,-5.79377,-3.51684,6.02062
-0.30820,1.66342,-0.32303,-0.33372,0.29160,0.18625,0.72597,0.70193,0.21369,-0.27562,1.38045,0.32994,-0.23903,-0.87017,-0.42637,0.06228,2.51393,-1.87648,1.97858
-0.31312,1.66860,-0.31955,-0.33902,0.31057,0.20196,0.92505,0.67508,0.24169,-0.41684,1.54280,1.82240,-0.23816,-0.86570,-0.43477,0.06942,11.96449,-1.26506,1.64543
-0.31818,1.67390,-0.31528,-0.34503,0.32669,0.22633,1.14781,0.56931,0.28073,-0.41077,1.33956,2.16912,-0.23554,-0.86038,-0.44568,0.07505,18.40870,-6.00021,1.26075
-0.32339,1.67960,-0.31043,-0.35116,0.34592,0.25598,1.36835,0.38203,0.33184,-0.22242,0.82463,1.60816,-0.23082,-0.85453,-0.45860,0.07857,17.11020,-9.98992,2.39961
-0.32864,1.68522,-0.30625,-0.35672,0.35970,0.26855,1.43971,0.24262,0.36460,-0.76897,0.85125,0.35668,-0.22645,-0.84994,-0.46874,0.08127,5.80684,-14.98850,0.31941
-0.33402,1.69085,-0.30245,-0.36304,0.37005,0.27102,1.45447,0.21842,0.38912,-0.60020,0.90707,0.16736,-0.22323,-0.84563,-0.47716,0.08595,3.06719,-2.88908,2.45507
-0.34006,1.69687,-0.29807,-0.37906,0.38394,0.28361,1.57277,0.26587,0.45753,-1.46767,0.93112,1.28421,-0.21937,-0.83988,-0.48754,0.09369,4.86162,1.95072,3.35846
-0.34668,1.70285,-0.29308,-0.40106,0.39412,0.30283,1.74478,0.32446,0.55754,-1.73524,0.62516,1.36178,-0.21435,-0.83291,-0.49965,0.10323,12.18447,4.01241,6.36672
-0.35359,1.70870,-0.28814,-0.42236,0.39991,0.31563,1.83216,0.33219,0.67257,-1.64759,0.13531,0.90878,-0.20783,-0.82670,-0.51070,0.11211,10.85781,2.08325,9.66043
-0.36099,1.71434,-0.28342,-0.44655,0.40082,0.32096,1.76575,0.18039,0.81157,-1.50415,-0.29580,0.07019,-0.19798,-0.82317,-0.51920,0.11677,-0.19515,-8.04572,8.95668
-0.36857,1.71986,-0.27928,-0.46830,0.39968,0.31570,1.57018,0.04051,0.91349,-1.41740,0.02270,-0.34240,-0.18830,-0.82191,-0.52409,0.11969,-12.44347,-13.07129,6.25066
-0.37595,1.72541,-0.27463,-0.48237,0.39950,0.32032,1.53247,0.05323,0.95993,-1.29341,0.25853,1.03072,-0.18101,-0.81817,-0.53098,0.12606,-7.69830,-1.62307,4.38842
-0.38375,1.73111,-0.26830,-0.49951,0.40094,0.35126,1.72719,0.18663,0.99608,-1.26624,0.21768,3.14148,-0.17481,-0.81011,-0.54258,0.13703,8.42593,7.94607,3.84599
-0.39182,1.73696,-0.26007,-0.51701,0.40457,0.40623,1.96835,0.12747,0.98831,-1.04718,0.35591,3.60747,-0.16662,-0.80053,-0.55741,0.14384,15.44030,-1.21671,-0.82873
-0.40019,1.74283,-0.25156,-0.53637,0.40795,0.45323,2.18529,0.13041,1.05071,-1.49508,-0.01297,2.91202,-0.15726,-0.79030,-0.57212,0.15288,17.24780,0.85764,2.51051
-0.40899,1.74861,-0.24349,-0.55812,0.40917,0.48143,2.21739,0.02765,1.16235,-1.42679,-0.19657,1.21433,-0.14510,-0.78276,-0.58374,0.15962,7.28345,-6.24463,5.66329
-0.41790,1.75437,-0.23634,-0.57655,0.40981,0.48811,2.03578,-0.13730,1.26819,-1.16031,-0.01856,-0.07065,-0.13183,-0.77917,-0.59058,0.16351,-9.30637,-13.67616,6.49017
-0.42671,1.76015,-0.22948,-0.58920,0.41072,0.48931,1.85178,-0.13824,1.39079,-0.89526,0.01063,0.33997,-0.11983,-0.77593,-0.59530,0.17088,-14.67337,-6.21699,7.20422
-0.43525,1.76570,-0.22203,-0.59414,0.40771,0.50004,1.73603,-0.16803,1.42575,0.14155,-0.26218,1.23153,-0.10870,-0.77190,-0.60090,0.17686,-9.25105,-0.56392,5.17731
-0.44338,1.77105,-0.21394,-0.59153,0.40226,0.51853,1.72675,-0.21319,1.39666,0.26488,-0.53783,1.94692,-0.09813,-0.76614,-0.60863,0.18155,-4.03642,-5.10639,-1.49495
-0.45127,1.77569,-0.20454,-0.58607,0.38643,0.55358,1.86244,-0.23928,1.33744,0.42330,-1.16411,2.28549,-0.08787,-0.75732,-0.61970,0.18631,7.44945,-0.34433,-3.41506
-0.45904,1.77990,-0.19512,-0.57965,0.36718,0.58121,1.96889,-0.26404,1.27366,0.64782,-1.61006,1.66833,-0.07789,-0.74815,-0.63076,0.19063,9.92428,1.04404,-3.67935
-0.46664,1.78367,-0.18565,-0.57211,0.34516,0.60352,2.04199,-0.26577,1.22116,0.40953,-1.67269,1.63327,-0.06830,-0.73891,-0.64134,0.19502,4.10379,-2.16857,-5.52733
-0.47417,1.78708,-0.17604,-0.56461,0.32263,0.62287,2.12684,-0.23681,1.16689,0.77327,-1.98290,1.48945,-0.05942,-0.72861,-0.65238,0.19997,7.18743,4.48387,-2.40811
-0.48122,1.78996,-0.16643,-0.55094,0.29723,0.63745,2.12785,-0.28216,1.04232,0.99902,-1.29047,0.42394,-0.05149,-0.71953,-0.66257,0.20157,2.68392,-1.23898,-6.96173
-0.48824,1.79311,-0.15714,-0.54006,0.28117,0.64432,2.12258,-0.17435,1.01416,0.25443,-0.90468,0.56333,-0.04472,-0.70991,-0.67156,0.20742,-3.44217,1.88208,-6.17607
-0.49532,1.79580,-0.14734,-0.53225,0.26152,0.65770,2.23725,0.17181,1.11006,0.63936,-1.58457,1.27552,-0.03975,-0.69620,-0.68155,0.22184,4.83790,22.82264,9.84534
-0.50220,1.79784,-0.13726,-0.52283,0.23606,0.67238,2.32273,0.29388,1.10507,1.27596,-2.04305,0.86141,-0.03376,-0.68283,-0.69210,0.23152,7.80989,16.22141,5.44158
-0.50868,1.79941,-0.12754,-0.50908,0.20799,0.67816,2.30380,0.21584,1.00346,0.75724,-1.82725,0.24533,-0.02697,-0.67205,-0.70169,0.23506,-0.61986,-3.36764,-7.36718
-0.51529,1.80054,-0.11786,-0.50083,0.17865,0.68188,2.32342,0.17748,0.98679,0.51392,-2.25137,0.13231,-0.01904,-0.66036,-0.71124,0.24020,0.23613,-3.76025,-3.62925
-0.52165,1.80124,-0.10866,-0.49021,0.14919,0.67679,2.28188,0.08074,0.93545,1.00026,-2.05527,-0.77281,-0.01087,-0.65001,-0.71988,0.24319,0.62137,-4.29118,-2.48714
-0.52781,1.80160,-0.09983,-0.47880,0.12061,0.66677,2.21145,-0.04578,0.89285,0.76050,-2.20743,-0.60678,-0.00194,-0.64081,-0.72759,0.24490,-6.37792,-8.19451,-4.54291
-0.53389,1.80121,-0.09119,-0.46804,0.08708,0.65587,2.17606,-0.12229,0.90769,0.77358,-2.44215,-1.18301,0.00769,-0.63093,-0.73513,0.24791,-1.62468,-7.39278,-1.82357
-0.53952,1.80063,-0.08335,-0.45219,0.05839,0.63397,2.05697,-0.21752,0.87586,1.52361,-1.83424,-2.04507,0.01664,-0.62313,-0.74113,0.24933,-5.56668,-6.03032,-0.99736
-0.54442,1.80006,-0.07627,-0.42811,0.03578,0.60503,1.88665,-0.21518,0.85399,1.87076,-1.58335,-2.13061,0.02347,-0.61656,-0.74547,0.25215,-12.33547,-3.49360,-3.66405
-0.54848,1.79912,-0.06954,-0.39536,0.01257,0.57702,1.75518,-0.10660,0.81813,2.68794,-1.72355,-1.99437,0.02761,-0.60917,-0.74982,0.25673,-10.43165,6.80222,0.15608
-0.55200,1.79813,-0.06302,-0.36217,-0.00590,0.55263,1.63878,-0.03741,0.74406,3.07390,-1.38843,-2.11420,0.03093,-0.60222,-0.75418,0.25998,-9.91449,6.67913,-4.60734
-0.55426,1.79696,-0.05718,-0.31679,-0.02289,0.52265,1.51260,0.06413,0.61699,3.50917,-1.13680,-2.21184,0.03147,-0.59580,-0.75835,0.26255,-10.02068,7.14366,-7.77976
-0.55503,1.79547,-0.05206,-0.25693,-0.04112,0.48714,1.39567,0.24366,0.45368,3.88243,-1.12100,-2.28637,0.02844,-0.58900,-0.76272,0.26557,-7.76540,11.27695,-9.23407
-0.55587,1.79411,-0.04695,-0.21207,-0.05306,0.45974,1.28997,0.33969,0.30956,3.73460,-0.89479,-2.26915,0.02586,-0.58282,-0.76692,0.26737,-8.13891,12.01917,-9.30367
-0.55609,1.79272,-0.04254,-0.16796,-0.06296,0.42769,1.14656,0.35479,0.14132,2.87200,-0.56601,-2.31846,0.02298,-0.57863,-0.77042,0.26666,-10.11205,3.34827,-12.63546
-0.55599,1.79145,-0.03869,-0.12804,-0.06869,0.39346,0.95835,0.39354,0.08465,1.91985,-0.14178,-1.71688,0.02031,-0.57603,-0.77198,0.26801,-12.92292,-0.28850,-7.28809
-0.55569,1.78990,-0.03459,-0.09277,-0.07842,0.37054,0.91252,0.53109,0.18177,2.49668,-0.82064,-1.14368,0.01857,-0.57002,-0.77415,0.27463,-3.33730,10.10794,8.90504
-0.55544,1.78815,-0.03024,-0.06668,-0.08941,0.35695,0.90706,0.52735,0.13842,2.21273,-1.04569,-0.87088,0.01743,-0.56422,-0.77771,0.27660,-1.36416,3.26588,-0.64487
-0.55467,1.78580,-0.02589,-0.03830,-0.10737,0.34681,0.96310,0.50521,0.10332,1.98348,-1.45951,-0.46886,0.01719,-0.55718,-0.78226,0.27807,2.34830,-1.75993,-2.99050
-0.55359,1.78298,-0.02146,-0.01164,-0.12898,0.34014,1.02484,0.42321,0.01732,2.06171,-1.62553,-0.47052,0.01761,-0.55015,-0.78755,0.27710,5.62794,-3.01582,-3.42865
-0.55256,1.78003,-0.01720,0.00890,-0.14768,0.33296,1.04268,0.17050,-0.20290,1.31371,-1.05527,-0.39580,0.01957,-0.54547,-0.79347,0.26923,1.02601,-14.76308,-15.34995
-0.55160,1.77727,-0.01282,0.02364,-0.15904,0.32940,1.04222,0.01646,-0.27006,0.47716,-0.68935,-0.13007,0.02228,-0.54079,-0.79829,0.26418,-0.98970,-15.34289,-11.96316
-0.55050,1.77413,-0.00815,0.03718,-0.17428,0.33132,1.14179,0.03205,-0.14906,0.99983,-1.32995,0.51098,0.02559,-0.53245,-0.80331,0.26558,4.76846,-1.00788,7.30580
-0.54896,1.77040,-0.00308,0.05412,-0.19597,0.33932,1.31226,0.04715,-0.14784,1.50961,-1.58401,0.68175,0.02804,-0.52172,-0.81048,0.26485,12.00374,1.39265,4.05764
-0.54719,1.76620,0.00243,0.07076,-0.22054,0.35280,1.51088,0.08083,-0.12356,0.84265,-2.13922,1.26454,0.03082,-0.50911,-0.81839,0.26477,11.84967,0.86374,-1.51757
-0.54564,1.76131,0.00829,0.07993,-0.25031,0.36854,1.74506,0.02350,-0.15382,0.59975,-1.86068,1.05741,0.03549,-0.49491,-0.82769,0.26217,19.13812,-0.96602,1.20513
-0.54516,1.75666,0.01442,0.08008,-0.27155,0.38226,1.91990,-0.06229,-0.13254,-0.17679,-1.28493,0.66400,0.04184,-0.48104,-0.83628,0.25978,12.94008,-6.54253,-1.35131
-0.54507,1.75205,0.02055,0.07347,-0.28700,0.39294,2.05888,-0.15034,-0.01895,-0.82851,-1.20256,0.86418,0.05024,-0.46701,-0.84386,0.25938,9.31332,-6.62009,4.05866
-0.54537,1.74678,0.02691,0.05817,-0.30957,0.40606,2.26866,-0.31704,0.10497,-1.30344,-1.98510,1.06634,0.06247,-0.45090,-0.85211,0.25826,13.72484,-11.21830,8.76466
-0.54666,1.74064,0.03348,0.03281,-0.34249,0.41901,2.49653,-0.64042,0.15934,-1.59589,-2.68544,0.85014,0.07947,-0.43435,-0.86080,0.25308,16.57276,-19.39885,5.65772
-0.54828,1.73433,0.03991,0.00682,-0.36885,0.42656,2.63966,-1.05642,0.03638,-2.10382,-1.91548,0.37200,0.09822,-0.41981,-0.86952,0.24093,15.08428,-29.35951,-11.18559
-0.55088,1.72723,0.04613,-0.03253,-0.40225,0.42978,2.82697,-1.64278,-0.07609,-1.88895,-2.08473,0.07353,0.12399,-0.40502,-0.87769,0.22417,9.81621,-31.65714,-10.02703
-0.55277,1.72000,0.05191,-0.05664,-0.42990,0.42626,3.01151,-1.98537,-0.14135,-1.52624,-1.95071,-0.41063,0.14720,-0.38788,-0.88541,0.20961,13.83244,-25.87703,-11.01383
-0.55443,1.71237,0.05744,-0.07103,-0.45729,0.41965,3.23264,-2.18426,-0.16447,-1.17634,-2.50496,-0.45231,0.16972,-0.36763,-0.89308,0.19611,16.14454,-18.58547,-5.43076
-0.55608,1.70306,0.06247,-0.08184,-0.50629,0.40589,3.69559,-2.32107,-0.12147,-0.32148,-3.23510,-1.18919,0.19437,-0.33867,-0.90222,0.18311,26.20794,-10.51792,5.89864
-0.55747,1.69372,0.06689,-0.08595,-0.54459,0.38489,4.10611,-2.40241,-0.17431,-0.28525,-2.37160,-1.90533,0.21719,-0.30785,-0.91104,0.16753,30.87685,-5.75746,-0.38813
-0.55879,1.68498,0.07084,-0.08797,-0.56337,0.36183,4.32996,-2.44748,-0.22000,0.16015,-1.30476,-3.03875,0.23866,-0.27876,-0.91772,0.15208,27.60955,-4.93343,1.11208
-0.55993,1.67756,0.07277,-0.08658,-0.55536,0.31122,4.41031,-2.53848,-0.62487,-0.02440,1.40508,-3.07254,0.25673,-0.25388,-0.92400,0.12597,9.49869,1.91211,-25.29603
-0.56099,1.67074,0.07495,-0.08419,-0.54031,0.27562,4.39399,-2.55103,-0.72337,-0.07888,1.25147,-3.11787,0.27488,-0.22977,-0.92750,0.10670,0.83255,1.69475,-15.13412
-0.56203,1.66396,0.07609,-0.08197,-0.52844,0.23180,4.40290,-2.56512,-0.64573,0.02464,0.67233,-3.10174,0.29441,-0.20391,-0.92919,0.09142,-0.50965,-1.25353,2.68576
-0.56308,1.65714,0.07625,-0.08047,-0.51964,0.18116,4.46040,-2.58461,-0.65372,0.17393,0.42557,-3.29746,0.31340,-0.17672,-0.93011,0.07381,3.29263,-2.19935,1.77550
-0.56420,1.65022,0.07625,-0.08055,-0.51450,0.13942,4.48563,-2.60405,-0.76947,0.20190,0.21934,-3.81298,0.33110,-0.15068,-0.92997,0.05309,3.72289,-0.07928,-5.77754
-0.56526,1.64302,0.07442,-0.07951,-0.51537,0.07790,4.53876,-2.57217,-0.97932,0.12096,-0.39087,-5.20478,0.34620,-0.12437,-0.92944,0.02877,5.43170,6.02702,-14.41288
-0.56605,1.63533,0.07028,-0.07428,-0.52367,-0.00704,4.64644,-2.51477,-1.09313,0.48708,-0.64388,-6.93852,0.36044,-0.09551,-0.92787,0.00536,8.22717,5.66239,-7.00093
-0.56644,1.62761,0.06263,-0.06357,-0.53053,-0.13173,4.78108,-2.46152,-1.11043,0.69369,-0.03883,-8.67384,0.37438,-0.06444,-0.92488,-0.01656,9.28496,3.01889,-0.00077
-0.56669,1.62042,0.05414,-0.05321,-0.52714,-0.24136,4.85450,-2.46829,-1.01324,0.64770,0.91093,-9.78569,0.38953,-0.03318,-0.91974,-0.03532,7.18520,0.42263,4.91662
-0.56647,1.61446,0.04072,-0.03733,-0.50393,-0.40683,4.80826,-2.71924,-0.54489,0.53319,2.68295,-11.11605,0.41219,-0.00089,-0.91008,-0.04302,-4.71443,-17.39820,19.77409
-0.56601,1.61019,0.02536,-0.02105,-0.45785,-0.56877,4.51888,-3.36902,0.18336,0.69522,4.66139,-12.07314,0.44728,0.02842,-0.89309,-0.03900,-22.47650,-48.27347,30.51382
-0.56494,1.60797,0.00741,0.00193,-0.38818,-0.73585,4.00571,-4.38144,0.98209,1.96068,6.25588,-12.44981,0.49523,0.05292,-0.86677,-0.02550,-41.01850,-80.91621,27.91557
-0.56255,1.60876,-0.01348,0.04158,-0.28459,-0.91307,3.47542,-5.51329,1.45925,4.07223,8.30891,-12.71805,0.55002,0.07270,-0.83188,-0.01342,-41.18797,-91.30995,10.18813
-0.55808,1.61277,-0.03646,0.10702,-0.15139,-1.08348,3.05633,-6.41100,1.50396,6.62009,10.66674,-11.83003,0.60281,0.08828,-0.79294,-0.00895,-24.52276,-74.14323,-15.35730
-0.55028,1.62083,-0.06073,0.21255,0.01818,-1.23540,2.79513,-6.86384,1.22356,9.79887,13.32009,-9.59290,0.64765,0.10086,-0.75513,-0.01281,-9.09447,-41.53050,-28.69704
-0.53937,1.63318,-0.08418,0.34464,0.21921,-1.33779,2.60325,-6.78746,0.69993,10.37165,15.50943,-5.07369,0.68126,0.10862,-0.72352,-0.02453,3.39307,3.50731,-36.10396
-0.52737,1.64776,-0.10495,0.46205,0.40731,-1.37223,2.47889,-6.50251,0.21130,9.15638,14.68815,-0.64329,0.70854,0.11441,-0.69525,-0.03887,-1.37786,29.09642,-46.66034
-0.51214,1.67108,-0.12126,0.60468,0.69616,-1.32453,2.23251,-5.08224,-1.09675,8.03824,19.16183,5.63860,0.71150,0.09977,-0.69156,-0.07457,14.14215,94.98100,-58.21226
-0.49803,1.69624,-0.13341,0.69842,0.95198,-1.21971,1.73928,-3.87980,-2.25061,5.90567,19.26966,8.73077,0.71245,0.07384,-0.68941,-0.10806,9.35209,100.60920,-74.73203
-0.48388,1.72308,-0.14327,0.77031,1.17284,-1.10348,0.96411,-3.06261,-3.24947,5.47132,19.10463,9.80920,0.71547,0.03516,-0.68449,-0.13539,-18.49701,91.42950,-83.48714
-0.46590,1.75661,-0.14827,0.88947,1.45179,-0.93496,-0.55772,-2.41687,-4.43775,9.18598,16.73539,10.88036,0.71861,-0.03377,-0.67762,-0.15260,-61.08278,61.82382,-95.44611
-0.44510,1.78787,-0.15282,1.02687,1.63066,-0.79739,-1.81002,-1.91207,-5.01345,13.52616,13.38361,12.14638,0.71995,-0.09746,-0.66862,-0.15851,-82.77107,58.44090,-73.89960
-0.41730,1.82114,-0.15325,1.24326,1.79844,-0.62693,-2.93158,-0.98436,-5.50783,17.74466,10.62586,12.54159,0.70724,-0.16746,-0.66779,-0.16069,-60.43608,83.07674,-50.70670
-0.37986,1.85598,-0.15032,1.56633,1.94807,-0.42077,-3.76757,0.56736,-5.67256,23.35922,6.05580,14.78057,0.67554,-0.23504,-0.68076,-0.15800,-24.69043,69.26645,-72.21925
-0.33624,1.89067,-0.14590,1.91649,2.06493,-0.22839,-3.72766,2.72018,-5.70770,27.81850,8.73072,14.17834,0.61905,-0.28678,-0.71324,-0.16072,48.31029,153.61230,12.96707
-0.28966,1.92649,-0.14038,2.23118,2.17560,-0.06894,-3.37789,4.69817,-6.56588,27.25956,9.14955,13.70234,0.54285,-0.34871,-0.74155,-0.18388,59.55166,129.60520,-106.74270
-0.22577,1.96734,-0.12681,2.77314,2.34538,0.17001,-2.75956,7.84714,-8.70226,35.88800,9.51494,11.69584,0.40564,-0.42972,-0.77345,-0.22930,53.57143,120.12590,-166.45730
-0.15869,2.00572,-0.11763,3.24867,2.43640,0.28339,-3.32160,10.04519,-10.74722,44.21219,6.52211,3.67928,0.26256,-0.52596,-0.76733,-0.25621,8.08958,144.93130,-189.99060
-0.07070,2.03781,-0.11517,3.95117,2.39846,0.25672,-5.05041,12.63809,-12.30126,56.71728,-11.12126,-11.16498,0.09198,-0.63507,-0.72746,-0.24295,-70.72130,213.43350,-121.82280
0.04208,2.04779,-0.13437,4.90715,1.99190,-0.13259,-6.30250,16.40113,-13.10882,57.06277,-40.21880,-37.60989,-0.11978,-0.71217,-0.66519,-0.18969,21.55708,224.39400,-130.47570
0.14651,2.03796,-0.16925,5.49757,1.35778,-0.68332,-6.39048,18.91368,-12.90317,39.12659,-64.96483,-52.94329,-0.30597,-0.73690,-0.58974,-0.12473,59.48809,178.75920,-125.00030
0.24353,1.99006,-0.23023,5.81753,0.25697,-1.52330,-4.75066,21.38523,-11.98436,3.19972,-89.79569,-62.36946,-0.48628,-0.69931,-0.52262,-0.03693,110.12080,78.16999,-168.96050
0.30681,1.90044,-0.30837,5.49448,-1.29441,-2.46848,-0.38309,22.46304,-11.65531,-42.53005,-100.12180,-50.13747,-0.64837,-0.58164,-0.49005,0.03403,74.79051,-62.67886,-254.53160
0.34252,1.81315,-0.37473,4.80280,-2.43975,-2.99542,3.36759,21.59730,-12.85402,-71.04929,-90.89146,-35.47493,-0.77899,-0.43308,-0.44955,0.05933,-74.38460,-103.99060,-311.66690
0.33792,1.71294,-0.44045,3.62642,-3.51032,-3.37869,5.41876,19.03103,-15.17516,-94.54010,-64.29868,-17.25146,-0.87348,-0.27589,-0.40019,0.02767,-227.91430,-63.83310,-198.37970
0.30307,1.62416,-0.49418,2.23190,-4.15037,-3.48231,4.96719,16.23980,-16.89814,-103.17620,-29.20266,2.97255,-0.93121,-0.15139,-0.33013,-0.03059,-258.30030,2.07291,-22.55200
0.24909,1.55419,-0.53136,0.84834,-4.33927,-3.29200,3.92445,14.17407,-17.02131,-94.31194,2.35619,24.38914,-0.96205,-0.05624,-0.25736,-0.07119,-157.23010,5.43723,90.81592
0.18761,1.50343,-0.54864,-0.33715,-4.17599,-2.82203,3.62588,12.03761,-16.74523,-73.99207,22.14610,42.24815,-0.97247,0.04332,-0.20671,-0.09851,-123.18660,-60.39911,60.46709
0.12979,1.47119,-0.54577,-1.18588,-3.75762,-2.13385,2.09419,9.77742,-16.53966,-45.13822,35.78447,56.01926,-0.96607,0.12699,-0.16133,-0.15669,-147.01000,-30.37716,73.88311
0.08758,1.46430,-0.51947,-1.59198,-3.01100,-1.21230,-0.57703,6.84859,-14.99137,-2.19463,54.41144,54.80746,-0.94492,0.16157,-0.14962,-0.24215,-200.14380,29.75233,179.82280
0.07608,1.46436,-0.49811,-1.40478,-2.31329,-0.57695,-3.19231,4.69904,-13.25455,25.35660,46.12096,36.31824,-0.91475,0.18190,-0.14236,-0.33148,-197.06350,-3.81340,211.72590
0.09417,1.46321,-0.48864,-0.76730,-1.80272,-0.28855,-3.14721,1.58477,-6.00284,49.71671,37.51514,8.35096,-0.91554,0.07355,-0.22523,-0.32503,-62.76031,-7.27542,451.88880
0.11705,1.45782,-0.48940,-0.21538,-1.48415,-0.23439,-2.57367,-0.20850,-2.66686,43.21345,22.91548,2.65604,-0.90643,0.02794,-0.28037,-0.31463,21.58018,-181.33280,345.43680
0.15252,1.45906,-0.49017,0.41132,-1.12786,-0.19064,-2.36772,-0.70310,2.63763,30.11950,22.19002,5.28600,-0.89476,-0.10394,-0.32966,-0.28271,6.90321,14.45326,357.96600
0.17789,1.46048,-0.48766,0.73495,-0.84526,-0.10198,-2.70387,-0.52419,5.73213,15.86233,19.36280,7.64145,-0.87097,-0.21301,-0.35143,-0.26932,-34.87373,44.19615,233.51790
0.19464,1.45993,-0.48441,0.83861,-0.66600,-0.02549,-3.08294,-0.13952,7.13075,4.61470,16.86802,8.15122,-0.84434,-0.29791,-0.35737,-0.26575,-44.81349,36.96414,182.72470
0.20566,1.46461,-0.47757,0.82430,-0.44726,0.08923,-4.31304,1.17519,7.71185,-5.58251,11.77392,6.78491,-0.81501,-0.38510,-0.32440,-0.28674,-111.15860,56.46008,41.24771
0.20818,1.46696,-0.47029,0.67491,-0.30942,0.18778,-5.13631,1.09001,6.58483,-10.25890,7.14132,4.52066,-0.78884,-0.41985,-0.30972,-0.32487,-62.02724,-25.46421,-46.10320
0.21062,1.46537,-0.46496,0.56288,-0.26645,0.23148,-5.05739,0.54512,5.84387,-11.66737,3.60621,3.49843,-0.76405,-0.44514,-0.31356,-0.34606,3.39367,-86.14056,-68.32507
0.20740,1.46317,-0.45948,0.38779,-0.24349,0.26650,-4.51235,-0.21269,4.55242,-10.35288,1.19134,0.80207,-0.75023,-0.44427,-0.32460,-0.36662,41.88751,-57.34694,-64.69279
0.20377,1.46028,-0.45586,0.24065,-0.23551,0.26403,-3.48190,-0.89122,3.50740,-8.49818,0.24735,-1.09357,-0.74286,-0.43663,-0.34305,-0.37394,79.33744,-46.85560,-54.72256
0.20336,1.45722,-0.45313,0.18102,-0.23208,0.24899,-3.01047,-1.00029,3.10708,-7.39035,0.18086,-2.07280,-0.73085,-0.44521,-0.35079,-0.38024,76.34136,-27.42568,-46.32878
0.19920,1.45497,-0.45350,0.07799,-0.21617,0.18840,-2.25085,-0.69769,2.47235,-5.00647,0.60294,-3.67479,-0.73278,-0.44559,-0.35092,-0.37596,47.30914,14.43444,-35.66769
0.19657,1.45330,-0.45493,0.01773,-0.19318,0.12176,-1.94749,-0.07446,2.09966,-3.01016,1.77189,-3.98514,-0.73281,-0.45684,-0.33914,-0.37319,15.04163,38.01674,-30.36203
0.19459,1.45280,-0.45619,-0.01903,-0.15604,0.07273,-1.79976,0.30302,1.96756,-2.02627,3.02614,-2.94624,-0.72827,-0.47145,-0.33041,-0.37174,8.72589,30.16148,-16.59376
0.19270,1.45350,-0.45737,-0.04568,-0.10703,0.03643,-1.74325,0.51847,1.93585,-1.26527,3.93505,-2.31797,-0.72107,-0.48736,-0.32327,-0.37154,-0.14253,21.02802,-5.92968
0.19100,1.45495,-0.45789,-0.06283,-0.05793,0.01950,-1.58916,0.44288,2.01006,-0.93317,4.55675,-1.05509,-0.71113,-0.50161,-0.32432,-0.37082,10.38919,2.22179,2.38031
0.18906,1.45906,-0.45802,-0.08014,0.02350,0.01282,-1.47031,0.23249,2.29542,-1.19431,5.47650,-0.01468,-0.69597,-0.51886,-0.33130,-0.36967,11.42463,-11.18388,16.43827
0.18669,1.46383,-0.45798,-0.10030,0.09870,0.00955,-1.61782,0.21586,2.57404,-1.64577,4.85483,-0.13650,-0.67795,-0.54094,-0.33196,-0.37089,-4.22036,-3.38052,22.70688
0.18410,1.46876,-0.45814,-0.11951,0.15909,0.00387,-1.76026,0.24313,2.80112,-1.33468,3.95408,-0.72265,-0.65918,-0.56364,-0.33093,-0.37186,-14.77426,2.70306,16.75609
0.18146,1.47330,-0.45840,-0.13512,0.19753,-0.00169,-1.73226,0.21882,2.96506,-1.22945,3.08755,-0.59244,-0.64126,-0.58386,-0.33273,-0.37038,-1.40638,0.57053,14.06791
0.17806,1.47823,-0.45879,-0.15904,0.23489,-0.00839,-1.65858,0.20743,3.13271,-1.71953,1.72970,-0.26323,-0.62282,-0.60402,-0.33559,-0.36693,6.39578,0.91888,11.62837
0.17467,1.48224,-0.45901,-0.17745,0.24884,-0.01093,-1.62823,0.21615,3.17240,-1.54426,0.72141,-0.14047,-0.60541,-0.62242,-0.33638,-0.36458,1.77088,1.91588,5.65669
0.17063,1.48584,-0.45898,-0.20270,0.25268,-0.00850,-1.62555,0.20198,3.11609,-1.88298,0.01636,0.56174,-0.58887,-0.63872,-0.33620,-0.36364,3.44106,0.05102,-2.42662
0.16599,1.48962,-0.45859,-0.23190,0.25968,-0.00085,-1.79139,0.11719,3.06374,-2.28568,0.95667,0.67644,-0.56939,-0.65526,-0.33404,-0.36721,-9.74217,-6.83437,-4.48348
0.16071,1.49397,-0.45808,-0.26457,0.27343,0.00678,-1.92851,-0.01778,3.08767,-2.78874,1.27431,0.50631,-0.54735,-0.67184,-0.33340,-0.37132,-9.30226,-11.71555,1.77130
0.15468,1.49849,-0.45771,-0.30128,0.28634,0.01070,-1.98922,-0.19152,3.11597,-2.39561,0.75081,-0.25377,-0.52442,-0.68689,-0.33472,-0.37568,-6.19925,-14.08803,4.60132
0.14851,1.50257,-0.45783,-0.33243,0.29006,0.00607,-1.77028,-0.31918,3.12490,-1.73449,0.31740,-0.85010,-0.50482,-0.69882,-0.34075,-0.37510,12.40065,-7.02196,1.32353
0.14264,1.50666,-0.45837,-0.35216,0.29267,-0.00396,-1.43707,-0.33824,3.21552,-1.51695,0.43784,-1.22303,-0.48604,-0.71098,-0.34946,-0.36899,23.65064,0.84124,4.33769
0.13619,1.51086,-0.45962,-0.37640,0.29604,-0.02322,-1.01284,-0.21456,3.43568,-1.43084,-0.13176,-1.07340,-0.46711,-0.72481,-0.36087,-0.35529,27.46113,13.71743,13.66707
0.12982,1.51455,-0.46101,-0.39415,0.29039,-0.04031,-0.88887,0.02096,3.59540,-1.38423,-0.99321,-0.84533,-0.44693,-0.74145,-0.36536,-0.34208,9.69338,18.13985,12.43962
0.12334,1.51758,-0.46219,-0.40992,0.27560,-0.05002,-1.00611,0.24791,3.63158,-1.59669,-1.83030,-0.14402,-0.42644,-0.75892,-0.36337,-0.33190,-5.99612,18.87263,5.33810
0.11580,1.51915,-0.46293,-0.43953,0.23976,-0.05048,-1.57239,0.46757,3.53954,-1.66138,-2.25525,0.55826,-0.40348,-0.77938,-0.34879,-0.32879,-34.42570,5.33569,-5.72383
0.10814,1.52037,-0.46289,-0.46521,0.20574,-0.03796,-1.98657,0.50501,3.48452,-1.95332,-2.46661,1.07468,-0.37873,-0.79754,-0.33661,-0.32738,-32.77348,-3.19589,-3.10285
0.09987,1.52083,-0.46221,-0.49512,0.16656,-0.01764,-2.27720,0.46451,3.45159,-2.24853,-3.01237,1.59470,-0.35299,-0.81410,-0.32562,-0.32652,-22.01106,-6.55351,-1.02422
0.09104,1.52029,-0.46090,-0.52754,0.11949,0.00862,-2.41251,0.37244,3.41106,-2.33477,-3.52768,1.83960,-0.32770,-0.82831,-0.31688,-0.32573,-11.70875,-8.65939,-1.54504
0.08187,1.51872,-0.45922,-0.55816,0.06644,0.03457,-2.41726,0.28000,3.34333,-2.07960,-3.83642,1.48424,-0.30387,-0.84039,-0.31006,-0.32445,-1.56050,-8.68605,-3.58722
0.07250,1.51624,-0.45759,-0.58367,0.01001,0.05359,-2.24956,0.29886,3.27307,-1.65265,-4.26108,0.77188,-0.28280,-0.85124,-0.30591,-0.31912,9.52762,-0.04648,-4.42163
0.06337,1.51271,-0.45608,-0.59994,-0.05036,0.06530,-2.04149,0.41078,3.14520,-0.88373,-4.55665,0.85591,-0.26542,-0.86111,-0.30201,-0.31118,14.99564,9.48633,-9.05978
0.05462,1.50869,-0.45471,-0.60708,-0.10442,0.07219,-2.08453,0.44267,2.97753,-0.37623,-4.75421,0.92964,-0.24730,-0.87104,-0.29290,-0.30714,3.73027,5.29528,-12.94120
0.04603,1.50312,-0.45320,-0.60887,-0.17048,0.07970,-2.35764,0.31944,2.75345,0.24537,-4.98300,0.88690,-0.22752,-0.88039,-0.27777,-0.30982,-15.47857,-9.53036,-14.59768
0.03782,1.49639,-0.45146,-0.60396,-0.24018,0.08800,-2.61828,0.13353,2.52217,0.55049,-4.97459,0.33741,-0.20774,-0.88820,-0.26126,-0.31574,-18.98537,-21.79643,-13.20593
0.03016,1.48807,-0.44967,-0.59094,-0.32099,0.09502,-2.87843,-0.08964,2.28240,1.21114,-4.96000,0.50283,-0.18824,-0.89468,-0.24310,-0.32407,-13.24968,-16.89954,-11.58596
0.02318,1.47931,-0.44812,-0.56981,-0.39216,0.09766,-3.12954,-0.34217,2.02328,1.80038,-5.03775,0.03825,-0.16939,-0.89957,-0.22324,-0.33504,-15.16475,-23.11797,-13.75213
0.01727,1.46926,-0.44676,-0.53545,-0.46905,0.09602,-3.26480,-0.56421,1.65055,2.36201,-4.49111,-0.60600,-0.15530,-0.90218,-0.20309,-0.34742,-8.80838,-21.38464,-19.01135
0.01168,1.45987,-0.44566,-0.50387,-0.51691,0.09091,-3.20342,-0.58740,1.36067,2.86659,-3.35966,-0.90811,-0.14424,-0.90485,-0.18614,-0.35468,2.57742,-11.49238,-22.48435
0.00732,1.45023,-0.44501,-0.45910,-0.55740,0.08024,-2.96263,-0.48870,1.07916,2.55130,-1.69286,-1.08889,-0.13767,-0.90713,-0.17284,-0.35818,12.75237,1.74229,-21.14869
0.00248,1.44153,-0.44448,-0.43320,-0.57299,0.07046,-2.65251,-0.34748,1.00296,2.19285,-0.89461,-0.68498,-0.12911,-0.91006,-0.16411,-0.35804,24.00065,12.57166,-9.27456
-0.00227,1.43288,-0.44418,-0.41251,-0.58383,0.05942,-2.44169,-0.29140,0.97684,1.48656,-0.77375,-0.73885,-0.11916,-0.91253,-0.15543,-0.35908,20.86015,7.49995,-5.52064
-0.00658,1.42405,-0.44443,-0.38902,-0.59491,0.04204,-2.30357,-0.31683,0.96258,1.70228,-0.49110,-1.08177,-0.10830,-0.91421,-0.14649,-0.36198,10.55085,0.00821,-0.51676
-0.01040,1.41561,-0.44504,-0.36270,-0.59737,0.02298,-2.26299,-0.35944,0.90624,2.06200,-0.02889,-1.51585,-0.09774,-0.91552,-0.13525,-0.36604,4.22432,-3.87599,-1.11473
-0.01383,1.40756,-0.44592,-0.33623,-0.59267,0.00403,-2.22161,-0.35743,0.79045,2.19042,0.72626,-1.78901,-0.08953,-0.91668,-0.12325,-0.36946,1.44740,-2.78282,-8.03867
