posX, posY, posZ, velX, velY, velZ, angVelX, angVelY, angVelZ, accX, accY, accZ, rotX, rotY, rotZ, rotW, angAccX, angAccY, angAccZ
0.19935,1.23089,-0.24068,-0.54842,0.35299,-0.30862,0.97929,0.22073,0.77819,-0.01679,0.21853,-1.68070,-0.11549,-0.89800,-0.11845,-0.40770,11.89550,4.95185,-5.60071
0.19155,1.23610,-0.24657,-0.55002,0.35656,-0.33595,1.09393,0.32796,0.70793,-0.12185,0.39272,-2.35007,-0.11727,-0.89910,-0.12844,-0.40171,7.49185,6.01757,-4.89418
0.18350,1.24153,-0.25380,-0.55593,0.36333,-0.37991,1.23841,0.61439,0.63645,-0.45868,0.33323,-2.69727,-0.12073,-0.90216,-0.13899,-0.39014,8.28044,16.12810,-3.00335
0.17533,1.24690,-0.26129,-0.56269,0.36795,-0.41873,1.21353,0.84620,0.61054,-0.43216,0.51955,-2.59678,-0.12184,-0.90573,-0.14626,-0.37869,0.41800,17.89551,-1.53129
0.16715,1.25243,-0.26890,-0.56825,0.37416,-0.44953,1.10594,1.00171,0.62077,-0.49055,0.57560,-2.19744,-0.12106,-0.90942,-0.15153,-0.36789,-7.29147,14.13430,1.48230
0.15883,1.25804,-0.27660,-0.57469,0.38042,-0.47337,0.94641,1.08991,0.65071,-0.55019,0.56596,-1.47509,-0.11866,-0.91311,-0.15495,-0.35797,-11.29167,9.82421,2.72303
0.15036,1.26387,-0.28438,-0.58159,0.38814,-0.49354,0.61844,1.02555,0.73496,-0.28989,0.45291,-0.66852,-0.11176,-0.91641,-0.15396,-0.35213,-18.59573,-2.74475,5.42781
0.14213,1.26953,-0.29169,-0.58332,0.39154,-0.50128,0.33728,0.88044,0.80414,-0.04830,0.15295,-0.45237,-0.10394,-0.91874,-0.15247,-0.34909,-23.23652,-11.93887,7.67818
0.13404,1.27508,-0.29881,-0.58237,0.39266,-0.50391,0.12552,0.77138,0.86710,0.14661,-0.02374,-0.30877,-0.09578,-0.92103,-0.15101,-0.34602,-18.39010,-11.84998,6.29220
0.12608,1.28057,-0.30565,-0.57976,0.39235,-0.50143,0.09329,0.77673,0.88786,0.24124,-0.20082,0.15820,-0.09035,-0.92356,-0.15264,-0.33996,-6.31929,-2.59649,3.04879
0.11824,1.28582,-0.31206,-0.57589,0.38832,-0.49282,0.15834,0.82021,0.87756,0.29313,-0.49558,0.77595,-0.08690,-0.92596,-0.15643,-0.33253,2.66943,2.71269,-0.31070
0.11054,1.29062,-0.31774,-0.57025,0.37759,-0.47431,0.35117,0.88504,0.83536,0.45050,-0.93466,1.32134,-0.08612,-0.92783,-0.16382,-0.32386,10.18956,4.79770,-2.28563
0.10303,1.29521,-0.32311,-0.56301,0.36548,-0.45541,0.53852,0.95365,0.77620,0.72642,-1.21484,1.79128,-0.08661,-0.92948,-0.17201,-0.31462,15.21569,6.68822,-5.23381
0.09619,1.29900,-0.32751,-0.54616,0.34289,-0.42560,0.69611,0.92793,0.69227,1.44428,-1.57912,2.19066,-0.08798,-0.93005,-0.18046,-0.30773,11.01696,1.32592,-6.08627
0.08980,1.30256,-0.33195,-0.52684,0.32326,-0.40228,0.72637,0.83111,0.61405,1.70832,-1.77053,2.03918,-0.08828,-0.93025,-0.18625,-0.30357,4.28839,-6.61315,-6.55395
0.08396,1.30537,-0.33587,-0.50320,0.29635,-0.37658,0.73627,0.71879,0.52446,1.67846,-2.16411,1.70227,-0.08908,-0.93002,-0.19145,-0.30079,0.93245,-8.47925,-6.84862
0.07850,1.30745,-0.33963,-0.47882,0.26396,-0.35386,0.74499,0.66613,0.42299,1.86206,-2.50989,1.46257,-0.09098,-0.93001,-0.19625,-0.29713,0.49168,-4.70652,-6.85293
0.07385,1.30853,-0.34304,-0.44681,0.22229,-0.33039,0.78291,0.67515,0.27322,2.12237,-2.81765,1.40749,-0.09550,-0.93006,-0.20114,-0.29226,1.99905,0.46481,-8.97326
0.06957,1.30924,-0.34628,-0.41552,0.18277,-0.30930,0.83915,0.71478,0.08937,2.29520,-2.97965,1.56308,-0.10234,-0.92998,-0.20604,-0.28673,2.92618,2.78582,-12.14968
0.06582,1.30944,-0.34901,-0.38297,0.14432,-0.28477,0.93448,0.75104,-0.10988,2.25264,-2.48430,1.84231,-0.11136,-0.92934,-0.21184,-0.28116,4.56648,3.99853,-14.74619
0.06212,1.30949,-0.35127,-0.35716,0.11220,-0.25780,1.07250,0.78659,-0.23176,1.55250,-2.03991,1.95535,-0.12008,-0.92828,-0.21975,-0.27494,8.68196,3.44155,-11.18792
0.05813,1.30944,-0.35321,-0.34185,0.08531,-0.23192,1.19088,0.81155,-0.25602,0.82140,-1.65537,1.79429,-0.12682,-0.92717,-0.22867,-0.26830,9.38859,2.06140,-3.86988
0.05386,1.30922,-0.35504,-0.33411,0.06202,-0.21001,1.24027,0.79757,-0.18704,0.56807,-1.60180,1.58938,-0.13039,-0.92626,-0.23732,-0.26214,5.99378,0.20307,3.07620
0.04971,1.30885,-0.35702,-0.32625,0.04217,-0.19538,1.18954,0.72636,-0.10536,0.82954,-1.78911,1.17925,-0.13183,-0.92556,-0.24380,-0.25793,-1.09016,-5.06498,6.81593
0.04636,1.30756,-0.35897,-0.30753,0.01198,-0.18379,0.99010,0.60775,-0.03772,1.47607,-2.13282,0.57377,-0.13129,-0.92557,-0.24587,-0.25617,-11.10901,-7.84982,5.13897
0.04373,1.30588,-0.36112,-0.28127,-0.01776,-0.17744,0.75309,0.49251,-0.04431,2.16973,-2.26142,0.49280,-0.13169,-0.92582,-0.24516,-0.25577,-16.39952,-7.72532,0.82557
0.04166,1.30399,-0.36320,-0.25286,-0.04396,-0.17104,0.58201,0.39797,-0.09003,2.43375,-2.25141,0.55489,-0.13333,-0.92576,-0.24440,-0.25584,-16.33333,-8.65685,-2.36402
0.04072,1.30122,-0.36490,-0.21308,-0.07818,-0.16000,0.41202,0.27066,-0.16679,2.46758,-2.03860,0.72717,-0.13550,-0.92538,-0.24243,-0.25795,-11.38307,-7.68232,-4.97683
0.03989,1.29846,-0.36648,-0.17959,-0.10489,-0.14961,0.29113,0.15260,-0.22569,2.37615,-1.79588,0.71104,-0.13760,-0.92473,-0.24098,-0.26051,-9.53667,-8.26925,-4.23278
0.03923,1.29576,-0.36808,-0.15134,-0.12450,-0.14211,0.22501,0.09560,-0.28862,2.29784,-1.52874,0.30662,-0.14070,-0.92407,-0.24002,-0.26210,-7.33257,-6.88611,-4.80355
0.03929,1.29281,-0.36982,-0.11853,-0.14327,-0.13841,0.19828,0.16834,-0.38472,2.32827,-1.21826,-0.07518,-0.14630,-0.92395,-0.23888,-0.26047,-2.86716,2.61958,-6.14997
0.04049,1.28985,-0.37158,-0.07386,-0.15856,-0.13576,0.23438,0.38272,-0.56845,2.53938,-0.47434,0.32122,-0.15667,-0.92412,-0.23787,-0.25470,2.94325,12.64071,-10.18738
0.04133,1.28752,-0.37322,-0.04473,-0.16081,-0.13147,0.21016,0.41951,-0.66390,2.41860,0.08563,0.78132,-0.16422,-0.92379,-0.23632,-0.25259,0.15196,8.04272,-9.18410
0.04270,1.28567,-0.37447,-0.01400,-0.15494,-0.12203,0.11436,0.29888,-0.73330,2.14917,0.81378,0.99328,-0.16992,-0.92284,-0.23322,-0.25516,-5.98201,-5.14782,-5.62964
0.04442,1.28472,-0.37536,0.01578,-0.13568,-0.10881,-0.02469,0.07541,-0.79305,1.58741,1.62675,0.83709,-0.17428,-0.92125,-0.22884,-0.26185,-10.07395,-13.94184,-3.90241
0.04563,1.28421,-0.37616,0.03107,-0.11376,-0.09736,-0.04796,-0.02949,-0.82601,0.91664,2.21182,0.77238,-0.17941,-0.91958,-0.22668,-0.26608,-5.97132,-11.24623,-3.23584
0.04652,1.28459,-0.37671,0.03758,-0.08345,-0.08490,0.07496,-0.01886,-0.82465,0.10469,3.04595,0.66301,-0.18561,-0.91773,-0.22842,-0.26673,3.52968,-3.98686,-1.39362
0.04656,1.28674,-0.37683,0.02936,-0.03235,-0.06841,0.46997,0.19265,-0.71884,-0.93996,3.53998,0.85518,-0.19275,-0.91585,-0.23875,-0.25896,23.18641,10.38172,5.44333
0.04596,1.28947,-0.37688,0.01305,0.01741,-0.05425,0.92551,0.42177,-0.54973,-1.26129,3.73395,0.83864,-0.19901,-0.91362,-0.25356,-0.24778,32.25731,14.15287,10.78570
0.04512,1.29248,-0.37712,-0.00298,0.05980,-0.04627,1.29513,0.62549,-0.37611,-1.30939,3.38547,0.57908,-0.20426,-0.91136,-0.26907,-0.23516,33.86662,14.71595,13.95705
0.04416,1.29660,-0.37738,-0.01720,0.11008,-0.04036,1.67099,0.83512,-0.18608,-0.48151,2.82584,0.35787,-0.20891,-0.90861,-0.28716,-0.21983,26.39003,12.52725,13.12974
0.04395,1.30056,-0.37793,-0.01667,0.14734,-0.04020,1.85397,0.93860,-0.10901,0.47232,2.33226,0.10494,-0.21423,-0.90560,-0.30150,-0.20757,16.31465,7.91970,7.24633
0.04452,1.30466,-0.37851,-0.00400,0.17868,-0.04047,1.94244,1.00193,-0.11780,1.11498,2.11212,-0.04118,-0.22091,-0.90229,-0.31366,-0.19672,5.94163,4.07438,1.00949
0.04565,1.30917,-0.37910,0.01466,0.21019,-0.04071,2.10425,1.14788,-0.14941,1.39919,2.37368,-0.11021,-0.22972,-0.89811,-0.32751,-0.18265,10.55934,7.96566,-2.03290
0.04719,1.31441,-0.37954,0.03559,0.24619,-0.03859,2.18247,1.24903,-0.14240,1.73892,2.95515,0.74908,-0.23720,-0.89416,-0.34021,-0.16872,9.26185,11.63056,-0.14733
0.04898,1.32078,-0.37953,0.05578,0.29226,-0.03007,2.11414,1.15483,-0.01686,1.66758,3.73226,1.10700,-0.23873,-0.89119,-0.35116,-0.15961,-0.82999,-4.09397,5.88959
0.05159,1.32909,-0.37896,0.08513,0.35980,-0.01394,1.80340,0.84169,0.18484,2.20859,4.65390,1.41455,-0.23347,-0.89045,-0.35721,-0.15808,-17.46380,-19.63825,11.84791
0.05472,1.33841,-0.37800,0.11639,0.42940,0.00481,1.57859,0.54041,0.32264,2.20563,5.45252,1.07090,-0.22825,-0.88906,-0.36392,-0.15824,-18.72142,-25.40616,9.34180
0.05846,1.34943,-0.37668,0.15039,0.51076,0.02520,1.58593,0.43210,0.36378,2.28909,6.42514,1.31120,-0.22703,-0.88577,-0.37427,-0.15423,-4.37028,-12.52165,3.89699
0.06255,1.36244,-0.37470,0.18265,0.60613,0.05183,1.82704,0.41006,0.35591,2.24428,7.59926,2.03628,-0.22880,-0.87958,-0.39033,-0.14707,13.54280,-1.01097,-1.21643
0.06695,1.37780,-0.37209,0.21249,0.71780,0.08240,2.11227,0.40324,0.32323,1.78869,8.01123,2.21387,-0.23172,-0.87164,-0.40890,-0.13911,23.74544,-1.42332,-0.12880
0.07105,1.39532,-0.36884,0.23085,0.83935,0.11648,2.40440,0.34558,0.37308,1.52988,10.05796,2.68005,-0.23236,-0.86259,-0.42979,-0.13124,19.64140,-2.96618,-5.23541
0.07522,1.41608,-0.36483,0.24658,0.98545,0.15533,2.58239,0.30334,0.54953,0.57937,10.59519,3.28838,-0.22872,-0.85466,-0.44990,-0.12178,15.90670,-2.34424,13.99947
0.07818,1.43915,-0.35974,0.23910,1.13563,0.20290,2.71444,0.14529,0.71702,-1.53704,11.36629,3.75477,-0.22257,-0.84607,-0.47043,-0.11543,6.77878,-12.15966,8.09423
0.07930,1.46488,-0.35323,0.20359,1.29525,0.26254,3.08975,0.13478,0.99972,-3.60275,12.02836,4.37219,-0.21451,-0.83430,-0.49752,-0.10199,21.96577,-7.28016,16.24440
0.07820,1.49285,-0.34533,0.14085,1.45594,0.33183,3.64902,0.26305,1.40473,-5.41959,11.55129,5.07059,-0.20395,-0.81884,-0.53056,-0.08005,37.67170,4.97318,27.70589
0.07552,1.52135,-0.33701,0.06798,1.58673,0.39111,4.14213,0.42635,1.82540,-6.71458,10.60832,4.67522,-0.19115,-0.80142,-0.56416,-0.05401,42.89451,6.32446,34.03032
0.06934,1.55364,-0.32700,-0.04392,1.74850,0.46409,4.72459,0.78814,2.40863,-7.62319,9.55989,4.50519,-0.17508,-0.78031,-0.60017,-0.01615,36.30914,15.74391,40.79711
0.06183,1.58575,-0.31689,-0.15397,1.87470,0.52425,4.98162,1.05485,2.91921,-7.89804,8.32231,4.57396,-0.15690,-0.76058,-0.62966,0.02092,25.80932,15.09993,40.34777
0.05347,1.61774,-0.30655,-0.25157,1.96863,0.57376,5.03279,1.13849,3.21941,-8.52665,6.78914,3.98440,-0.13864,-0.74127,-0.65464,0.05240,8.17644,0.16988,33.64090
0.04100,1.65165,-0.29495,-0.39235,2.07172,0.63128,4.91128,1.33060,3.54874,-9.34374,6.03099,3.41827,-0.11999,-0.72399,-0.67361,0.08772,-4.26863,1.80996,21.59665
0.02576,1.68569,-0.28269,-0.55100,2.15677,0.68890,4.51850,1.51369,4.00204,-10.70688,4.08393,4.07469,-0.09762,-0.71176,-0.68411,0.12590,-19.73425,1.54090,31.71782
0.01102,1.71780,-0.27056,-0.66358,2.19085,0.73030,4.11541,1.42033,4.30557,-11.37589,2.28990,4.80506,-0.07218,-0.70068,-0.69221,0.15712,-28.76549,-16.16629,31.90990
-0.01162,1.74874,-0.25500,-0.87725,2.19878,0.81856,3.22703,0.69754,4.67702,-11.47906,-2.03174,5.51775,-0.03203,-0.70280,-0.68907,0.17388,-33.68624,-51.48974,16.23830
-0.03210,1.77695,-0.23984,-1.01146,2.16245,0.88205,2.62679,-0.10657,4.69838,-10.28511,-4.40196,5.59127,0.00643,-0.70241,-0.68851,0.18034,-30.84916,-76.17369,-3.83199
-0.05531,1.80115,-0.22263,-1.15919,2.06891,0.96459,2.01729,-1.17109,4.46444,-8.47461,-7.34406,4.63180,0.04768,-0.70583,-0.68567,0.17146,-18.24074,-76.19533,-25.01381
-0.07744,1.82278,-0.20565,-1.25682,1.95173,1.02478,1.75840,-1.78456,4.14879,-6.24690,-8.92627,3.79739,0.08237,-0.70340,-0.68629,0.16570,-8.38722,-53.83081,-27.59588
-0.09902,1.84170,-0.18870,-1.32536,1.81981,1.07229,1.75669,-1.84723,3.90675,-4.95130,-9.47931,2.46694,0.10916,-0.69500,-0.69027,0.16907,5.51552,-13.60309,-25.26362
-0.12003,1.85950,-0.17204,-1.36786,1.70042,1.10269,1.74439,-1.56855,3.91224,-3.08767,-10.35880,2.21284,0.13318,-0.68478,-0.69248,0.18387,-4.07635,17.03335,-2.31344
-0.14107,1.87229,-0.15457,-1.39886,1.52779,1.13618,1.70494,-1.42865,3.74666,-0.22057,-11.56032,2.22864,0.15466,-0.67539,-0.69454,0.19377,-6.02788,15.80238,-2.24358
-0.16074,1.88370,-0.13729,-1.40004,1.36755,1.15864,1.66443,-1.75607,3.21482,1.31818,-12.02925,1.58460,0.17668,-0.66908,-0.69763,0.18554,3.82500,-12.23475,-33.83112
-0.17915,1.89387,-0.12036,-1.38189,1.22570,1.17085,1.70539,-2.29929,2.50136,2.73564,-12.07962,1.04934,0.19870,-0.66350,-0.70245,0.16385,13.29316,-30.87343,-53.55953
-0.19540,1.89920,-0.10390,-1.33284,1.03982,1.17298,1.95576,-3.13602,1.30287,3.96980,-11.24284,-0.46310,0.21686,-0.65691,-0.71238,0.11813,33.78278,-41.84962,-75.49068
-0.20982,1.90453,-0.08815,-1.26465,0.89297,1.16346,2.29526,-3.52278,0.34757,5.01994,-9.59002,-1.53900,0.22962,-0.64545,-0.72443,0.07663,39.45749,-29.68187,-72.55017
-0.22260,1.91001,-0.07303,-1.18717,0.78274,1.14612,2.53734,-3.08981,0.01378,5.80571,-7.90898,-2.88228,0.23471,-0.62992,-0.73798,0.05910,35.80710,15.75696,-40.99139
-0.23194,1.91465,-0.05856,-1.07342,0.68543,1.12340,2.49131,-1.71902,0.29248,8.66115,-5.68988,-2.30102,0.22713,-0.61423,-0.75180,0.07700,0.92705,78.97191,25.84518
-0.23690,1.91931,-0.04442,-0.91403,0.60844,1.10022,2.20383,0.26047,0.68777,10.62344,-4.41853,-1.43290,0.20141,-0.59999,-0.76506,0.11887,-22.22143,119.87740,44.25966
-0.23965,1.92372,-0.03074,-0.74971,0.54214,1.07250,1.93671,1.90079,0.88265,10.78559,-4.46302,-1.55113,0.17067,-0.58533,-0.77658,0.15868,-21.36270,105.20460,32.14708
-0.24290,1.92797,-0.01730,-0.63117,0.48860,1.04657,1.85989,2.70601,0.72237,10.30852,-4.97737,-1.87929,0.14422,-0.57028,-0.78814,0.18116,-14.40383,81.05036,10.40093
-0.24420,1.93060,-0.00523,-0.51015,0.42192,1.00451,1.83235,2.95574,0.02993,9.01392,-5.39637,-2.88772,0.11526,-0.55877,-0.80058,0.18323,-8.88215,38.08208,-30.72783
-0.24447,1.93145,0.00525,-0.39825,0.34055,0.94510,1.81232,2.48291,-1.43726,6.51036,-5.40980,-3.63845,0.08510,-0.55443,-0.81396,0.15108,-16.02867,-12.77869,-88.40486
-0.24630,1.93230,0.01575,-0.33740,0.27824,0.89897,1.68970,1.94803,-2.51885,3.68671,-4.95483,-4.10682,0.05976,-0.55193,-0.82356,0.11639,-24.71190,-31.18015,-102.88470
-0.24859,1.93204,0.02543,-0.29910,0.21412,0.85189,1.41707,1.57670,-3.08891,1.41693,-4.98405,-4.45166,0.03760,-0.55199,-0.82829,0.08846,-32.53257,-27.53266,-68.50937
-0.25174,1.92886,0.03314,-0.28444,0.11561,0.78326,0.94957,1.45510,-2.80854,-1.42416,-4.81025,-3.46144,0.02337,-0.55562,-0.82707,0.08185,-25.96096,-3.85904,10.39044
-0.25714,1.92568,0.04189,-0.30960,0.03586,0.74611,0.69769,1.40919,-2.03636,-2.64424,-6.39807,-1.63002,0.01819,-0.55513,-0.82668,0.08998,-18.01914,1.36940,55.65454
-0.26394,1.92096,0.05109,-0.35093,-0.04936,0.72587,0.71878,0.98813,-1.73832,-2.70272,-8.34064,-0.64198,0.01842,-0.55122,-0.82990,0.08417,-4.13914,-18.93099,47.70222
-0.27283,1.91264,0.06034,-0.41658,-0.17408,0.71084,0.88687,-0.21757,-2.34261,-3.97746,-8.12318,-0.25710,0.02668,-0.54703,-0.83564,0.04183,-1.83713,-72.68579,-37.92980
-0.28226,1.90353,0.07024,-0.47717,-0.28451,0.70964,1.19924,-1.02764,-2.46411,-5.70967,-6.64101,-0.62171,0.03797,-0.53649,-0.84300,0.00929,10.84949,-68.61118,-33.69269
-0.29213,1.89477,0.07945,-0.52977,-0.36235,0.69808,1.48108,-1.35470,-2.06523,-4.55855,-4.99108,-2.09919,0.05068,-0.52313,-0.85073,-0.00537,17.11699,-43.37389,22.71342
-0.30265,1.88687,0.08749,-0.58033,-0.40679,0.67012,1.70984,-1.15242,-0.90843,-4.87792,0.09775,-3.12778,0.06614,-0.50764,-0.85898,0.00928,15.80959,-9.52316,56.80634
-0.31377,1.88223,0.09373,-0.63009,-0.38786,0.61743,1.52952,-0.47685,1.21492,-0.70492,1.19325,-3.45386,0.08759,-0.49790,-0.86032,0.06532,-13.30348,30.65272,141.53360
-0.32415,1.87911,0.09946,-0.65775,-0.34905,0.56830,1.12439,-0.44013,1.56051,-1.55925,1.85711,-3.17284,0.09925,-0.49750,-0.85801,0.08037,-30.27522,5.26294,40.63886
-0.33525,1.87585,0.10476,-0.69106,-0.32250,0.52388,0.77429,-0.79043,1.25107,-2.25244,1.16705,-3.31513,0.11140,-0.50025,-0.85538,0.07527,-27.76934,-16.93552,-5.15210
-0.34878,1.87266,0.10850,-0.75780,-0.30161,0.46348,0.44513,-1.75360,0.24049,-5.27698,0.50519,-3.51885,0.12889,-0.50763,-0.85095,0.03975,-16.57921,-55.32668,-69.03234
-0.36493,1.86916,0.11198,-0.84052,-0.30417,0.40949,0.46539,-2.82727,-0.70713,-5.91554,-0.89856,-3.63634,0.15247,-0.50808,-0.84769,-0.00542,2.49352,-72.50643,-66.71218
-0.38369,1.86681,0.11556,-0.92117,-0.31349,0.36527,0.73578,-3.56045,-1.14319,-7.47395,-0.37780,-4.07663,0.17841,-0.50013,-0.84623,-0.04387,24.99877,-72.56561,-62.88287
-0.40442,1.86398,0.11810,-1.01048,-0.33438,0.31661,1.27051,-3.82009,-0.44317,-5.81567,-1.28286,-4.49089,0.21287,-0.47948,-0.84972,-0.05251,25.81730,-34.09182,35.62973
-0.42335,1.85938,0.11839,-1.07571,-0.35064,0.24567,1.78576,-3.68805,0.68610,-2.26199,-0.72810,-5.38701,0.24730,-0.45268,-0.85570,-0.04113,18.16482,-0.74736,83.64490
-0.43949,1.85487,0.11785,-1.09471,-0.34402,0.17967,2.02565,-3.69908,0.88789,0.49064,0.22591,-5.34341,0.27406,-0.43218,-0.85782,-0.04747,8.10502,1.95398,51.77486
-0.45481,1.85214,0.11529,-1.09565,-0.30989,0.09661,2.28073,-3.95236,0.38124,0.38640,3.50861,-6.61000,0.29685,-0.41255,-0.85790,-0.07546,30.87475,-11.68090,-30.18967
-0.46923,1.85176,0.11080,-1.08169,-0.24477,0.00093,2.12029,-3.94961,0.62339,0.68799,7.45643,-8.10633,0.32355,-0.39826,-0.85434,-0.08253,5.43844,-5.76755,-7.96870
-0.48223,1.85492,0.10489,-1.04762,-0.13685,-0.09582,1.46644,-3.82623,1.19642,3.66433,8.15139,-6.58535,0.35325,-0.39525,-0.84481,-0.07282,-57.50439,2.17990,39.35207
-0.49417,1.85951,0.09890,-1.00499,-0.03232,-0.17057,1.15526,-3.83215,1.21718,4.43764,8.36450,-5.63563,0.37918,-0.38991,-0.83565,-0.07667,-40.89241,-0.26441,5.95273
-0.50406,1.86762,0.09008,-0.93906,0.10468,-0.27394,0.57674,-4.11192,0.87032,4.39424,7.71981,-5.65701,0.40759,-0.39590,-0.81788,-0.09064,-37.06939,-18.05632,-34.42518
-0.51286,1.87508,0.08087,-0.86902,0.20208,-0.36187,0.50260,-4.45571,0.45060,6.04575,6.04761,-5.98293,0.43608,-0.39242,-0.80191,-0.11305,-1.01232,-22.44553,-31.44407
-0.51803,1.88316,0.07050,-0.75340,0.28874,-0.44974,0.74655,-4.77929,-0.22110,8.65590,4.50295,-4.92736,0.46034,-0.38429,-0.78656,-0.14742,22.53783,-20.05126,-34.92578
-0.52173,1.88995,0.06090,-0.64068,0.33428,-0.50469,1.05759,-4.90138,-0.62132,10.20650,3.28679,-4.41817,0.48174,-0.37186,-0.77311,-0.17876,37.64328,-14.06149,-34.26578
-0.51927,1.89671,0.05029,-0.45188,0.36868,-0.56373,1.16145,-4.74348,-0.48489,12.83487,2.36335,-3.95117,0.50253,-0.35825,-0.76231,-0.19495,14.52853,5.10330,4.59880
-0.51547,1.90289,0.04037,-0.28495,0.38582,-0.59785,0.98168,-4.44871,-0.10198,14.88930,1.26796,-2.65195,0.52342,-0.34836,-0.75186,-0.19847,-21.60105,19.20507,25.75016
-0.50580,1.90910,0.03023,-0.06320,0.39942,-0.62704,0.65855,-4.01502,0.43711,17.16625,1.18323,-1.64197,0.54299,-0.34035,-0.74355,-0.19094,-29.97432,26.88338,32.81396
-0.49149,1.91612,0.02086,0.18339,0.42343,-0.63694,0.21464,-3.45424,0.86323,18.66309,2.39715,-0.19571,0.55823,-0.33770,-0.73672,-0.17772,-38.94925,35.90812,27.13662
-0.47263,1.92534,0.01236,0.44792,0.47816,-0.63073,-0.21285,-2.91267,0.93158,20.13644,5.15036,1.43282,0.56844,-0.34122,-0.72955,-0.16793,-38.09560,37.95324,9.84110
-0.45148,1.93747,0.00500,0.68556,0.56577,-0.60782,-0.17647,-2.52071,0.39818,21.31062,7.80243,3.37963,0.57078,-0.34537,-0.72333,-0.17810,-14.24519,33.95634,-29.01425
-0.41934,1.95572,-0.00037,1.04647,0.73201,-0.55811,0.09073,-1.82037,-0.77969,25.01930,12.84374,3.10620,0.55414,-0.35800,-0.72266,-0.20623,38.49712,38.95470,-65.32437
-0.38244,1.97794,-0.00388,1.40789,0.92717,-0.48883,-0.35418,-0.80538,-1.73544,29.39165,16.64217,3.78667,0.52979,-0.38886,-0.72119,-0.21908,-1.93786,56.34138,-68.67926
-0.33582,2.00523,-0.00525,1.84497,1.15952,-0.40054,-1.94735,0.90572,-2.98687,34.23603,17.49580,6.59521,0.48318,-0.46067,-0.71387,-0.21143,-84.27390,116.33540,-98.90137
-0.27864,2.03524,-0.00450,2.35485,1.38268,-0.29868,-3.29629,3.13132,-4.61867,40.85670,13.17786,7.49417,0.40332,-0.54582,-0.70601,-0.20240,-89.53020,159.94600,-112.25980
-0.21303,2.06268,-0.00416,2.86624,1.51516,-0.22343,-3.61991,5.19732,-6.78989,47.49005,5.99361,7.23583,0.29129,-0.62203,-0.69387,-0.21627,-42.47624,152.73790,-176.16210
-0.12564,2.08354,-0.00571,3.54160,1.53976,-0.17068,-4.36665,7.44759,-10.04249,49.60328,-4.76212,-0.27647,0.13072,-0.71298,-0.64531,-0.24113,-70.91169,100.10910,-264.53540
-0.01637,2.07574,-0.01782,4.43839,1.11736,-0.29511,-3.49138,11.66964,-12.21361,60.62655,-46.77382,-22.46796,-0.09261,-0.74826,-0.61873,-0.22070,85.68967,121.21690,-218.11560
0.08949,2.03887,-0.04418,5.13416,0.28136,-0.64714,-2.43608,15.60492,-13.77198,38.63810,-73.21800,-28.64701,-0.32427,-0.73960,-0.56474,-0.17005,91.93257,211.44010,-262.89860
0.18148,1.95653,-0.09069,5.44723,-1.14144,-1.26324,0.50727,18.44452,-14.94469,-3.74738,-100.73250,-43.55334,-0.54232,-0.65340,-0.51495,-0.11741,58.34810,70.77605,-244.77450
0.23992,1.86336,-0.14167,5.15038,-2.40357,-1.80511,3.81287,19.02179,-15.37556,-44.84855,-105.38230,-42.37952,-0.70164,-0.52548,-0.47549,-0.07407,53.75747,-36.78192,-272.85110
0.25521,1.74644,-0.20179,4.22904,-3.73628,-2.36428,7.02491,17.46068,-16.56150,-82.89693,-83.25903,-33.03875,-0.81891,-0.35894,-0.44216,-0.07109,-102.73540,-101.63580,-261.45320
0.23327,1.64063,-0.25806,2.90980,-4.58640,-2.73758,6.51616,14.60416,-18.08689,-102.52810,-42.41995,-16.31227,-0.88913,-0.23692,-0.37053,-0.12657,-221.83600,-9.36694,-72.43391
0.19700,1.55941,-0.30309,1.68791,-4.84779,-2.83937,3.92042,12.66412,-18.20273,-99.63235,-3.77662,0.66517,-0.92871,-0.17061,-0.27188,-0.18568,-224.58170,117.17940,135.46070
0.13035,1.50220,-0.33032,0.26795,-4.66958,-2.63810,1.21001,10.91843,-16.32482,-75.62789,25.46615,22.70163,-0.94035,-0.15313,-0.19438,-0.23347,-90.66307,43.67204,203.25720
0.07852,1.46235,-0.34255,-0.62291,-4.25634,-2.24769,0.03716,9.42276,-13.81753,-53.01378,34.84100,30.90736,-0.94596,-0.14126,-0.14638,-0.25254,-29.01158,-22.20692,245.13570
0.03528,1.42859,-0.34901,-1.16764,-3.84583,-1.85852,-0.66663,8.22226,-12.24293,-39.71539,35.62517,33.79414,-0.94999,-0.11418,-0.10023,-0.27284,-31.86904,-74.09914,174.71860
-0.01159,1.41268,-0.34111,-1.64287,-3.25047,-1.32886,-1.17292,6.76874,-11.08752,-20.42607,41.34453,32.27023,-0.94840,-0.08086,-0.06803,-0.29896,-51.45197,-38.51974,111.49680
-0.04544,1.40426,-0.33247,-1.81336,-2.66222,-0.89825,-0.95385,5.38849,-10.65833,-3.00662,46.20813,28.60537,-0.94854,-0.02393,-0.04435,-0.31261,-46.77383,-83.29588,58.41600
-0.06306,1.40596,-0.32255,-1.68582,-2.04591,-0.54358,-0.57612,3.11550,-9.95248,21.67566,40.95957,21.51666,-0.94332,0.03463,-0.05928,-0.32471,-49.29905,-128.79100,33.72134
-0.06064,1.41056,-0.31363,-1.26719,-1.52625,-0.28071,-1.77804,0.61685,-8.45172,43.95083,25.69279,15.39813,-0.91962,0.06457,-0.09681,-0.37518,-140.52510,-113.33390,64.76308
-0.03613,1.41330,-0.30933,-0.59463,-1.15077,-0.14981,-1.77141,-1.05930,-3.63529,48.73976,26.74336,6.94303,-0.90889,-0.01005,-0.17182,-0.37988,-69.34929,-104.39610,385.38200
0.00059,1.41855,-0.30869,0.11962,-0.81763,-0.10524,-2.20630,-1.28398,0.92045,47.35537,22.73879,2.99286,-0.88810,-0.11872,-0.22197,-0.38460,-71.45561,-13.80667,302.92830
0.04324,1.42931,-0.30830,0.77751,-0.46421,-0.07445,-2.62369,-0.33096,5.45107,32.41541,23.74327,2.92514,-0.85374,-0.26426,-0.24691,-0.37461,-61.60611,95.96102,289.79170
0.07435,1.44211,-0.30606,1.10826,-0.15249,-0.01975,-2.81998,0.21578,8.00557,16.01197,22.89785,4.36765,-0.81121,-0.37458,-0.26540,-0.36222,-49.17219,69.55534,206.45970
0.09700,1.45691,-0.30152,1.22464,0.12201,0.05974,-2.99268,0.20322,9.29676,1.41600,19.23403,6.33202,-0.76314,-0.45810,-0.28709,-0.35403,-14.35635,21.01129,112.83210
0.11033,1.47336,-0.29504,1.16371,0.35838,0.15351,-3.74398,-0.10478,8.92275,-10.43785,15.59395,7.79671,-0.71778,-0.50674,-0.29718,-0.37376,-19.88645,-18.77287,33.50687
0.11767,1.48995,-0.28717,1.02281,0.54344,0.24806,-4.41887,-0.72808,8.51092,-10.63734,11.09456,5.92511,-0.66685,-0.54531,-0.31199,-0.40076,-30.57600,-92.21658,-42.91582
0.12208,1.50524,-0.27983,0.86440,0.66731,0.31163,-4.55825,-1.44480,8.24355,-12.23283,8.22237,2.70877,-0.61526,-0.57796,-0.33468,-0.41882,11.02541,-57.46429,-5.12874
0.12329,1.52028,-0.27505,0.68961,0.75670,0.31928,-4.40835,-1.86301,8.07651,-13.36684,4.92241,-1.34488,-0.56518,-0.60883,-0.35616,-0.42784,30.21894,-31.53323,1.63775
0.12184,1.53380,-0.27372,0.51191,0.80184,0.26977,-4.16491,-1.87470,7.87278,-13.11335,1.55198,-5.20412,-0.51926,-0.63911,-0.37027,-0.42990,16.99526,-1.03984,-9.84861
0.11788,1.54460,-0.27549,0.33296,0.79232,0.18019,-3.75455,-1.72388,7.47557,-13.28769,-2.82741,-7.85937,-0.48138,-0.66370,-0.38126,-0.42711,22.41763,14.87564,-23.00326
0.11343,1.55189,-0.27906,0.18965,0.72858,0.08324,-3.17338,-1.47015,6.87388,-11.28945,-7.39190,-8.65189,-0.45419,-0.68157,-0.39060,-0.42026,33.71730,24.33587,-42.07430
0.10760,1.55383,-0.28516,0.05913,0.59569,-0.03009,-2.12259,-1.13035,5.99591,-7.82394,-10.77810,-8.64525,-0.44598,-0.68833,-0.40380,-0.40528,54.10084,39.90159,-63.32906
0.10103,1.55025,-0.29236,-0.05780,0.40443,-0.13767,-1.24669,-1.05095,4.93446,-7.43806,-14.93019,-1.27131,-0.44476,-0.68599,-0.41822,-0.39585,93.79043,60.61133,-52.62404
0.09462,1.54678,-0.29702,-0.14498,0.25746,-0.18253,-1.19307,-0.94048,3.96132,-6.18983,-11.13276,-5.47502,-0.43737,-0.68856,-0.41695,-0.40093,-24.54241,-41.19181,-91.19495
0.08859,1.54082,-0.30145,-0.20470,0.10844,-0.21249,-0.59255,-0.68514,3.20223,-3.71639,-13.05633,-1.79967,-0.44072,-0.68653,-0.42448,-0.39275,52.00993,30.78514,-61.18554
0.08219,1.52797,-0.30662,-0.25750,-0.11823,-0.24855,-0.43974,-0.25295,1.71785,-2.02043,-13.16265,-0.91666,-0.46177,-0.67814,-0.41175,-0.39669,18.20973,18.34710,-79.93412
0.07840,1.51641,-0.31210,-0.25837,-0.27985,-0.28270,-0.94086,0.29036,0.47873,1.45870,-10.58207,-3.13492,-0.47780,-0.67877,-0.38139,-0.40684,-43.80973,32.35593,-95.41041
0.07620,1.50517,-0.31798,-0.23433,-0.39741,-0.31471,-0.91722,0.80771,-0.23290,3.21879,-8.13394,-3.36324,-0.49513,-0.67879,-0.36045,-0.40518,-17.87888,35.50142,-75.32547
0.07526,1.49271,-0.32547,-0.19533,-0.50883,-0.36735,-0.38417,1.63135,-0.39112,2.04640,-3.59197,-3.31309,-0.51558,-0.68327,-0.34830,-0.38211,27.82896,45.72813,-18.54215
0.07290,1.48428,-0.33254,-0.18686,-0.53233,-0.40254,-0.04644,2.01670,0.12796,0.80340,0.23940,-1.16919,-0.51837,-0.69521,-0.34650,-0.35765,33.89710,35.47958,22.40722
0.06970,1.47839,-0.33863,-0.19509,-0.50859,-0.41264,-0.13552,2.10791,0.85551,-0.92649,3.02689,0.76145,-0.50734,-0.71352,-0.34465,-0.33870,15.73211,12.40435,50.72353
0.06536,1.47520,-0.34316,-0.21954,-0.44717,-0.39430,-0.68544,2.00085,1.93535,-1.19390,5.06822,2.96888,-0.47659,-0.74259,-0.34066,-0.32460,-25.00254,-0.83494,76.27976
0.06061,1.47290,-0.34550,-0.24477,-0.38672,-0.34605,-1.28879,1.66123,2.93079,-2.57688,2.92904,4.04992,-0.43604,-0.77184,-0.33763,-0.31644,-30.41279,-21.74556,89.35648
0.05529,1.46929,-0.34656,-0.27398,-0.36028,-0.28766,-1.87669,1.20947,3.41262,-2.55834,0.59263,4.30840,-0.39804,-0.79475,-0.33057,-0.31729,-30.57854,-33.05805,49.55052
0.04946,1.46420,-0.34702,-0.30513,-0.36310,-0.23165,-2.45792,0.76575,3.57536,-2.68187,-1.22666,3.67011,-0.36205,-0.81380,-0.31879,-0.32407,-32.46971,-38.51268,25.39056
