posX, posY, posZ, velX, velY, velZ, angVelX, angVelY, angVelZ, accX, accY, accZ, rotX, rotY, rotZ, rotW, angAccX, angAccY, angAccZ
-0.05313,1.41759,-0.36776,-0.02421,-0.02083,-0.00706,-0.33915,-0.35920,-0.02855,0.89843,-0.65445,-0.42389,0.07952,-0.91940,-0.19667,-0.33121,12.33348,14.37607,-11.39346
-0.05252,1.41677,-0.36798,-0.00886,-0.02904,-0.00889,-0.11246,-0.04928,-0.25260,0.98172,-0.37162,0.17236,0.07023,-0.92128,-0.19907,-0.32661,14.84017,20.65948,-14.43835
-0.05184,1.41605,-0.36793,0.00454,-0.03416,-0.00587,0.05868,0.08162,-0.40889,0.93558,-0.29649,0.56378,0.06217,-0.92201,-0.20120,-0.32487,12.87108,12.31828,-12.24069
-0.05113,1.41531,-0.36766,0.01520,-0.03816,-0.00017,0.19404,0.10423,-0.52067,0.86476,-0.27300,0.61572,0.05468,-0.92187,-0.20340,-0.32525,11.54545,3.13553,-9.41382
-0.05021,1.41463,-0.36717,0.02680,-0.04037,0.00796,0.35707,0.07278,-0.63584,0.51407,0.07023,0.46647,0.04610,-0.92086,-0.20683,-0.32728,10.29416,-2.19127,-8.35762
-0.04966,1.41408,-0.36681,0.02925,-0.03985,0.01244,0.49934,0.07920,-0.69973,-0.06219,0.11981,0.01443,0.03791,-0.91992,-0.21095,-0.32835,10.01201,-1.86885,-5.44624
-0.04939,1.41369,-0.36667,0.02659,-0.03673,0.01206,0.62997,0.15893,-0.72775,-0.32697,0.55114,-0.26667,0.02964,-0.91947,-0.21603,-0.32716,10.91622,4.48519,-3.04113
-0.04951,1.41376,-0.36688,0.01834,-0.02698,0.00612,0.72351,0.21899,-0.69716,-0.85843,0.95094,-0.50307,0.02277,-0.91893,-0.22151,-0.32555,9.00772,5.81897,0.47605
-0.05023,1.41412,-0.36758,0.00217,-0.01482,-0.00669,0.74647,0.24009,-0.59155,-1.35831,1.00104,-1.25182,0.01895,-0.91834,-0.22634,-0.32413,2.43448,-0.03087,6.58494
-0.05146,1.41475,-0.36882,-0.01855,-0.00119,-0.02524,0.76159,0.36616,-0.47745,-1.54592,1.04092,-1.57103,0.01537,-0.91879,-0.23153,-0.31935,1.23372,6.47644,8.38496
-0.05317,1.41582,-0.37069,-0.04242,0.01677,-0.05024,0.77240,0.55846,-0.34231,-1.45518,1.19000,-1.63781,0.01243,-0.92005,-0.23722,-0.31157,1.54935,11.89417,9.03467
-0.05478,1.41692,-0.37258,-0.05916,0.03112,-0.06994,0.73731,0.67148,-0.24880,-1.35183,1.18382,-1.42819,0.00982,-0.92125,-0.24153,-0.30473,-0.35609,11.86752,8.69798
-0.05673,1.41851,-0.37512,-0.07760,0.05032,-0.09581,0.59042,0.60328,-0.13693,-0.95666,1.35177,-1.40914,0.01055,-0.92187,-0.24279,-0.30182,-8.34136,-2.70297,8.03820
-0.05844,1.42046,-0.37771,-0.08809,0.07123,-0.11698,0.42450,0.42835,-0.08295,-0.69119,1.51542,-1.36866,0.01169,-0.92176,-0.24222,-0.30256,-10.68894,-10.22846,4.60763
-0.06012,1.42259,-0.38045,-0.09561,0.09006,-0.13527,0.25325,0.19920,-0.06533,-0.60490,1.63080,-1.53684,0.01330,-0.92110,-0.24005,-0.30623,-14.08474,-17.48037,1.96554
-0.06202,1.42544,-0.38365,-0.10483,0.11586,-0.15660,0.15246,0.07303,-0.06979,-0.84785,2.02371,-1.97056,0.01388,-0.92063,-0.23849,-0.30883,-10.63323,-15.50532,0.45856
-0.06454,1.42920,-0.38698,-0.12235,0.15134,-0.17534,0.24363,0.19309,-0.06617,-1.31070,2.36129,-0.82088,0.01138,-0.92101,-0.24187,-0.30514,3.93439,7.77705,-0.25965
-0.06722,1.43319,-0.38969,-0.13834,0.18241,-0.17971,0.43942,0.25320,-0.03051,-1.22915,2.98920,-0.08272,0.00885,-0.92010,-0.24911,-0.30213,11.66111,6.18390,1.75170
-0.06984,1.43858,-0.39199,-0.14944,0.22867,-0.17669,0.77311,0.23632,-0.05387,-0.40094,3.35010,0.56518,0.00365,-0.91709,-0.26113,-0.30125,22.40127,1.38023,1.71595
-0.07176,1.44522,-0.39381,-0.14661,0.28503,-0.16636,1.24678,0.04746,-0.31530,0.50005,3.31526,0.78136,-0.00905,-0.91054,-0.27670,-0.30703,29.67910,-8.58598,-15.08669
-0.07318,1.45204,-0.39608,-0.13642,0.33235,-0.16615,1.60241,-0.18193,-0.68245,0.54511,3.18767,-0.87860,-0.02545,-0.90280,-0.29022,-0.31635,26.57245,-18.37330,-25.43388
-0.07483,1.45879,-0.39897,-0.13255,0.36631,-0.17557,1.82727,-0.18743,-0.97424,0.03652,3.71272,-1.61612,-0.04334,-0.89652,-0.30224,-0.32096,23.10799,-7.42240,-30.30489
-0.07802,1.46820,-0.40340,-0.15534,0.43576,-0.20791,2.27149,0.19654,-1.30134,-2.55682,4.35020,-2.93126,-0.07005,-0.89052,-0.32036,-0.31534,25.99382,18.46918,-17.82806
-0.08254,1.47750,-0.40838,-0.19376,0.48858,-0.24187,2.52079,0.74761,-1.31654,-3.53499,4.98525,-3.05449,-0.09111,-0.88747,-0.33759,-0.30023,26.44341,38.91972,-0.31280
-0.08881,1.48829,-0.41400,-0.25101,0.55255,-0.27783,2.84923,1.30659,-1.32239,-4.64207,5.61717,-2.62917,-0.11473,-0.88316,-0.35808,-0.28043,31.35261,38.96282,3.59073
-0.09703,1.50298,-0.42031,-0.32827,0.66813,-0.31787,2.79501,2.04574,-0.99231,-4.50014,5.93286,-1.04010,-0.12891,-0.88474,-0.37194,-0.24954,0.37651,43.57429,31.65533
-0.10553,1.51721,-0.42542,-0.39507,0.75211,-0.32964,2.64605,2.18360,-0.80256,-5.01570,6.04697,0.27613,-0.14033,-0.88315,-0.38297,-0.23170,-4.98524,15.13117,15.83207
-0.11479,1.53208,-0.42968,-0.45787,0.82585,-0.32403,2.46115,2.10844,-0.59436,-5.38702,6.44411,1.30959,-0.14760,-0.88101,-0.39292,-0.21829,-12.17729,-4.18956,16.47825
-0.12618,1.54894,-0.43270,-0.54001,0.91559,-0.29939,2.21700,1.88236,-0.24263,-6.13859,6.70921,2.50966,-0.14702,-0.87949,-0.40215,-0.20774,-14.07500,-15.99712,22.43021
-0.13982,1.56802,-0.43400,-0.64153,1.02322,-0.25097,1.96486,1.60665,0.21738,-6.59260,7.27614,3.61301,-0.13988,-0.87865,-0.41128,-0.19813,-15.80167,-24.05932,27.11446
-0.15450,1.58801,-0.43368,-0.73890,1.12127,-0.18605,1.98112,1.58215,0.70572,-7.47879,7.04407,5.18388,-0.13289,-0.87654,-0.42575,-0.18098,1.12395,-8.64148,32.20813
-0.17037,1.60832,-0.43187,-0.83128,1.20008,-0.11297,2.03296,1.49686,1.18604,-7.78298,6.42312,7.18712,-0.12236,-0.87344,-0.44196,-0.16371,8.97161,-5.08632,37.18204
-0.18990,1.63018,-0.42633,-0.96294,1.28602,0.00505,2.19962,1.21183,1.88431,-8.59009,4.50823,7.31778,-0.10102,-0.86771,-0.46376,-0.14768,15.06023,-25.06802,39.46611
-0.21000,1.65082,-0.42032,-1.07547,1.33219,0.10518,2.33272,1.08727,2.44206,-7.36419,2.09507,7.16950,-0.08031,-0.86148,-0.48470,-0.12833,16.63804,-11.91356,41.89185
-0.22982,1.67066,-0.41426,-1.15553,1.35444,0.18169,2.34533,0.92078,2.78871,-6.56042,1.62639,5.79230,-0.06005,-0.85512,-0.50262,-0.11198,8.91942,-17.81131,28.68286
-0.25119,1.69030,-0.40743,-1.24116,1.36754,0.25221,2.18665,0.85105,3.16698,-5.63992,-0.30866,4.51546,-0.03650,-0.85085,-0.51585,-0.09282,-5.45955,-12.53040,28.39678
-0.27332,1.70852,-0.39973,-1.32099,1.35404,0.32164,2.08339,0.94871,3.55941,-4.87086,-1.68966,3.77669,-0.01272,-0.84596,-0.52873,-0.06814,-4.99932,-2.87481,23.22970
-0.29498,1.72549,-0.39255,-1.37438,1.32286,0.36627,1.94164,1.00795,3.85762,-4.05925,-3.60034,3.80023,0.01124,-0.84089,-0.53934,-0.04346,-9.57658,6.95668,28.52750
-0.31676,1.73973,-0.38457,-1.41647,1.25499,0.41309,1.66583,0.56471,4.03269,-1.60117,-6.02446,3.54071,0.04170,-0.83626,-0.54580,-0.03227,-10.39288,-24.12432,17.79387
-0.33754,1.75094,-0.37614,-1.43253,1.15109,0.45590,1.44570,0.12927,4.10891,0.18583,-7.40809,2.08800,0.07202,-0.83088,-0.55123,-0.02463,-7.81088,-33.87339,2.89632
-0.35629,1.76098,-0.36810,-1.41127,1.05145,0.48166,1.32091,-0.08176,3.96432,2.25791,-7.16804,0.90114,0.09506,-0.82488,-0.55701,-0.01664,-3.21590,-24.36087,-9.89837
-0.37340,1.77048,-0.36059,-1.36864,0.96749,0.49296,1.20807,-0.09148,3.73789,4.40215,-6.75426,0.68941,0.11263,-0.81945,-0.56194,-0.00638,-8.43710,-1.09447,-13.37903
-0.38725,1.77746,-0.35260,-1.28128,0.85991,0.51121,1.15698,0.28661,3.36899,5.04136,-5.54161,1.17677,0.11923,-0.81439,-0.56785,0.00986,-9.49791,17.78506,-20.60298
-0.40115,1.78538,-0.34421,-1.21450,0.79164,0.53202,1.25465,0.61269,3.16385,6.14269,-5.66670,2.20124,0.12693,-0.80621,-0.57715,0.02848,-1.87958,34.68518,-12.53370
-0.41279,1.79186,-0.33504,-1.12653,0.71653,0.56089,1.44111,0.86230,2.85851,6.64976,-5.16056,2.04008,0.13071,-0.79616,-0.58914,0.04425,7.37338,21.27053,-20.10009
-0.42344,1.79827,-0.32597,-1.04371,0.65811,0.58246,1.58019,1.13697,2.58456,7.29836,-4.69702,1.50204,0.13189,-0.78577,-0.60118,0.06127,8.29724,25.63266,-20.79632
-0.43068,1.80355,-0.31697,-0.92394,0.59495,0.59888,1.62881,1.48150,2.17819,7.60072,-3.43121,0.61699,0.12591,-0.77664,-0.61227,0.07816,-0.31258,23.33159,-24.11651
-0.43732,1.80936,-0.30830,-0.82031,0.55396,0.60563,1.55218,1.77671,1.89220,7.36318,-2.49036,0.47516,0.12008,-0.76895,-0.62048,0.09643,-9.47243,24.19761,-18.97249
-0.44355,1.81553,-0.29993,-0.73541,0.52860,0.60543,1.44925,1.85670,1.67883,7.23700,-1.86185,-0.12718,0.11677,-0.76203,-0.62712,0.11135,-10.81704,14.46715,-15.52560
-0.44778,1.82160,-0.29226,-0.63868,0.50770,0.59451,1.23330,1.76556,1.42838,7.10021,-1.40469,-0.94296,0.11389,-0.75835,-0.63025,0.12133,-14.59115,-3.02669,-16.01436
-0.45012,1.82763,-0.28510,-0.53163,0.49045,0.57745,0.98045,1.35253,1.03620,6.40118,-0.98547,-1.04263,0.11254,-0.75815,-0.63103,0.11979,-17.23483,-26.38495,-25.75646
-0.45294,1.83369,-0.27785,-0.45703,0.47703,0.56573,0.79715,1.17261,0.84905,5.86500,-1.05787,-0.96778,0.11139,-0.75678,-0.63216,0.12352,-15.51561,-20.55032,-19.71867
-0.45429,1.83915,-0.27037,-0.37690,0.45717,0.56095,0.64043,1.01016,0.71583,5.31417,-1.68727,0.47706,0.11085,-0.75584,-0.63271,0.12689,-14.36037,-11.92327,-10.67105
-0.45519,1.84351,-0.26177,-0.30723,0.42415,0.57476,0.67991,0.81985,0.62948,4.92148,-2.70147,1.72553,0.11245,-0.75186,-0.63681,0.12859,-0.87703,-11.10525,-6.03575
-0.45519,1.84682,-0.25233,-0.23925,0.38153,0.59855,0.85586,0.51069,0.43001,5.27465,-3.45899,1.86493,0.11460,-0.74603,-0.64426,0.12338,10.54157,-19.74222,-12.55923
-0.45325,1.84919,-0.24243,-0.15381,0.33268,0.62467,1.08416,0.31791,0.08354,5.07641,-2.84666,1.14706,0.11180,-0.73878,-0.65458,0.11507,15.32440,-15.81614,-24.04867
-0.45082,1.85172,-0.23290,-0.07853,0.29757,0.63840,1.19815,0.40377,-0.20746,5.46608,-2.33948,0.28782,0.10381,-0.73184,-0.66412,0.11215,9.79168,4.16919,-19.32085
-0.44721,1.85430,-0.22393,-0.00130,0.27117,0.63996,1.17070,0.67801,-0.50197,5.26817,-1.84186,-0.21899,0.08974,-0.72654,-0.67182,0.11287,-0.28328,17.96198,-20.74267
-0.44310,1.85637,-0.21505,0.06606,0.24202,0.63973,1.12966,0.92549,-0.77059,4.35730,-2.49615,0.31564,0.07381,-0.72143,-0.67909,0.11372,-3.84189,22.37913,-16.85077
-0.43928,1.85720,-0.20573,0.11311,0.19954,0.64688,1.18601,1.09790,-0.94410,2.28031,-3.27682,0.94981,0.05922,-0.71432,-0.68788,0.11427,0.89387,12.35040,-16.07020
-0.43630,1.85666,-0.19578,0.13541,0.14405,0.66240,1.33579,1.48369,-0.83017,0.21127,-3.85381,0.77435,0.04544,-0.70314,-0.69853,0.12482,11.19404,18.49764,0.98233
-0.43398,1.85579,-0.18589,0.14187,0.09712,0.67308,1.46004,1.96974,-0.54438,0.61374,-3.70101,0.75460,0.03203,-0.68995,-0.70865,0.14410,16.29962,40.29664,25.59105
-0.43144,1.85421,-0.17607,0.15060,0.04958,0.68046,1.54056,2.17231,-0.48449,1.07451,-2.86528,0.66761,0.01849,-0.67774,-0.71822,0.15651,7.90094,18.21035,9.84686
-0.42918,1.85319,-0.16630,0.15266,0.02136,0.68559,1.56905,2.00792,-0.60319,-0.04224,-2.35825,0.71082,0.00798,-0.66800,-0.72714,0.15807,1.70605,-4.46419,-8.74909
-0.42803,1.85156,-0.15619,0.13613,-0.00984,0.69502,1.61100,1.60569,-0.68978,-2.29829,-2.09258,1.00654,0.00372,-0.65912,-0.73621,0.15341,-0.77075,-27.25838,-14.31689
-0.42891,1.84891,-0.14529,0.09084,-0.05074,0.71543,1.75168,1.16139,-0.48981,-3.45132,-2.69645,1.76836,0.00854,-0.64806,-0.74623,0.15193,7.98850,-27.13958,7.65494
-0.43124,1.84547,-0.13362,0.03074,-0.09658,0.74427,1.97358,0.55981,-0.29485,-3.94895,-2.75538,1.89765,0.02003,-0.63544,-0.75791,0.14626,13.41818,-39.16241,7.83169
-0.43274,1.84291,-0.12232,-0.00027,-0.11623,0.75945,2.06895,0.29999,-0.16917,-4.12851,-2.10298,1.76713,0.02668,-0.62331,-0.76811,0.14420,13.50170,-39.74633,5.84499
-0.43706,1.83952,-0.10956,-0.06901,-0.14431,0.79440,2.20173,-0.27113,0.11104,-3.52734,-1.30584,2.08973,0.04613,-0.61094,-0.77805,0.13877,7.78798,-32.50576,13.56750
-0.44158,1.83642,-0.09653,-0.12864,-0.16316,0.82743,2.31200,-0.90482,0.17986,-3.69211,-1.43927,2.32158,0.06623,-0.59902,-0.78788,0.12663,6.03078,-38.88614,1.29512
-0.44673,1.83262,-0.08314,-0.18581,-0.18967,0.85919,2.49791,-1.52949,0.12606,-4.49936,-2.38805,2.32518,0.08765,-0.58486,-0.79894,0.10935,11.57993,-44.50784,-10.95032
-0.45293,1.82743,-0.06958,-0.24681,-0.23280,0.88596,2.78633,-2.02583,0.14561,-4.43666,-3.47386,1.34266,0.11127,-0.56641,-0.81128,0.09284,21.03715,-37.94630,-3.00933
-0.45975,1.82104,-0.05634,-0.30357,-0.28597,0.90081,3.13055,-2.27923,0.26533,-4.25440,-3.90245,0.46708,0.13426,-0.54365,-0.82458,0.08061,22.85775,-25.33732,2.69565
-0.46729,1.81335,-0.04383,-0.36033,-0.34932,0.90008,3.48159,-2.27311,0.56288,-3.57553,-3.51181,-1.27205,0.15617,-0.51701,-0.83814,0.07637,22.32049,-5.99184,18.90562
-0.47447,1.80644,-0.03239,-0.39742,-0.38355,0.88124,3.58671,-2.08870,0.99140,-3.13284,-2.08533,-2.36709,0.17643,-0.49259,-0.84839,0.08038,9.78814,4.81085,32.60179
-0.48223,1.79976,-0.02221,-0.43477,-0.40501,0.84547,3.55513,-1.93708,1.43471,-2.26954,-1.41598,-3.00805,0.19772,-0.46974,-0.85585,0.08813,-5.27369,6.49375,38.40545
-0.49032,1.79320,-0.01328,-0.46901,-0.42017,0.79756,3.46326,-1.96595,1.66146,-2.14761,-1.18430,-3.60371,0.22012,-0.44892,-0.86124,0.09100,-8.61974,-4.39050,18.87840
-0.49864,1.78620,-0.00533,-0.49928,-0.43924,0.74438,3.39489,-2.07498,1.77967,-1.96522,-1.94844,-3.97345,0.24350,-0.42808,-0.86554,0.09106,-6.88108,-9.73803,6.67996
-0.50728,1.77801,0.00141,-0.52816,-0.47412,0.68373,3.45305,-2.27285,1.76945,-2.14778,-3.11400,-4.40185,0.26814,-0.40475,-0.86996,0.08632,2.42641,-12.23114,-1.67768
-0.51651,1.76847,0.00692,-0.56069,-0.52310,0.61617,3.64127,-2.48976,1.89619,-2.95674,-3.96197,-5.22901,0.29622,-0.37637,-0.87392,0.08286,10.93051,-14.36545,-1.12650
-0.52612,1.75790,0.01059,-0.59364,-0.57603,0.53277,3.82684,-2.73607,2.07843,-2.06683,-3.48467,-6.57146,0.32721,-0.34560,-0.87580,0.08043,14.00479,-19.54146,17.27319
-0.53566,1.74758,0.01282,-0.61686,-0.61244,0.44652,3.93969,-2.91642,2.26630,-1.91578,-2.43972,-8.05196,0.35796,-0.31448,-0.87561,0.07928,12.80792,-18.14290,7.95792
-0.54533,1.73726,0.01095,-0.63640,-0.64017,0.31268,3.90935,-3.06635,2.57838,-0.43754,-1.04278,-9.20584,0.39010,-0.28433,-0.87179,0.08342,-1.70834,-14.96556,19.50868
-0.55433,1.72806,0.00854,-0.64098,-0.64340,0.20103,3.87467,-3.17674,2.52641,0.09754,0.10857,-9.70118,0.41802,-0.25682,-0.86769,0.08012,-4.64292,-10.08112,3.23769
-0.56327,1.72007,0.00116,-0.64419,-0.62555,0.03287,3.75087,-3.42925,2.36004,-0.21241,2.21495,-11.50952,0.44803,-0.23312,-0.86005,0.07237,0.94564,-10.50722,-16.49475
-0.57199,1.71396,-0.00811,-0.64097,-0.58137,-0.12944,3.56987,-3.74569,2.15992,0.36934,3.90738,-11.47030,0.47979,-0.21253,-0.84892,0.06291,-9.04852,-19.89072,-19.33695
-0.57990,1.71005,-0.02014,-0.62557,-0.51007,-0.30071,3.32805,-4.16816,1.80180,2.60129,7.14128,-14.34544,0.51343,-0.19641,-0.83396,0.04829,5.98681,-17.75963,-11.79827
-0.58660,1.70821,-0.03361,-0.59379,-0.42344,-0.45277,2.97846,-4.60259,1.38007,3.40402,7.57818,-12.31124,0.54789,-0.18761,-0.81466,0.03061,-22.32654,-37.09239,-67.43016
-0.58923,1.71010,-0.05244,-0.50140,-0.29564,-0.65783,2.65911,-4.99993,1.23109,7.62601,8.63111,-12.79339,0.58419,-0.17731,-0.79180,0.01816,-14.13791,-24.44260,-21.87017
-0.58824,1.71394,-0.07220,-0.36938,-0.16290,-0.83421,2.60119,-5.22932,1.04559,11.61734,10.44705,-12.12030,0.61715,-0.16261,-0.76985,0.00254,-4.72144,-17.42892,-15.03310
-0.58258,1.72176,-0.09322,-0.19071,0.00531,-0.99004,2.80104,-5.30399,0.82900,14.14577,13.77376,-9.60958,0.64618,-0.14260,-0.74952,-0.01802,17.33936,-4.77122,-16.24365
-0.57397,1.73352,-0.11308,-0.00700,0.19640,-1.08857,2.72558,-5.14258,0.49410,16.45367,18.08744,-6.88282,0.66831,-0.13086,-0.73132,-0.03755,10.31233,10.97868,-13.33337
-0.55811,1.75613,-0.13161,0.25285,0.52176,-1.14177,2.22830,-4.71886,0.05449,17.06166,24.20672,-0.84192,0.68273,-0.13285,-0.71660,-0.05218,-9.57505,26.63371,-25.35472
-0.54051,1.78521,-0.14414,0.48544,0.88359,-1.08436,0.61122,-4.11526,-0.73096,17.65259,29.16636,7.18524,0.68983,-0.17191,-0.70127,-0.05288,-75.78346,42.20082,-62.61540
-0.52169,1.81879,-0.15106,0.68131,1.22955,-0.95050,-1.05242,-3.07628,-1.79688,17.54923,29.35729,14.02096,0.68057,-0.23101,-0.69337,-0.05194,-116.29800,73.50777,-112.54760
-0.49704,1.86117,-0.15087,0.92416,1.63295,-0.73586,-2.68769,-1.22982,-3.27260,19.15252,28.11748,16.49632,0.64038,-0.31167,-0.70007,-0.05177,-86.54430,122.82190,-134.66870
-0.46345,1.90951,-0.14587,1.26198,2.04669,-0.48957,-4.46487,1.23814,-4.75133,23.58804,23.85693,13.62278,0.56839,-0.40712,-0.71381,-0.04059,-71.84896,148.34880,-133.65750
-0.42714,1.95396,-0.14434,1.56480,2.30356,-0.35518,-5.75382,2.84895,-5.83886,26.54778,19.11742,8.89527,0.49675,-0.49439,-0.71271,-0.02942,-73.30319,147.96010,-125.47160
-0.37538,2.00161,-0.14487,2.05119,2.55224,-0.28622,-7.03702,5.07674,-6.94044,35.08586,11.36525,0.48499,0.39139,-0.58495,-0.71033,-0.00805,-60.99489,119.36040,-112.11830
-0.31130,2.04384,-0.15320,2.65116,2.66121,-0.36000,-7.13174,7.47551,-8.26408,41.95779,2.68520,-8.27306,0.25933,-0.65088,-0.71351,-0.00072,21.13255,116.73140,-126.39890
-0.24612,2.08101,-0.16704,3.15565,2.65833,-0.50055,-7.23167,9.03301,-9.88837,44.34856,-4.62667,-16.03799,0.11915,-0.71080,-0.69319,-0.00780,-30.33738,60.09644,-175.58930
-0.16070,2.10540,-0.19582,3.88754,2.42802,-0.86513,-7.86219,11.09355,-11.83275,47.92080,-26.46633,-31.11309,-0.05757,-0.76257,-0.64429,-0.00741,-56.25840,87.86331,-142.60740
-0.07104,2.10766,-0.23716,4.49688,1.87710,-1.36486,-8.33387,13.40119,-13.18216,35.70637,-52.15779,-39.65234,-0.24452,-0.78175,-0.57356,0.01031,-49.34975,113.49700,-153.52470
0.01166,2.08797,-0.28463,4.81960,1.10393,-1.83855,-7.76696,15.42478,-13.43937,16.03424,-74.39240,-38.04517,-0.41334,-0.75655,-0.50463,0.04614,30.40829,103.77690,-146.32630
0.08072,2.03226,-0.34070,4.83479,-0.06554,-2.33125,-5.10554,17.09622,-13.60110,-13.64853,-87.73620,-29.10575,-0.57047,-0.67068,-0.46659,0.08393,81.33875,-27.23972,-200.66040
0.12542,1.95768,-0.39437,4.45212,-1.26892,-2.67368,-2.00659,16.99621,-14.29018,-38.43122,-82.58830,-18.41494,-0.69675,-0.55551,-0.44438,0.09204,22.73201,-134.25420,-205.66440
0.15285,1.88511,-0.44328,3.88320,-2.14968,-2.86084,-0.39252,15.83821,-15.14284,-55.12520,-66.10003,-11.80351,-0.79486,-0.44543,-0.40533,0.07410,-90.52898,-130.98990,-118.58560
0.15354,1.80637,-0.49012,3.02685,-2.91380,-2.96602,0.10434,14.43836,-15.37020,-66.65373,-45.68601,-2.33334,-0.86536,-0.35003,-0.35505,0.05079,-91.94891,-88.74506,-21.04034
0.12870,1.73097,-0.52665,1.94490,-3.46364,-2.88419,-0.35050,12.83109,-15.12555,-69.06151,-24.41055,13.24863,-0.91422,-0.27488,-0.29727,0.01677,-76.97076,-39.70924,64.24178
0.10630,1.66871,-0.55216,1.14549,-3.68334,-2.64933,-0.46653,11.59666,-14.74296,-63.94116,-11.95962,25.81521,-0.95025,-0.19480,-0.24290,-0.00840,-55.92400,-52.04343,65.89527
0.07023,1.61236,-0.56086,0.32201,-3.75431,-2.20281,-1.22107,9.72183,-14.48069,-53.79831,1.96921,37.49420,-0.96985,-0.12449,-0.20051,-0.06072,-95.20778,-51.02438,84.52728
0.02986,1.57191,-0.55000,-0.38871,-3.55783,-1.53586,-2.49217,7.00154,-14.14079,-34.12313,22.22601,43.97382,-0.97077,-0.06417,-0.18315,-0.14122,-156.44770,-47.92814,90.39634
0.00466,1.54888,-0.53587,-0.70167,-3.12522,-0.96077,-3.31724,4.85462,-12.50063,-11.24344,38.76979,37.16528,-0.96314,-0.03450,-0.17612,-0.20039,-141.99230,-43.48346,139.27590
-0.00734,1.53076,-0.52803,-0.73403,-2.72740,-0.62794,-4.11537,3.78019,-11.05603,2.45813,40.38161,30.29191,-0.95452,-0.01115,-0.15543,-0.25419,-54.03754,-41.55123,197.04430
0.00778,1.54270,-0.51248,-0.30731,-1.93465,-0.25279,-4.07753,1.90997,-4.26077,38.10256,40.76208,6.18176,-0.93709,-0.13915,-0.19296,-0.25546,1.35114,70.90508,306.85070
0.02792,1.54296,-0.51204,0.09629,-1.48688,-0.18901,-2.99735,0.35775,-1.21381,34.32383,35.64958,3.73140,-0.92140,-0.19164,-0.23595,-0.24213,127.74770,-123.33530,353.85310
0.05749,1.55110,-0.51211,0.55217,-1.02112,-0.14786,-2.43474,-0.71443,2.81560,29.88178,31.41460,3.62693,-0.88613,-0.29432,-0.28250,-0.21987,40.48829,-24.01226,305.08490
0.08630,1.56445,-0.50838,0.89470,-0.57046,-0.05199,-2.05466,-1.91621,6.17971,12.87191,24.74559,8.42756,-0.83094,-0.39642,-0.33712,-0.19685,38.37193,-36.23418,252.09890
0.10473,1.57499,-0.50188,0.99216,-0.26313,0.06805,-2.46423,-2.33706,7.80965,0.18099,20.34689,8.99851,-0.77635,-0.47494,-0.36427,-0.19753,-32.71225,-40.86559,126.91550
0.11617,1.58352,-0.49504,0.95215,-0.06409,0.16425,-3.07377,-2.30303,8.43544,-7.81909,13.44983,8.04786,-0.72541,-0.53968,-0.37393,-0.20665,-33.95340,-5.97179,89.58896
0.11943,1.59332,-0.48711,0.78777,0.10955,0.25496,-4.13337,-2.16271,8.04769,-11.63043,9.61175,2.78434,-0.68061,-0.58745,-0.36729,-0.23826,-77.95853,-35.42670,-27.44749
0.12189,1.59919,-0.48247,0.64928,0.18041,0.27165,-4.11781,-2.17547,7.58001,-11.66122,4.79738,-0.47340,-0.64231,-0.62133,-0.37204,-0.25094,-2.53848,-16.35468,-32.89114
0.12031,1.60454,-0.48057,0.47666,0.22662,0.23954,-3.65366,-2.14106,6.83061,-10.22227,2.26154,-3.95089,-0.61430,-0.64229,-0.37955,-0.25699,24.27588,2.78874,-43.85069
0.11986,1.60801,-0.48047,0.36222,0.23226,0.18669,-2.84514,-2.09307,6.20641,-9.07039,-0.12656,-5.36375,-0.59077,-0.65739,-0.39347,-0.25300,59.07729,16.29079,-42.99162
0.11797,1.60992,-0.48257,0.25214,0.21187,0.11137,-1.66136,-1.92908,5.41928,-7.00042,-1.85912,-5.66803,-0.57946,-0.66090,-0.41287,-0.23869,79.55052,33.14194,-48.08062
0.11613,1.61099,-0.48550,0.16723,0.18277,0.03977,-0.32092,-1.66135,4.75345,-5.28481,-1.89946,-4.63245,-0.57383,-0.65880,-0.43686,-0.21413,90.75511,45.86668,-42.93378
0.11370,1.61206,-0.48889,0.09136,0.16016,-0.02286,0.74728,-1.24853,4.30739,-4.21914,-2.01460,-2.56421,-0.56848,-0.65796,-0.45802,-0.18475,72.45943,47.63620,-24.21557
0.11197,1.61358,-0.49137,0.04330,0.14959,-0.05705,0.64463,-0.87727,4.11169,-3.75338,-1.97785,-1.75392,-0.55390,-0.67124,-0.46187,-0.17118,14.09645,35.85440,-14.75718
0.10941,1.61504,-0.49422,-0.00654,0.14040,-0.08915,-0.07073,-0.57416,3.92345,-3.16681,-0.32862,-2.14528,-0.53607,-0.69211,-0.45239,-0.17019,-54.67972,11.46783,-16.87245
0.10603,1.61679,-0.49739,-0.05812,0.13849,-0.11922,-0.48055,-0.38532,3.89078,-2.84408,0.62811,-2.16954,-0.51570,-0.71214,-0.44669,-0.16543,-34.84606,3.53633,-5.00571
0.10323,1.61886,-0.50036,-0.08927,0.14167,-0.13953,-0.42411,-0.26214,3.93819,-2.28685,0.85451,-1.80487,-0.49541,-0.72768,-0.44910,-0.15284,-7.47113,9.08269,1.78767
0.09956,1.62133,-0.50344,-0.12801,0.15056,-0.15708,-0.10428,-0.08631,4.13085,-2.50902,0.40615,-0.56604,-0.47393,-0.74159,-0.45626,-0.13138,18.07663,16.29190,10.29350
0.09535,1.62365,-0.50599,-0.16712,0.15502,-0.16239,-0.31562,-0.00008,4.36636,-2.83654,-0.89121,0.54539,-0.44679,-0.76148,-0.45479,-0.11701,-1.13117,9.77069,17.37587
0.09058,1.62549,-0.50829,-0.20617,0.15080,-0.16253,-0.99647,-0.03106,4.58372,-3.46468,-0.59553,0.34689,-0.41411,-0.78734,-0.44265,-0.11257,-44.59182,-13.28119,14.29003
0.08434,1.62547,-0.51036,-0.25927,0.11609,-0.15898,-2.40184,-0.32917,4.68019,-2.49396,-4.08576,0.53616,-0.37380,-0.82052,-0.41323,-0.12750,-74.20968,-37.08588,15.18391
