posX, posY, posZ, velX, velY, velZ, angVelX, angVelY, angVelZ, accX, accY, accZ, rotX, rotY, rotZ, rotW, angAccX, angAccY, angAccZ
-0.00952,1.23905,-0.32074,-0.21567,0.02653,-0.12804,-0.40968,0.44828,0.79433,-0.18241,-0.15563,-1.62253,0.04792,-0.93076,-0.03763,-0.36052,-2.42725,6.26991,2.12501
-0.01250,1.23930,-0.32406,-0.21611,0.02483,-0.15066,-0.46840,0.52891,0.77963,0.07177,-0.05941,-1.47368,0.05414,-0.93276,-0.03521,-0.35468,-4.17370,7.14780,-1.05561
-0.01518,1.23967,-0.32753,-0.21209,0.02559,-0.17069,-0.53745,0.52583,0.77458,0.36867,0.16317,-1.18026,0.06093,-0.93391,-0.03209,-0.35082,-5.44307,1.26208,-0.43980
-0.01764,1.24020,-0.33097,-0.20568,0.02843,-0.18613,-0.59360,0.45201,0.76573,0.46888,0.25689,-1.03831,0.06769,-0.93415,-0.02874,-0.34923,-4.81984,-5.46489,-0.03082
-0.02004,1.24096,-0.33446,-0.19930,0.03400,-0.19948,-0.57031,0.42322,0.73194,0.40745,0.42686,-1.09603,0.07273,-0.93468,-0.02720,-0.34690,0.54608,-3.92755,-1.88671
-0.02251,1.24182,-0.33808,-0.19521,0.03984,-0.21159,-0.51144,0.46175,0.67858,0.26721,0.48321,-1.14843,0.07638,-0.93596,-0.02674,-0.34268,3.42083,2.02874,-3.90487
-0.02501,1.24292,-0.34210,-0.19262,0.04786,-0.22708,-0.43844,0.57022,0.60553,0.13528,0.62864,-1.09499,0.07855,-0.93818,-0.02691,-0.33604,4.87153,6.60954,-5.84974
-0.02750,1.24426,-0.34613,-0.19017,0.05769,-0.23935,-0.34473,0.66373,0.54437,0.20331,0.61151,-0.32541,0.08025,-0.94044,-0.02819,-0.32914,5.08455,8.03513,-4.75353
-0.02980,1.24560,-0.34972,-0.18546,0.06558,-0.24304,-0.28720,0.64286,0.51092,0.46657,0.76135,-0.12240,0.08275,-0.94154,-0.02893,-0.32531,4.89983,0.60888,-3.17617
-0.03144,1.24794,-0.35299,-0.17129,0.08902,-0.24010,-0.03489,0.62500,0.35729,0.47095,0.68469,0.20875,0.07975,-0.94272,-0.03412,-0.32211,9.50094,-0.35931,-5.34945
-0.03579,1.25096,-0.35957,-0.16567,0.09714,-0.23808,0.04941,0.62970,0.28328,0.41341,0.66140,0.17185,0.08097,-0.94526,-0.03784,-0.31385,7.55573,0.25564,-6.52383
-0.03773,1.25284,-0.36268,-0.16081,0.10466,-0.23499,0.11471,0.62624,0.23368,0.30186,0.52674,0.38816,0.08017,-0.94649,-0.04071,-0.30997,5.28472,0.99062,-5.04542
-0.03968,1.25466,-0.36563,-0.15725,0.10990,-0.23038,0.12972,0.57556,0.20957,0.17702,0.39740,0.37778,0.08037,-0.94718,-0.04242,-0.30756,1.92522,-2.90297,-1.99003
-0.04174,1.25665,-0.36840,-0.15585,0.11663,-0.22388,0.14712,0.53454,0.20804,0.01299,0.39540,0.47820,0.08112,-0.94780,-0.04445,-0.30517,0.22043,-2.79945,-0.66606
-0.04392,1.25849,-0.37111,-0.15612,0.11981,-0.21780,0.18884,0.52663,0.19682,-0.04120,0.09203,0.31999,0.08124,-0.94864,-0.04735,-0.30207,2.41379,-2.30611,0.41122
-0.04604,1.26049,-0.37367,-0.15541,0.12482,-0.21100,0.33114,0.67867,0.04421,0.09915,0.33031,0.26045,0.07534,-0.95127,-0.05264,-0.29433,7.82528,8.71324,-8.99846
-0.04813,1.26250,-0.37624,-0.15452,0.12892,-0.20549,0.45961,0.81911,-0.08581,0.03702,0.30719,0.61286,0.06888,-0.95400,-0.05844,-0.28587,10.25138,13.34091,-11.57166
-0.05019,1.26455,-0.37857,-0.15346,0.13281,-0.19797,0.54333,0.86925,-0.18023,0.10464,0.44672,0.77222,0.06291,-0.95603,-0.06362,-0.27928,7.41160,7.09744,-8.75771
-0.05224,1.26682,-0.38086,-0.15265,0.13892,-0.19122,0.56309,0.80924,-0.20732,-0.07119,0.61946,0.49941,0.05923,-0.95699,-0.06751,-0.27587,1.73477,-3.40812,-2.78227
-0.05459,1.26934,-0.38307,-0.15653,0.14740,-0.18477,0.57116,0.73779,-0.18532,-0.43880,0.67749,0.49305,0.05715,-0.95760,-0.07150,-0.27317,0.61355,-5.01410,0.20887
-0.05718,1.27188,-0.38530,-0.16254,0.15432,-0.17967,0.55059,0.63398,-0.12095,-0.51752,0.53040,0.48025,0.05705,-0.95771,-0.07498,-0.27189,-0.71555,-7.00321,4.04361
-0.05980,1.27428,-0.38741,-0.16835,0.15816,-0.17424,0.56345,0.53822,-0.09812,-0.41381,-0.17921,0.05019,0.05581,-0.95763,-0.07909,-0.27126,-0.92500,-9.12051,3.82275
-0.06238,1.27633,-0.38992,-0.17210,0.15621,-0.17524,0.68114,0.71993,-0.25766,-0.24130,-0.46723,-0.90047,0.04685,-0.95999,-0.08563,-0.26246,5.90019,5.16321,-6.39016
-0.06479,1.27824,-0.39286,-0.17269,0.15251,-0.18223,0.82183,1.06950,-0.52309,0.03879,-0.22312,-0.32550,0.03200,-0.96409,-0.09282,-0.24675,10.42060,27.16089,-19.44479
-0.06720,1.28006,-0.39572,-0.17363,0.14814,-0.18688,0.87653,1.23385,-0.66327,-0.13862,-0.03087,0.29590,0.02047,-0.96685,-0.09849,-0.23470,4.47993,14.49842,-10.83230
-0.06981,1.28192,-0.39826,-0.17650,0.14523,-0.18597,0.83362,1.17899,-0.62002,-0.25939,-0.05262,0.57783,0.01574,-0.96799,-0.10235,-0.22864,-0.49224,1.87777,-1.54443
-0.07259,1.28370,-0.40048,-0.18140,0.14229,-0.18067,0.66058,0.86640,-0.38623,-0.26106,0.03182,0.57622,0.02008,-0.96722,-0.10289,-0.23127,-9.14243,-17.59370,12.82996
-0.07551,1.28554,-0.40267,-0.18742,0.14095,-0.17564,0.42865,0.48585,-0.06672,-0.46721,-0.12183,0.16916,0.03004,-0.96556,-0.10131,-0.23775,-14.36825,-25.74260,20.11608
-0.07857,1.28727,-0.40492,-0.19420,0.13799,-0.17244,0.26180,0.25145,0.17114,-0.46907,-0.37986,-0.14949,0.03875,-0.96438,-0.10038,-0.24165,-11.13834,-17.78562,16.33310
-0.08155,1.28895,-0.40729,-0.19885,0.13445,-0.17200,0.21240,0.23226,0.25417,-0.45217,-0.53019,-0.28020,0.04261,-0.96444,-0.10151,-0.24030,-6.71547,-7.01100,10.21614
-0.08446,1.29020,-0.40964,-0.20185,0.12517,-0.17136,0.25689,0.40565,0.22190,0.05688,-0.69411,0.00074,0.04193,-0.96586,-0.10478,-0.23317,2.05490,9.48901,-1.20468
-0.08705,1.29147,-0.41198,-0.19897,0.11816,-0.17048,0.27738,0.49422,0.17865,0.46815,-0.76689,0.30140,0.04081,-0.96696,-0.10743,-0.22757,3.48089,11.91234,-4.74047
-0.08914,1.29226,-0.41415,-0.18973,0.10583,-0.16761,0.26215,0.49048,0.14544,0.87393,-0.91347,0.46333,0.04017,-0.96757,-0.10893,-0.22434,-0.43418,3.13578,-3.08359
-0.09078,1.29274,-0.41620,-0.17598,0.09144,-0.16350,0.21059,0.38340,0.14158,1.07986,-1.09200,0.36109,0.04105,-0.96746,-0.10914,-0.22455,-3.25821,-6.59036,-0.01244
-0.09209,1.29299,-0.41819,-0.16005,0.07670,-0.15937,0.13862,0.26245,0.13503,1.11494,-1.08100,0.30606,0.04222,-0.96718,-0.10822,-0.22598,-4.72938,-9.06083,-0.12095
-0.09324,1.29296,-0.42007,-0.14535,0.06143,-0.15441,0.08262,0.16301,0.12021,0.95210,-1.08127,0.35258,0.04304,-0.96689,-0.10727,-0.22753,-3.95573,-7.58758,-1.08733
-0.09438,1.29283,-0.42182,-0.13317,0.04755,-0.14840,0.06335,0.11374,0.10269,0.76751,-0.93171,0.39555,0.04333,-0.96674,-0.10720,-0.22812,-1.87276,-5.21354,-1.31099
-0.09545,1.29249,-0.42336,-0.12241,0.03329,-0.14069,0.06715,0.08680,0.08981,0.56341,-0.85792,0.41176,0.04346,-0.96663,-0.10781,-0.22828,-0.08299,-2.00218,-0.99165
-0.09667,1.29231,-0.42500,-0.11618,0.02410,-0.13608,0.07738,0.11320,0.06645,0.40868,-0.70433,0.17021,0.04294,-0.96689,-0.10862,-0.22689,0.29679,0.06057,-0.78827
-0.09789,1.29215,-0.42672,-0.11122,0.01706,-0.13347,0.11076,0.23445,0.00602,0.22026,-0.38775,-0.03433,0.04040,-0.96791,-0.11009,-0.22226,1.81544,6.79361,-3.72220
-0.09927,1.29211,-0.42866,-0.10928,0.01305,-0.13463,0.15131,0.43093,-0.08230,-0.00532,-0.10705,-0.22998,0.03605,-0.96963,-0.11187,-0.21446,2.73695,11.97944,-5.34541
-0.10083,1.29242,-0.43078,-0.11020,0.01488,-0.13809,0.12943,0.57244,-0.11162,-0.09321,0.47277,-0.01381,0.03352,-0.97133,-0.11212,-0.20695,-0.27399,12.32238,-4.47285
-0.10257,1.29295,-0.43279,-0.11313,0.01930,-0.13916,0.08121,0.57169,-0.05777,-0.34697,0.68473,0.23722,0.03432,-0.97220,-0.11173,-0.20291,-3.64760,5.76739,1.37747
-0.10479,1.29404,-0.43455,-0.12240,0.03094,-0.13648,-0.04573,0.40781,0.16458,-0.53357,0.85018,0.23766,0.04257,-0.97198,-0.10945,-0.20365,-7.20523,-9.06974,12.66806
-0.10699,1.29531,-0.43623,-0.12965,0.04323,-0.13326,-0.10454,0.30381,0.31466,-0.54216,0.79755,0.14057,0.04937,-0.97177,-0.10846,-0.20361,-4.84143,-9.20903,12.72064
-0.10910,1.29665,-0.43777,-0.13400,0.05375,-0.12879,-0.10001,0.27867,0.36262,-0.26851,0.77840,0.43390,0.05314,-0.97189,-0.10877,-0.20194,-1.03350,-3.01861,6.17088
-0.11101,1.29830,-0.43899,-0.13481,0.06644,-0.12052,-0.03801,0.23602,0.37281,0.00960,0.66574,0.33103,0.05566,-0.97165,-0.11077,-0.20131,2.67509,-4.58134,2.24174
-0.11262,1.30003,-0.44028,-0.13134,0.07811,-0.11492,0.07147,0.33282,0.27365,0.29603,0.80422,0.17486,0.05363,-0.97229,-0.11424,-0.19676,7.27363,4.76601,-5.45287
-0.11402,1.30202,-0.44162,-0.12570,0.09114,-0.11115,0.17325,0.44272,0.14901,0.43065,1.06612,0.45015,0.04973,-0.97316,-0.11796,-0.19123,7.48127,9.50332,-10.35413
-0.11549,1.30441,-0.44272,-0.12195,0.10722,-0.10450,0.26582,0.48070,0.06903,0.16462,1.31919,0.70274,0.04660,-0.97357,-0.12210,-0.18732,6.27567,3.72501,-6.62874
-0.11705,1.30730,-0.44351,-0.12031,0.12717,-0.09457,0.36870,0.44344,0.01959,0.11897,1.66478,0.81482,0.04408,-0.97334,-0.12719,-0.18569,6.45694,-1.34642,-3.51089
-0.11873,1.31084,-0.44406,-0.12084,0.15268,-0.08343,0.53202,0.45235,-0.05371,-0.30493,1.89529,0.57229,0.03976,-0.97299,-0.13481,-0.18312,9.79204,-2.60363,-4.81960
-0.12088,1.31515,-0.44440,-0.12843,0.18435,-0.07080,0.75050,0.55757,-0.15213,-0.65961,2.10934,0.84091,0.03305,-0.97280,-0.14525,-0.17741,14.13959,7.54094,-7.37936
-0.12334,1.31936,-0.44491,-0.13875,0.20803,-0.06350,0.88060,0.60416,-0.16071,-0.99761,1.99463,0.51064,0.02916,-0.97234,-0.15463,-0.17260,12.57080,4.54860,-2.80472
-0.12628,1.32398,-0.44553,-0.15363,0.23271,-0.05941,0.99059,0.69139,-0.13005,-1.06533,1.65242,0.04381,0.02630,-0.97196,-0.16453,-0.16593,8.34818,4.62074,2.14529
-0.12921,1.32874,-0.44660,-0.16579,0.25458,-0.06167,1.04322,0.79076,-0.10870,-0.74123,1.42404,-0.10896,0.02336,-0.97182,-0.17330,-0.15809,6.29005,8.81756,1.69267
-0.13199,1.33352,-0.44785,-0.17344,0.27254,-0.06612,1.01461,0.75005,-0.06447,-0.34174,1.20889,-0.10724,0.02239,-0.97133,-0.17964,-0.15407,-1.07697,0.32708,3.10449
-0.13457,1.33868,-0.44916,-0.17664,0.29293,-0.07084,1.01656,0.67839,-0.08601,-0.17799,0.96251,-0.41803,0.01970,-0.97048,-0.18639,-0.15180,-0.36646,-5.19936,-0.64318
-0.13705,1.34356,-0.45043,-0.17724,0.30502,-0.07427,1.04013,0.70892,-0.18109,-0.13482,0.91808,-0.41425,0.01380,-0.96992,-0.19353,-0.14700,1.16376,0.75095,-5.48621
-0.13969,1.34879,-0.45178,-0.18036,0.31984,-0.07807,1.08625,0.79967,-0.29008,-0.36466,1.22123,-0.19235,0.00616,-0.96941,-0.20140,-0.14019,2.76878,6.76056,-8.77054
-0.14258,1.35426,-0.45296,-0.18635,0.33481,-0.07950,1.10339,0.81502,-0.32083,-0.52974,1.44928,0.12235,0.00078,-0.96859,-0.20887,-0.13490,2.02272,4.44980,-4.68850
-0.14578,1.36070,-0.45391,-0.19605,0.36049,-0.07722,1.14839,0.78540,-0.33316,-0.60126,2.05178,0.22750,-0.00409,-0.96725,-0.21742,-0.13092,2.13389,-1.28986,-1.17809
-0.14897,1.36760,-0.45477,-0.20347,0.38778,-0.07422,1.21295,0.75515,-0.36355,-0.73896,2.44338,0.26032,-0.00972,-0.96554,-0.22679,-0.12732,4.67500,-2.53713,-2.00819
-0.15259,1.37564,-0.45567,-0.21521,0.42557,-0.07258,1.25013,0.65016,-0.39088,-1.06504,2.98139,0.05416,-0.01486,-0.96346,-0.23566,-0.12647,3.88302,-5.30172,-3.39098
-0.15712,1.38476,-0.45677,-0.23755,0.47063,-0.07395,1.28317,0.61467,-0.42460,-2.26502,3.51334,-0.35036,-0.02068,-0.96143,-0.24455,-0.12415,0.84444,-6.47376,-2.41299
-0.16266,1.39450,-0.45779,-0.26936,0.51518,-0.07383,1.36412,0.72371,-0.43805,-3.15089,4.06320,-0.03127,-0.02737,-0.95937,-0.25530,-0.11693,4.62254,5.56746,-2.44873
-0.16985,1.40593,-0.45842,-0.31760,0.57454,-0.06829,1.51337,0.95947,-0.41811,-3.82315,4.67775,0.53227,-0.03459,-0.95687,-0.26899,-0.10417,10.45129,14.94185,1.71768
-0.17860,1.41946,-0.45826,-0.37879,0.65261,-0.05217,1.72653,1.23576,-0.34158,-3.68210,5.27024,1.53515,-0.04094,-0.95335,-0.28592,-0.08777,14.13553,18.77723,4.96728
-0.18691,1.43301,-0.45769,-0.42178,0.71568,-0.03372,1.85293,1.30756,-0.26996,-3.41388,5.17855,1.91532,-0.04542,-0.94936,-0.30134,-0.07650,13.64812,9.14499,6.88236
-0.19649,1.44838,-0.45638,-0.47451,0.79424,-0.00723,1.90472,1.38110,-0.19402,-2.67842,7.85191,1.52298,-0.04932,-0.94594,-0.31395,-0.06479,-27.84806,2.35003,-3.30366
-0.20669,1.46462,-0.45412,-0.52712,0.87163,0.02951,2.10830,1.39217,-0.10778,-3.60390,4.61943,2.75833,-0.05251,-0.93984,-0.33321,-0.05403,19.65218,1.30540,1.19565
-0.21726,1.47994,-0.45177,-0.57424,0.91988,0.05946,2.13564,1.29368,0.03568,-4.33428,3.59150,2.55469,-0.05159,-0.93495,-0.34794,-0.04628,4.97905,-8.44500,9.58123
-0.23010,1.49621,-0.44803,-0.64455,0.97263,0.10353,2.18998,1.37746,0.23716,-4.66592,2.86587,2.91615,-0.04947,-0.92975,-0.36344,-0.03217,4.01260,2.37505,12.42415
-0.24342,1.51203,-0.44380,-0.70767,1.00818,0.14655,2.23849,1.50206,0.41258,-4.43174,2.37887,3.26450,-0.04761,-0.92409,-0.37887,-0.01586,4.95259,6.63240,13.78305
-0.25787,1.52829,-0.43796,-0.77555,1.04271,0.20466,2.36279,1.73497,0.52063,-4.30105,1.83891,3.91949,-0.04840,-0.91685,-0.39627,0.00439,7.34862,11.72784,8.77642
-0.27197,1.54376,-0.43193,-0.82430,1.06088,0.25450,2.49543,1.94127,0.57329,-4.02648,1.28246,4.36420,-0.05063,-0.90838,-0.41432,0.02504,10.24831,16.87527,6.44428
-0.28689,1.55902,-0.42485,-0.87282,1.07063,0.30783,2.59318,2.10370,0.66771,-4.04079,0.46669,4.78829,-0.05121,-0.89921,-0.43201,0.04654,10.13522,15.95900,7.04588
-0.30377,1.57348,-0.41552,-0.94012,1.06696,0.38282,2.67363,2.18300,0.89929,-4.12948,-0.70782,4.88543,-0.04612,-0.88946,-0.44951,0.06833,6.91291,3.91226,13.36612
-0.32072,1.58706,-0.40561,-0.99566,1.04977,0.44897,2.68305,2.17096,1.15488,-3.61587,-1.64803,4.78921,-0.03783,-0.88008,-0.46497,0.08854,4.88128,-1.92871,17.40145
-0.33747,1.60010,-0.39553,-1.03572,1.02755,0.50308,2.64047,2.05914,1.36671,-2.93757,-2.26372,4.48049,-0.02779,-0.87113,-0.47875,0.10567,1.67140,-10.02893,17.10122
-0.35469,1.61158,-0.38398,-1.07504,0.98789,0.56743,2.53026,1.86477,1.60448,-1.96754,-2.85013,3.77696,-0.01415,-0.86331,-0.48990,0.12039,-2.98916,-15.35809,13.41808
-0.37106,1.62211,-0.37257,-1.09686,0.94322,0.61816,2.41900,1.71940,1.76639,-1.35217,-3.62965,3.47273,-0.00174,-0.85546,-0.49997,0.13501,-5.36890,-14.79845,10.71501
-0.38709,1.63135,-0.36070,-1.10828,0.88793,0.66482,2.31261,1.57251,1.89635,-0.32274,-4.31421,3.20110,0.01112,-0.84755,-0.50928,0.14886,-4.60452,-11.94160,9.31032
-0.40230,1.63870,-0.34817,-1.10501,0.81542,0.71459,2.21411,1.42397,1.94094,0.62576,-4.95910,3.05670,0.02261,-0.83977,-0.51810,0.16077,-5.55782,-13.23289,2.61623
-0.41653,1.64591,-0.33590,-1.08777,0.75572,0.75138,2.19463,1.44157,1.90403,2.01403,-5.07659,2.92245,0.02991,-0.83002,-0.52852,0.17559,-2.78212,-3.51038,-0.86617
-0.42884,1.65162,-0.32271,-1.04641,0.68725,0.79400,2.20452,1.61625,1.72341,3.52673,-4.91324,3.08167,0.03004,-0.81874,-0.54004,0.19264,-2.31486,11.99945,-8.21525
-0.43904,1.65609,-0.30853,-0.98284,0.61284,0.84111,2.24031,1.83453,1.45384,4.48257,-4.42064,2.82250,0.02529,-0.80617,-0.55274,0.20960,-1.29126,15.87488,-13.97095
-0.44839,1.66074,-0.29450,-0.91825,0.55436,0.87599,2.26047,1.94797,1.18820,4.82159,-4.20726,2.33544,0.02022,-0.79360,-0.56541,0.22382,-1.02334,13.42154,-16.82086
-0.45738,1.66506,-0.28076,-0.86337,0.50459,0.89973,2.25676,2.01038,0.98963,4.51608,-4.18380,1.74136,0.01579,-0.78123,-0.57725,0.23710,-3.32889,8.07235,-16.58549
-0.46467,1.66762,-0.26675,-0.79435,0.43846,0.92066,2.21189,2.08520,0.79319,4.08745,-4.16883,0.87564,0.00955,-0.76905,-0.58806,0.25030,-4.45679,6.77891,-12.18441
-0.47205,1.66998,-0.25350,-0.74059,0.38187,0.92686,2.13141,2.11922,0.69827,3.72719,-3.98026,0.05667,0.00529,-0.75756,-0.59706,0.26380,-5.84890,5.31687,-6.03330
-0.47910,1.67190,-0.24088,-0.69152,0.33008,0.92098,2.00932,2.06066,0.64326,3.59302,-3.66253,-0.76404,0.00278,-0.74757,-0.60438,0.27542,-8.24965,-2.21593,-3.30320
-0.48548,1.67339,-0.22901,-0.64373,0.28358,0.90643,1.85920,1.88480,0.55042,3.49456,-3.07989,-1.21375,0.00107,-0.73982,-0.61061,0.28254,-10.54951,-10.62695,-5.20067
-0.49124,1.67473,-0.21773,-0.59830,0.24501,0.88870,1.72025,1.73606,0.47003,2.96209,-2.53933,-1.31128,-0.00078,-0.73264,-0.61621,0.28901,-11.29461,-12.04540,-7.46733
-0.49683,1.67579,-0.20661,-0.55862,0.20981,0.87061,1.60122,1.61601,0.43681,2.67765,-2.44557,-1.32034,-0.00187,-0.72543,-0.62132,0.29615,-9.20734,-7.96062,-2.96603
-0.50215,1.67660,-0.19556,-0.52267,0.17806,0.85407,1.52706,1.52824,0.42834,2.36935,-2.18711,-1.01677,-0.00247,-0.71757,-0.62673,0.30381,-6.38076,-7.45121,-1.60555
-0.50728,1.67691,-0.18446,-0.49164,0.14551,0.84209,1.51913,1.44942,0.44411,2.11837,-2.37478,-0.72419,-0.00186,-0.70859,-0.63306,0.31165,-1.48277,-5.10626,0.36304
-0.51249,1.67700,-0.17331,-0.46850,0.11715,0.83396,1.54608,1.35621,0.45843,1.74262,-2.35821,-0.50958,-0.00021,-0.69911,-0.64008,0.31866,1.35252,-7.15803,0.74136
-0.51767,1.67621,-0.16212,-0.44937,0.08230,0.82749,1.61880,1.21526,0.51663,1.07973,-2.45828,-0.42026,0.00464,-0.68900,-0.64784,0.32491,4.81492,-9.47912,1.88674
-0.52303,1.67515,-0.15102,-0.43669,0.05059,0.82135,1.69161,1.09960,0.62345,0.69234,-2.11720,-0.46667,0.01128,-0.67842,-0.65513,0.33231,6.50401,-9.46229,5.25917
-0.52853,1.67391,-0.14012,-0.42869,0.02270,0.81397,1.75038,0.92292,0.72846,0.59142,-1.95085,-0.67527,0.02027,-0.66862,-0.66201,0.33805,5.46865,-11.32028,6.51584
-0.53407,1.67247,-0.12962,-0.42255,-0.00262,0.80149,1.78765,0.69762,0.81956,0.42195,-1.72625,-1.10245,0.03120,-0.65978,-0.66846,0.34188,4.26025,-15.68202,3.85842
-0.53946,1.67066,-0.11987,-0.41546,-0.02842,0.78099,1.81404,0.41584,0.89992,0.59420,-1.57792,-1.48397,0.04448,-0.65203,-0.67447,0.34347,3.20888,-17.69233,3.41392
-0.54454,1.66884,-0.11077,-0.40513,-0.04966,0.75490,1.82980,0.14576,0.93159,0.63601,-1.20720,-1.80764,0.05780,-0.64478,-0.68047,0.34332,2.62715,-19.13053,-0.58900
-0.54953,1.66728,-0.10169,-0.39498,-0.06254,0.73364,1.84235,-0.00019,0.96873,0.98163,-0.95269,-1.79310,0.06991,-0.63655,-0.68617,0.34509,1.84542,-12.31816,1.76277
-0.55418,1.66574,-0.09327,-0.38240,-0.07242,0.70771,1.85781,-0.22427,0.96053,0.95427,-0.49277,-1.97995,0.08366,-0.62936,-0.69208,0.34341,2.19008,-14.82737,-2.64035
-0.55833,1.66444,-0.08557,-0.36526,-0.07691,0.67597,1.85718,-0.45121,0.96097,1.13268,-0.23759,-1.98931,0.09849,-0.62286,-0.69727,0.34081,0.72359,-14.55700,-1.89886
-0.56220,1.66305,-0.07791,-0.34729,-0.08192,0.64900,1.88930,-0.61862,0.94763,1.44997,-0.46023,-1.94500,0.11310,-0.61524,-0.70308,0.33817,2.50682,-11.60845,-1.40439
-0.56604,1.66159,-0.07021,-0.33296,-0.08681,0.62923,1.92423,-0.73604,0.92474,1.43111,-0.46298,-2.04602,0.12726,-0.60713,-0.70904,0.33535,4.24201,-11.97686,-3.65320
-0.56901,1.65992,-0.06362,-0.30932,-0.09348,0.59796,1.97226,-0.86878,0.91067,1.48789,-0.44086,-1.92039,0.14270,-0.59876,-0.71498,0.33156,3.25994,-8.05727,-1.09743
-0.57187,1.65817,-0.05711,-0.28844,-0.09999,0.57200,2.03643,-0.95201,0.90386,1.47571,-0.42569,-1.77911,0.15787,-0.58931,-0.72116,0.32820,4.61669,-6.19071,-1.70669
-0.57461,1.65640,-0.05053,-0.27001,-0.10542,0.55192,2.09864,-1.00071,0.88509,1.50135,-0.54174,-1.45813,0.17250,-0.57918,-0.72757,0.32473,5.14616,-4.56289,-1.40324
-0.57670,1.65416,-0.04434,-0.24613,-0.11647,0.53073,2.24061,-1.04016,0.87529,1.49104,-0.75680,-1.24403,0.18822,-0.56643,-0.73540,0.32081,8.68619,-2.05820,0.32767
-0.57875,1.65165,-0.03810,-0.22645,-0.12949,0.51426,2.36208,-1.03818,0.89557,1.26700,-1.18519,-1.05057,0.20363,-0.55281,-0.74283,0.31803,8.04602,-0.95672,0.20331
-0.58070,1.64821,-0.03198,-0.20885,-0.15332,0.49893,2.52988,-0.99212,0.96917,1.11367,-2.10306,-1.16612,0.21980,-0.53619,-0.75080,0.31698,9.94869,3.27997,5.42614
-0.58261,1.64374,-0.02643,-0.19456,-0.18732,0.47866,2.72623,-0.97599,1.05528,0.95982,-2.70431,-1.76843,0.23752,-0.51760,-0.75900,0.31559,13.21049,1.69756,7.78991
-0.58451,1.63839,-0.02192,-0.18296,-0.22718,0.44758,2.91106,-1.00453,1.16711,0.69306,-3.02888,-2.71855,0.25719,-0.49802,-0.76633,0.31395,13.28374,-1.85640,7.76747
-0.58633,1.63197,-0.01926,-0.17221,-0.27473,0.39459,3.10189,-1.09828,1.31141,0.74412,-2.86568,-4.02552,0.27989,-0.47715,-0.77254,0.31171,11.71633,-6.46397,9.15961
-0.58726,1.62455,-0.02217,-0.14762,-0.33267,0.25335,3.26444,-1.34710,1.51587,1.36669,-1.18956,-6.15260,0.30714,-0.45671,-0.77579,0.30858,5.04694,-10.22664,5.46102
-0.59022,1.61451,-0.02124,-0.13039,-0.34376,0.16219,3.27513,-1.52997,1.49622,1.29242,-0.49023,-7.03605,0.34931,-0.42174,-0.78180,0.29817,3.42922,-11.66087,-4.34595
-0.59089,1.60969,-0.02582,-0.11361,-0.34431,0.06085,3.24286,-1.75390,1.43795,1.21485,0.39990,-7.60188,0.37306,-0.40694,-0.78218,0.28884,0.69187,-13.76532,-6.11558
-0.59146,1.60567,-0.03230,-0.09852,-0.33264,-0.04792,3.13504,-2.01184,1.38741,0.87866,1.07596,-8.24153,0.39777,-0.39482,-0.77987,0.27876,-2.70732,-16.64142,-9.81731
-0.59190,1.60228,-0.03977,-0.08494,-0.31421,-0.14706,2.99393,-2.25785,1.43434,1.28645,2.08391,-8.77428,0.42420,-0.38330,-0.77447,0.27079,-6.84400,-19.90713,-3.61712
-0.59090,1.60043,-0.05145,-0.05264,-0.27747,-0.28765,2.73296,-2.62179,1.52928,2.95562,2.49443,-8.96837,0.45393,-0.37651,-0.76339,0.26350,-15.95101,-25.18653,-1.06844
-0.58820,1.59922,-0.06410,-0.00162,-0.23803,-0.41530,2.63133,-2.95571,1.50235,4.62243,3.36742,-9.06889,0.48378,-0.36778,-0.75327,0.25154,-5.99442,-23.75352,-6.61653
-0.58388,1.59926,-0.07708,0.06187,-0.18901,-0.51978,2.56556,-3.22393,1.38685,6.34694,4.93092,-8.36613,0.51211,-0.35958,-0.74323,0.23675,-1.66913,-22.82230,-10.06921
-0.57637,1.60238,-0.09202,0.15749,-0.10601,-0.62998,2.54670,-3.47498,1.03834,7.99570,7.13237,-7.40893,0.53766,-0.35422,-0.73462,0.21397,4.56591,-14.48305,-23.99566
-0.56569,1.60930,-0.10722,0.27952,0.01483,-0.72205,2.47532,-3.60235,0.52778,9.92693,10.30406,-6.20432,0.55734,-0.35312,-0.72784,0.18687,9.00079,-7.37219,-34.90395
-0.54853,1.62413,-0.12306,0.47559,0.23147,-0.80603,1.92048,-3.53418,0.01084,12.16522,14.15995,-3.79100,0.56773,-0.36526,-0.71848,0.16748,-21.19545,7.13227,-33.80398
-0.53324,1.63772,-0.13601,0.60324,0.38433,-0.83123,1.46154,-3.39151,-0.36962,14.00106,16.60736,-1.95397,0.57605,-0.37691,-0.70945,0.15096,-32.40042,12.52824,-37.05201
-0.51006,1.66043,-0.14777,0.81564,0.63302,-0.83355,0.48884,-3.00273,-0.85380,17.07877,19.40093,0.84859,0.57055,-0.40620,-0.69905,0.14422,-47.28010,26.73234,-50.66891
-0.47472,1.69499,-0.15500,1.16940,1.01223,-0.76742,-0.80681,-1.89277,-1.99456,23.18525,22.68904,5.80966,0.53262,-0.45551,-0.69953,0.13960,-61.23315,64.22471,-68.25253
-0.43932,1.72761,-0.16119,1.45457,1.28827,-0.70060,-1.50412,-0.89808,-3.12649,25.62890,23.44018,5.18604,0.48937,-0.49799,-0.70500,0.12449,-30.97386,78.34041,-104.49430
-0.39355,1.76758,-0.16670,1.83023,1.61198,-0.63923,-2.37261,0.20501,-4.59185,28.97026,22.98072,3.10210,0.42420,-0.55324,-0.70916,0.10521,-37.17529,82.22019,-110.46120
-0.33541,1.81344,-0.17440,2.31624,1.95826,-0.62216,-3.30541,1.15926,-6.62668,33.47365,19.68907,-0.87695,0.33709,-0.62075,-0.70448,0.06893,-39.12664,54.46542,-136.31240
-0.27424,1.85407,-0.18472,2.74676,2.15562,-0.64730,-3.84849,1.69403,-8.37443,40.01265,12.79991,-2.74412,0.24968,-0.67890,-0.69011,0.02271,-46.97348,44.41552,-139.16080
-0.19238,1.89193,-0.19747,3.39723,2.26890,-0.70264,-4.10539,1.82968,-10.70123,43.54454,0.12105,-2.89943,0.14617,-0.73337,-0.66169,-0.05446,-69.50722,-17.20648,-160.60540
-0.10715,1.91691,-0.21321,3.99569,2.16706,-0.78492,-4.53580,2.70170,-12.24826,56.74946,-18.52795,-12.95139,0.02724,-0.77229,-0.62588,-0.10533,-3.95598,2.55740,-113.61290
-0.00034,1.91920,-0.23592,4.78871,1.74371,-0.94833,-5.26065,5.55802,-14.04496,52.44862,-42.40873,-13.46439,-0.15967,-0.79295,-0.57585,-0.11890,26.47535,104.73930,-219.96210
0.11513,1.87931,-0.26363,5.54163,0.76468,-1.15942,-4.54350,10.21168,-14.39697,38.00422,-79.29233,-15.73462,-0.36632,-0.75307,-0.54342,-0.05822,180.38780,149.23540,-169.99890
0.21364,1.81733,-0.29420,5.84062,-0.32257,-1.37258,-1.97838,13.52228,-14.64397,9.80488,-97.96459,-16.56521,-0.54931,-0.64928,-0.52598,-0.00680,193.31820,36.75473,-282.36430
0.28706,1.71241,-0.32973,5.71046,-1.79495,-1.61052,2.59459,15.39442,-14.93859,-26.18114,-109.92030,-14.86512,-0.69696,-0.47100,-0.53947,0.03707,166.29690,-80.30615,-314.25710
0.32275,1.58912,-0.36945,5.06090,-3.22625,-1.85960,5.18233,13.32602,-16.94146,-62.65874,-97.26807,-15.56748,-0.78910,-0.30327,-0.53337,-0.02947,-119.47120,-107.04410,-259.92740
0.31791,1.46883,-0.40836,3.94063,-4.31186,-2.05175,4.16087,9.85719,-18.56608,-92.96060,-61.70896,-9.36411,-0.83496,-0.20344,-0.48792,-0.15296,-282.53600,43.29863,-50.15947
0.28186,1.36812,-0.43951,2.60594,-4.88755,-2.08631,1.91298,7.85944,-18.04918,-97.25783,-20.61976,4.22816,-0.85974,-0.16023,-0.42161,-0.23964,-201.65160,120.85030,107.62100
0.24184,1.28872,-0.46020,1.51171,-5.04361,-1.96492,0.75721,6.99017,-16.45763,-87.58950,-4.04302,14.98447,-0.87863,-0.12544,-0.36688,-0.27870,-63.92921,19.62255,166.23810
0.16269,1.22222,-0.46252,0.06085,-4.98174,-1.59761,-0.07411,5.94960,-14.43373,-76.29720,10.52369,24.63140,-0.88548,-0.10612,-0.33043,-0.30901,-29.14331,-7.00110,140.47570
0.09548,1.16609,-0.45922,-0.95350,-4.78201,-1.21560,-0.21975,4.99396,-13.79331,-69.41435,19.82502,29.99990,-0.89141,-0.04630,-0.29208,-0.34340,-38.88798,-32.57430,72.17336
0.02845,1.11919,-0.45098,-1.74270,-4.49347,-0.84565,-0.41102,4.13216,-13.80641,-62.96998,30.07104,31.65401,-0.88869,0.02889,-0.24829,-0.38439,-64.14700,-35.83712,30.43688
-0.05014,1.09245,-0.43291,-2.52213,-3.97158,-0.41046,-0.52626,3.17369,-14.08708,-48.21144,45.23236,30.66550,-0.87352,0.11608,-0.20670,-0.42515,-68.00812,-27.43966,-6.57039
-0.12361,1.09359,-0.40636,-3.07444,-3.14284,0.06596,-1.35870,2.23231,-14.73850,-18.62102,57.32613,29.28743,-0.83651,0.20691,-0.15749,-0.48233,-70.66258,0.98753,-19.63470
-0.16866,1.10469,-0.38133,-3.09695,-2.32725,0.42322,-2.11329,1.09453,-13.80595,16.67781,55.47585,21.93018,-0.79689,0.26139,-0.13944,-0.52650,-78.49168,12.05527,42.86543
-0.19014,1.11405,-0.36083,-2.77608,-1.71888,0.63555,-2.91007,0.48540,-11.89797,34.24170,45.30590,15.13233,-0.76489,0.27768,-0.13475,-0.56540,-98.78166,9.24306,154.40590
-0.18596,1.12746,-0.34308,-2.15293,-1.18490,0.76131,-3.87323,2.30464,-9.61823,50.51377,28.94660,4.60456,-0.75238,0.23701,-0.07767,-0.60969,7.33523,147.87780,108.68830
-0.15309,1.12759,-0.33324,-1.23255,-0.94624,0.74408,-3.52510,3.29499,-3.17529,59.44680,14.87371,-9.01900,-0.78937,0.08092,-0.11121,-0.59832,170.49010,229.11200,450.87020
-0.12607,1.12350,-0.33053,-0.58522,-0.81356,0.62776,-3.01300,3.69249,0.07454,49.72978,10.61313,-11.91997,-0.79984,-0.01298,-0.12619,-0.58665,99.12074,27.02814,220.23510
-0.09516,1.12037,-0.33335,-0.03123,-0.69773,0.46033,-2.12317,4.24200,2.79053,41.54495,10.87105,-15.40489,-0.81232,-0.11409,-0.13596,-0.55554,122.54140,119.40860,204.53100
-0.05681,1.12458,-0.34306,0.51681,-0.49940,0.22967,-1.08828,4.32691,4.95203,29.78125,15.01762,-14.59548,-0.81965,-0.20569,-0.15517,-0.51165,89.49007,61.10355,111.36820
-0.02694,1.13324,-0.35163,0.84184,-0.27468,0.05716,-0.18361,3.89713,6.44066,17.55199,17.50397,-10.45286,-0.81869,-0.27913,-0.18533,-0.46636,112.24710,10.43761,102.76620
-0.00159,1.14776,-0.35883,1.03722,-0.01068,-0.06059,0.16752,3.97052,6.87112,10.24360,20.69802,-5.88202,-0.81196,-0.33919,-0.18956,-0.43560,44.03462,12.32657,34.54999
0.02092,1.17074,-0.36389,1.15421,0.32649,-0.12198,-0.15562,3.74323,6.85092,5.53830,22.06304,-2.11963,-0.79453,-0.38766,-0.19215,-0.42605,-13.24676,3.81801,-1.68619
0.04101,1.19865,-0.36567,1.21428,0.67561,-0.12501,-0.79233,3.27618,6.89958,2.65190,20.84957,0.43145,-0.76692,-0.43382,-0.20119,-0.42796,-20.38045,-60.85463,4.32944
0.05973,1.22428,-0.36775,1.24093,0.91783,-0.13126,-1.08983,3.13045,7.11139,1.30626,20.11923,-1.63515,-0.73864,-0.48593,-0.20613,-0.41928,-18.05404,-16.05906,25.30647
0.07721,1.25491,-0.37170,1.24442,1.18066,-0.16425,-0.93434,2.54878,7.28623,-0.15431,18.63563,-4.04865,-0.71208,-0.52724,-0.22685,-0.40436,19.22182,-29.62438,11.78491
0.09321,1.28841,-0.37806,1.22416,1.43121,-0.22584,-0.32919,1.96735,7.43563,-3.49740,18.77157,-6.16898,-0.68962,-0.56251,-0.25587,-0.37754,51.35393,-17.47270,8.36404
0.10742,1.32527,-0.38584,1.18213,1.67985,-0.29456,0.53190,1.58673,7.79227,-4.59987,17.49910,-3.52973,-0.66591,-0.59917,-0.29052,-0.33639,80.69501,4.37307,11.91854
0.11827,1.36578,-0.39275,1.09911,1.93201,-0.33588,0.80249,1.68588,8.25553,-7.89990,17.52111,-0.64152,-0.63160,-0.64545,-0.31018,-0.29708,31.76235,17.65541,27.76000
0.12422,1.40974,-0.39688,0.95989,2.18082,-0.32746,0.41449,1.86581,8.81581,-12.15359,16.86451,2.81471,-0.58217,-0.69884,-0.31819,-0.26731,-17.25550,3.14264,40.84622
0.12427,1.45502,-0.39811,0.76343,2.39828,-0.27864,-0.57078,1.97838,9.35857,-16.00012,13.26622,5.12147,-0.51820,-0.75519,-0.31351,-0.25073,-41.35795,-23.55485,49.24044
0.12094,1.49866,-0.39827,0.55980,2.54632,-0.22636,-1.69847,1.91669,9.74594,-18.52507,11.46871,3.73026,-0.44597,-0.80697,-0.30113,-0.24336,-74.95169,-56.59278,49.19942
0.10903,1.54290,-0.39745,0.27690,2.66769,-0.17141,-2.11670,1.52565,10.21460,-21.95102,6.32891,2.52637,-0.36885,-0.84796,-0.30450,-0.22844,-17.32273,-44.61697,45.15094
0.08832,1.58158,-0.39675,-0.07865,2.68762,-0.12814,-2.08249,1.11989,10.39884,-23.49109,-3.53084,2.18786,-0.29862,-0.87666,-0.31403,-0.20900,19.31643,-14.72812,21.88020
0.06652,1.61201,-0.39660,-0.38139,2.58221,-0.10063,-1.92462,0.84797,10.06282,-20.76031,-11.63752,1.71443,-0.24254,-0.89554,-0.32012,-0.19157,21.19690,-12.26509,-14.16828
0.04632,1.63587,-0.39657,-0.59570,2.40709,-0.08066,-1.82862,0.67319,9.40540,-15.98199,-17.97357,1.89339,-0.19792,-0.90883,-0.32099,-0.17839,19.05617,-10.00424,-42.06598
0.02574,1.64682,-0.39557,-0.77077,2.08243,-0.05019,-1.68169,0.42763,7.99334,-7.25701,-22.35369,1.77471,-0.17981,-0.91316,-0.31925,-0.17855,12.90996,-21.83469,-79.85710
0.01181,1.65114,-0.39326,-0.81701,1.71809,-0.00524,-1.10100,0.36483,6.19122,0.05197,-23.11379,3.44781,-0.18658,-0.91022,-0.32465,-0.17690,32.45566,1.71793,-110.44860
0.00146,1.65967,-0.39067,-0.80212,1.49370,0.03362,-0.67688,0.33650,5.01750,2.55550,-22.05924,4.06122,-0.18608,-0.90909,-0.33052,-0.17227,36.73560,4.92860,-119.24170
-0.00532,1.65542,-0.38505,-0.73826,1.13140,0.10917,0.11235,0.41850,3.16651,4.31265,-18.07447,4.26456,-0.21875,-0.89729,-0.34317,-0.17106,38.91470,14.07178,-107.80640
-0.01237,1.65740,-0.38009,-0.69118,0.92951,0.16081,0.61991,0.55390,2.25731,4.17550,-15.43744,4.42440,-0.23287,-0.89075,-0.35496,-0.16229,37.03875,20.12708,-87.06894
-0.01895,1.65805,-0.37438,-0.64826,0.75431,0.21124,1.06731,0.66627,1.60927,3.54304,-13.61890,4.17868,-0.24559,-0.88349,-0.36874,-0.15218,34.28051,19.81549,-63.51337
-0.02377,1.65281,-0.36753,-0.58777,0.52729,0.26844,1.33368,0.71391,0.91884,3.87984,-12.01731,3.17328,-0.26219,-0.87524,-0.37928,-0.14616,18.67502,11.60352,-37.96372
-0.02911,1.65094,-0.36205,-0.54653,0.39215,0.29450,1.24079,0.60649,0.57441,3.32084,-10.96191,2.02823,-0.26844,-0.87174,-0.38332,-0.14515,-4.04956,-4.37503,-33.06245
