posX, posY, posZ, velX, velY, velZ, angVelX, angVelY, angVelZ, accX, accY, accZ, rotX, rotY, rotZ, rotW, angAccX, angAccY, angAccZ
0.24446,1.10924,-0.21068,0.12037,-0.28632,-0.02950,-1.83767,0.23989,-1.87416,-2.08973,1.84799,1.82463,-0.32550,-0.83293,-0.17669,-0.41117,76.78036,28.55447,9.49816
0.24408,1.10717,-0.20974,0.08720,-0.25465,-0.00731,-1.19212,0.35116,-1.49221,-1.96411,2.73798,2.19062,-0.33076,-0.83305,-0.18051,-0.40503,56.25077,11.67785,25.06535
0.24357,1.10654,-0.20834,0.05909,-0.20601,0.01748,-0.52384,0.41437,-1.08853,-1.71733,3.36538,1.19362,-0.33499,-0.83292,-0.18966,-0.39756,40.91133,0.54547,24.36098
0.24326,1.10433,-0.20693,0.03265,-0.15795,0.03001,-0.21770,0.42838,-0.72709,-2.17821,3.39168,1.14355,-0.33958,-0.83387,-0.19039,-0.39128,34.88727,3.58680,24.99368
0.24140,1.10734,-0.20644,0.00283,-0.10758,0.03839,0.05809,0.43752,-0.35282,-1.73832,3.88789,0.65265,-0.33361,-0.83601,-0.20141,-0.38630,14.12518,-1.88943,25.93892
0.24064,1.10861,-0.20463,-0.00911,-0.06230,0.05954,0.22565,0.29850,-0.07170,-0.55947,3.43245,2.37335,-0.33057,-0.83645,-0.20877,-0.38406,24.10474,-1.20093,25.68506
0.23948,1.11068,-0.20285,-0.02582,-0.01415,0.07500,0.31943,0.12204,0.21462,-1.38710,2.62529,0.15464,-0.32466,-0.83686,-0.21659,-0.38387,1.30683,-16.01333,18.28786
0.23851,1.11238,-0.20150,-0.03519,0.01692,0.07978,0.57314,0.16245,0.37629,-0.61850,2.38058,0.16473,-0.32354,-0.83752,-0.22661,-0.37753,18.33740,0.17647,15.01638
0.23757,1.11414,-0.20037,-0.04208,0.04139,0.07983,0.75798,0.18712,0.45513,-0.55198,1.27709,0.01065,-0.32337,-0.83765,-0.23606,-0.37155,17.31333,3.46385,8.48782
0.23668,1.11566,-0.19962,-0.04673,0.05649,0.07360,0.83457,0.20400,0.46194,-0.36009,0.42516,-0.44936,-0.32383,-0.83758,-0.24321,-0.36666,9.36485,1.66385,1.69091
0.23618,1.11665,-0.19929,-0.04363,0.05932,0.06197,0.72547,0.17898,0.36054,0.48908,-0.18528,-0.88126,-0.32477,-0.83727,-0.24511,-0.36527,-7.15822,-2.31283,-5.19666
0.23605,1.11729,-0.19904,-0.03564,0.05607,0.05201,0.57203,0.15220,0.23015,0.77021,-0.42820,-0.53372,-0.32630,-0.83687,-0.24463,-0.36515,-9.33742,-0.01311,-10.49590
0.23674,1.11722,-0.19941,-0.01849,0.04904,0.03981,0.11521,-0.06771,0.07736,1.09549,-0.47539,-0.54573,-0.32407,-0.83627,-0.23634,-0.37385,-26.21794,-12.35592,-7.99633
0.23714,1.11808,-0.19899,-0.00477,0.04504,0.03186,-0.14128,-0.20717,-0.03935,0.96463,0.09207,-0.97985,-0.32271,-0.83504,-0.23153,-0.38074,-23.06693,-12.14252,-10.42763
0.23760,1.11886,-0.19912,0.00395,0.04750,0.02240,-0.13353,-0.20168,-0.05021,0.51564,0.43159,-1.47125,-0.32258,-0.83452,-0.23102,-0.38229,-7.05860,-5.02309,-2.82665
0.23765,1.11863,-0.19993,0.00646,0.05309,0.00630,0.07206,-0.05927,-0.04327,0.10885,0.51337,-1.25921,-0.32486,-0.83497,-0.23380,-0.37767,14.36059,9.51731,-0.22645
0.23790,1.12010,-0.20062,0.01047,0.06354,-0.01322,0.11470,0.00993,-0.00504,0.36207,0.87301,-1.28290,-0.32540,-0.83506,-0.23507,-0.37620,7.90017,6.81127,2.18195
0.23812,1.12145,-0.20151,0.01311,0.07530,-0.03044,0.07949,0.06698,-0.00070,0.16188,1.13185,-1.24905,-0.32564,-0.83558,-0.23470,-0.37508,-1.63847,4.84405,2.11954
0.23830,1.12400,-0.20308,0.01171,0.09716,-0.05032,-0.08890,0.02809,0.02078,-0.30049,1.68362,-1.17467,-0.32393,-0.83643,-0.23219,-0.37622,-10.41654,-1.25473,0.54829
0.23830,1.12843,-0.20551,0.00687,0.12523,-0.06734,-0.18197,-0.00015,0.07575,-0.32934,2.49275,-1.46547,-0.32060,-0.83783,-0.22961,-0.37754,-8.45904,-3.41278,3.45890
0.23797,1.13280,-0.20785,0.00027,0.16789,-0.09029,-0.14653,0.03892,0.21296,-0.58838,3.83472,-2.30108,-0.31682,-0.83983,-0.23080,-0.37555,-0.57659,0.92933,7.22995
0.23721,1.13876,-0.21107,-0.01135,0.22601,-0.12252,0.05561,0.17787,0.46682,-0.72661,4.61519,-2.84791,-0.31198,-0.84326,-0.23716,-0.36790,11.01459,7.80938,16.39769
0.23629,1.14620,-0.21485,-0.02299,0.29486,-0.15608,0.46273,0.43657,0.72588,-0.95961,5.54188,-2.10661,-0.30934,-0.84700,-0.24913,-0.35332,22.66869,16.25280,17.83655
0.23560,1.15529,-0.21858,-0.02817,0.37579,-0.18168,0.23085,0.23125,0.90940,0.24423,4.33957,-0.06282,-0.29839,-0.85000,-0.25138,-0.35394,1.84735,-3.87700,14.77733
0.23576,1.16438,-0.22245,-0.01906,0.44010,-0.20400,-0.46975,-0.23514,0.88699,0.64151,4.66703,-2.24587,-0.28333,-0.85173,-0.24082,-0.36916,-51.50390,-38.94034,0.68347
0.23637,1.17411,-0.22679,-0.00484,0.49946,-0.22833,-0.78065,-0.46785,0.82997,1.64130,5.49933,-2.75954,-0.27260,-0.85261,-0.23411,-0.37939,-35.86528,-27.66238,-4.60697
0.23804,1.18657,-0.23233,0.02338,0.58984,-0.26688,-0.63096,-0.49979,0.74682,1.81342,6.35631,-3.37923,-0.26831,-0.85208,-0.23553,-0.38276,2.39277,-6.97758,-5.10232
0.23971,1.20058,-0.23827,0.04513,0.68626,-0.30330,-0.15816,-0.34958,0.78158,1.32652,7.73560,-2.56160,-0.26697,-0.85192,-0.24583,-0.37753,30.44061,12.87628,-0.14825
0.24109,1.21697,-0.24413,0.05720,0.79993,-0.32991,0.41374,-0.26865,0.95912,0.83914,8.72819,-1.15066,-0.26381,-0.85088,-0.26347,-0.37013,38.52433,10.36357,11.56796
0.24255,1.23546,-0.24874,0.06803,0.92172,-0.32950,0.85353,-0.51620,1.11717,0.86268,8.85197,1.52253,-0.25769,-0.84613,-0.28400,-0.37015,37.03553,-4.78743,14.37764
0.24384,1.25602,-0.25247,0.07314,1.05080,-0.31543,1.37578,-0.84048,1.25970,-0.16350,9.86782,0.71282,-0.25172,-0.83781,-0.31015,-0.37218,32.03760,-27.53604,7.77506
0.24406,1.27910,-0.25594,0.05916,1.19105,-0.29994,2.10550,-0.96806,1.48857,-2.11671,10.56480,0.55645,-0.24702,-0.82796,-0.34471,-0.36693,49.74839,-10.61996,15.67427
0.24205,1.30473,-0.25947,0.01185,1.34065,-0.28935,2.92018,-0.87825,1.91260,-4.21128,11.22441,0.48487,-0.24005,-0.81809,-0.38629,-0.35197,55.89557,4.70227,28.62078
0.23822,1.33253,-0.26293,-0.05401,1.49159,-0.27968,3.81159,-0.53072,2.50844,-4.81675,10.09849,0.92430,-0.23096,-0.80808,-0.43419,-0.32426,58.04548,16.93526,47.73153
0.23366,1.36001,-0.26621,-0.11589,1.60010,-0.26949,4.36333,-0.23522,2.89233,-5.69074,7.82620,1.62970,-0.22230,-0.79700,-0.47702,-0.29636,53.11312,27.20699,49.14748
0.22735,1.38972,-0.26839,-0.19149,1.72079,-0.24352,4.54162,-0.12160,3.14104,-4.44866,6.19086,2.80389,-0.21079,-0.78584,-0.51328,-0.27307,16.59631,9.16474,24.36700
0.22102,1.41868,-0.26983,-0.25204,1.80453,-0.21094,4.26984,-0.29381,3.05754,-4.43458,5.43508,3.05530,-0.19920,-0.77547,-0.53827,-0.26312,-11.40240,-9.43035,-5.62885
0.21405,1.44767,-0.27078,-0.30840,1.86808,-0.17838,3.84605,-0.59877,2.89184,-4.99824,4.83783,3.12139,-0.18566,-0.76575,-0.55791,-0.26057,-25.62819,-23.34171,-18.96491
0.20458,1.47811,-0.27011,-0.39232,1.94017,-0.12681,3.12840,-1.13772,2.56321,-5.72063,4.03329,3.84866,-0.16907,-0.75823,-0.56834,-0.27111,-37.33974,-33.96745,-29.23925
0.19380,1.50810,-0.26847,-0.47995,1.98930,-0.07062,2.69287,-1.56116,2.35569,-6.82446,3.59468,3.84613,-0.15184,-0.74864,-0.58152,-0.27985,-31.00443,-36.72885,-29.38297
0.18250,1.53759,-0.26653,-0.55348,2.01814,-0.02391,2.70405,-1.63816,2.43720,-7.95806,3.56006,4.07429,-0.13527,-0.73628,-0.60280,-0.27611,-13.21116,-21.87267,-13.23228
0.16527,1.56752,-0.26159,-0.70523,2.04852,0.06042,3.05911,-1.46611,3.05590,-8.43245,0.58477,4.60268,-0.11174,-0.72117,-0.63459,-0.25441,17.42756,8.41525,39.86192
0.14845,1.59579,-0.25744,-0.82081,2.04685,0.11594,3.11553,-1.47706,3.44994,-8.18977,-1.19048,3.81830,-0.08624,-0.70696,-0.66021,-0.23851,6.34647,-1.48356,31.73562
0.13041,1.62284,-0.25348,-0.92945,2.02423,0.15546,2.93733,-1.62590,3.74614,-7.37716,-2.56214,2.40323,-0.05656,-0.69453,-0.68050,-0.22659,-7.95302,-15.11523,19.96276
0.11106,1.64792,-0.24997,-1.03614,1.97540,0.17858,2.63957,-1.79622,4.01477,-6.29244,-3.47093,0.23552,-0.02391,-0.68389,-0.69662,-0.21553,-16.64948,-21.04043,8.21270
0.09263,1.67234,-0.24742,-1.10299,1.92631,0.18093,2.44549,-1.66100,4.36051,-4.95589,-4.26755,-0.23211,0.00655,-0.67391,-0.71258,-0.19504,-18.69309,-5.52981,24.81378
0.07389,1.69444,-0.24501,-1.15902,1.84960,0.18065,2.24640,-1.35346,4.75293,-2.30106,-5.45164,-0.57624,0.03604,-0.66538,-0.72663,-0.16728,-20.20944,6.44268,25.54133
0.05722,1.71490,-0.24345,-1.16808,1.76281,0.16657,2.07050,-0.86988,4.96751,1.41575,-7.73667,-1.76647,0.05851,-0.65757,-0.73877,-0.13561,-18.02398,26.49043,27.81602
0.04377,1.73458,-0.24234,-1.12199,1.68439,0.14887,1.69207,-0.62636,4.40196,6.41410,-7.72967,-0.35857,0.06932,-0.65471,-0.74276,-0.12189,-33.91463,23.46177,-15.74769
0.03507,1.75242,-0.24111,-1.00990,1.59441,0.13686,1.32545,-0.55375,2.99025,9.76321,-6.36705,-0.82756,0.06208,-0.65477,-0.74155,-0.13242,-26.86061,6.40526,-93.74923
0.03030,1.77002,-0.23927,-0.85692,1.52112,0.13541,1.09237,0.02896,1.64287,11.31662,-3.82704,-0.78801,0.03780,-0.65680,-0.74031,-0.13828,-22.08309,28.21949,-104.74150
0.02843,1.78726,-0.23649,-0.69078,1.45737,0.14982,0.94201,1.10280,0.67757,8.19173,-3.65367,1.07577,0.00135,-0.66051,-0.73964,-0.12904,-22.27327,74.98443,-61.36424
0.02350,1.80399,-0.23374,-0.61364,1.39933,0.16081,0.86849,2.27583,0.78086,4.35369,-3.43187,0.26935,-0.02551,-0.66253,-0.74263,-0.09438,-7.73249,79.32962,-19.58806
0.01748,1.81916,-0.23049,-0.57344,1.33155,0.17794,0.70175,3.65631,1.45265,1.23646,-4.90450,2.29784,-0.05075,-0.66643,-0.74300,-0.03528,-10.89886,106.20240,52.83369
0.00885,1.83292,-0.22651,-0.58414,1.25588,0.20305,0.68733,4.08185,1.95718,-1.61272,-5.93226,3.47250,-0.06240,-0.66448,-0.74462,0.01035,0.77016,50.27924,45.11734
-0.00221,1.84546,-0.22154,-0.63213,1.17695,0.23880,0.59850,3.59212,2.14302,-3.67922,-6.24902,3.79697,-0.05940,-0.66277,-0.74568,0.03409,7.55583,-19.83675,20.72429
-0.01523,1.85618,-0.21482,-0.70192,1.08474,0.29649,0.55171,2.60149,2.03174,-4.47773,-5.95839,3.42813,-0.04788,-0.66072,-0.74809,0.03909,1.27630,-66.03171,-9.88911
-0.02776,1.86704,-0.20852,-0.74726,1.01591,0.33336,0.45462,1.95811,1.96070,-2.93884,-5.68569,2.69666,-0.03876,-0.65996,-0.74882,0.04703,5.62770,-52.15327,-5.81213
-0.04031,1.87657,-0.20168,-0.78259,0.94071,0.37057,0.14158,1.10380,1.65283,-2.30052,-4.39306,1.77491,-0.02647,-0.66492,-0.74530,0.04138,-17.78505,-60.43500,-23.33416
-0.05280,1.88464,-0.19515,-0.81044,0.85594,0.39627,0.03041,0.37388,1.54938,-1.08194,-5.85445,2.11064,-0.01045,-0.66684,-0.74413,0.03854,-3.27986,-41.61571,-0.59265
-0.06482,1.89319,-0.18842,-0.82322,0.80019,0.41789,0.08464,-0.16174,1.44614,-1.47732,-5.18294,2.44321,0.00473,-0.66564,-0.74543,0.03519,0.54778,-53.65622,-16.10848
-0.07700,1.89889,-0.18077,-0.83461,0.71156,0.44787,0.28841,-0.72237,1.63278,0.09372,-5.23236,1.06735,0.02908,-0.66041,-0.74954,0.03468,17.96894,-36.75792,11.87049
-0.08743,1.90506,-0.17407,-0.81419,0.64993,0.45555,0.32307,-0.97841,1.83606,2.60656,-3.85679,-0.82127,0.05038,-0.65765,-0.75061,0.03913,9.03704,-23.39856,13.08575
-0.09628,1.91218,-0.16855,-0.77416,0.61921,0.44246,0.09915,-1.09112,1.81045,5.80757,-3.78215,-2.12929,0.06600,-0.66072,-0.74658,0.04136,-6.07868,-10.84707,14.06334
-0.09887,1.91810,-0.16562,-0.64178,0.57577,0.39051,-0.45223,-1.52647,0.85030,8.70179,-1.72672,-3.45604,0.07025,-0.67380,-0.73542,0.01470,-25.46274,-34.43362,-59.32849
-0.09946,1.92461,-0.16280,-0.50407,0.55034,0.34732,-0.79203,-1.12010,0.47917,10.19963,-1.56533,-3.71474,0.06532,-0.68390,-0.72655,0.01186,-22.76888,10.86627,-37.41238
-0.09753,1.93026,-0.15984,-0.35704,0.51623,0.31693,-0.91087,-0.26631,0.30706,8.82400,-2.47884,-0.89904,0.05048,-0.69064,-0.72108,0.02256,-19.00185,50.88256,-25.66369
-0.09594,1.93370,-0.15533,-0.24981,0.45400,0.31888,-0.55560,0.63784,0.51872,6.59219,-5.38242,1.56398,0.03738,-0.68649,-0.72471,0.04620,17.10189,75.20351,14.86431
-0.09599,1.93497,-0.14963,-0.19441,0.37045,0.33987,0.03633,0.95565,0.55251,2.46311,-6.48682,2.38372,0.03029,-0.67543,-0.73444,0.05892,38.01945,39.34489,2.95340
-0.09813,1.93583,-0.14400,-0.18561,0.30117,0.35417,0.47731,0.61752,0.36994,0.35565,-5.25896,1.28333,0.03225,-0.66538,-0.74380,0.05466,42.08632,-11.65616,-11.11870
-0.10072,1.93652,-0.13897,-0.18541,0.24546,0.35398,0.68804,0.17568,0.24619,0.30925,-2.10514,-1.41322,0.03878,-0.65822,-0.75035,0.04707,21.25585,-28.21315,-6.78973
-0.10247,1.93970,-0.13586,-0.17121,0.24205,0.32181,0.38699,-0.12129,-0.03334,1.13496,0.76761,-2.98821,0.03998,-0.66177,-0.74773,0.03703,-14.21112,-21.56000,-18.23160
-0.10404,1.94367,-0.13329,-0.15756,0.25191,0.28895,0.03871,-0.11062,-0.08251,0.26655,0.57161,-2.04868,0.03890,-0.66758,-0.74267,0.03556,-28.33685,-2.20027,-9.71522
-0.10621,1.94692,-0.13035,-0.15723,0.24739,0.27039,-0.11073,-0.18700,-0.11483,-0.09517,-1.07082,-0.80071,0.03993,-0.67092,-0.73974,0.03265,-17.33115,0.87251,1.39747
-0.10895,1.94894,-0.12717,-0.16634,0.22369,0.26028,-0.13405,-0.46910,-0.26531,-0.78867,-2.22961,-0.26763,0.04360,-0.67257,-0.73842,0.02214,-4.27155,-18.28916,-9.74459
-0.11180,1.94957,-0.12366,-0.17481,0.18211,0.25775,0.01556,-0.70380,-0.32234,-0.04039,-2.41505,-0.56360,0.04896,-0.67036,-0.74031,0.01236,7.48799,-15.62457,-4.47934
-0.11367,1.95051,-0.12056,-0.16518,0.15563,0.24883,0.04579,-0.71037,-0.32281,1.46321,-2.27502,-1.43890,0.05130,-0.66974,-0.74079,0.00722,7.56872,-6.44207,1.37661
-0.11394,1.95094,-0.11846,-0.13122,0.12729,0.22582,-0.00214,-0.79530,-0.64184,4.02397,-2.61206,-1.59672,0.04891,-0.67108,-0.73974,-0.00632,-2.58298,-0.63145,-10.87244
-0.11226,1.95169,-0.11771,-0.06796,0.09561,0.19504,-0.01919,-0.73463,-1.08739,3.27967,-1.53981,-2.30931,0.03969,-0.67215,-0.73899,-0.02288,-3.11601,-9.17381,-42.01910
-0.11079,1.95288,-0.11693,-0.02143,0.07177,0.17656,0.11181,-0.20913,-0.93926,3.86469,-2.01324,-1.65259,0.02972,-0.66944,-0.74205,-0.01827,11.68675,37.12673,7.11866
-0.10839,1.95409,-0.11671,0.02849,0.05130,0.15571,0.24555,0.34927,-0.88544,3.29892,-1.74068,-1.21826,0.01486,-0.66591,-0.74580,-0.01155,11.63241,40.99417,7.06588
-0.10639,1.95384,-0.11562,0.05453,0.03328,0.13852,0.44668,0.88174,-0.68320,0.24355,-0.59183,-1.27032,0.00083,-0.65982,-0.75142,0.00060,16.17626,36.11264,6.86788
-0.10662,1.95375,-0.11430,0.03755,0.02380,0.12710,0.67054,1.32020,-0.27106,-2.87761,-0.56280,-0.08120,-0.00866,-0.65178,-0.75811,0.01939,17.65079,36.30418,28.15935
-0.10935,1.95359,-0.11268,-0.01502,0.01559,0.12327,0.98270,1.32743,-0.14825,-5.37104,-0.77196,0.39051,-0.01436,-0.64053,-0.76732,0.02712,23.19086,14.08532,24.48458
-0.11727,1.95393,-0.11219,-0.13863,0.01806,0.10241,0.99866,0.48480,0.08753,-8.26970,0.90184,-2.18590,0.00284,-0.63499,-0.77224,0.02075,7.33401,-53.22521,15.40336
-0.12864,1.95652,-0.11333,-0.29481,0.05730,0.05835,0.43569,-0.54639,0.71336,-8.96884,3.03462,-3.59287,0.03617,-0.64236,-0.76535,0.01755,-23.93378,-57.17273,38.51713
-0.14022,1.96040,-0.11570,-0.41986,0.10883,0.00416,-0.21615,-1.60318,0.90373,-8.56442,3.25582,-4.48859,0.06969,-0.65434,-0.75297,0.00285,-44.58067,-82.18971,10.34116
-0.15199,1.96430,-0.11972,-0.51816,0.14853,-0.06467,-0.80894,-2.63158,0.80464,-5.29931,1.63341,-5.16182,0.10340,-0.66749,-0.73710,-0.02121,-39.77272,-76.78640,-0.59369
-0.16264,1.96722,-0.12459,-0.57488,0.16257,-0.13120,-1.12863,-3.33795,0.63577,-3.73030,1.42823,-5.50864,0.13330,-0.67675,-0.72254,-0.04674,-19.77605,-76.04791,-30.36837
-0.17163,1.96913,-0.12991,-0.59062,0.15643,-0.18974,-1.24096,-3.37686,0.78625,0.84486,-1.81331,-3.68283,0.15741,-0.68259,-0.71151,-0.05514,-17.34171,0.63365,19.75497
-0.17856,1.96981,-0.13516,-0.56811,0.13168,-0.23404,-1.15407,-3.34808,0.61551,2.24097,-2.18118,-2.76501,0.17434,-0.68512,-0.70384,-0.06943,6.20679,-3.68270,-10.93807
-0.18395,1.96939,-0.14019,-0.52525,0.09469,-0.26442,-0.96429,-3.18645,0.48234,4.34557,-2.71053,-1.48254,0.18790,-0.68515,-0.69905,-0.08120,12.55592,12.64360,-5.77666
-0.18667,1.96880,-0.14468,-0.44690,0.06308,-0.27850,-0.77511,-2.67110,0.36703,4.75277,-1.05160,-1.06120,0.19297,-0.68519,-0.69700,-0.08635,15.96728,21.76544,-14.43521
-0.18937,1.96864,-0.14852,-0.38694,0.04662,-0.27935,-0.68286,-2.05394,0.46467,5.12750,-1.50564,0.56291,0.19702,-0.68626,-0.69533,-0.08214,2.94246,55.47533,9.60310
-0.19126,1.96802,-0.15195,-0.32878,0.02643,-0.27320,-0.55585,-1.55889,0.50474,3.02336,-1.42729,0.70171,0.19955,-0.68625,-0.69504,-0.07844,8.99352,38.34353,-0.95158
-0.19434,1.96644,-0.15508,-0.30400,-0.00586,-0.26313,-0.40667,-1.18275,0.83864,0.90938,-2.69029,0.17068,0.20813,-0.68355,-0.69620,-0.06893,7.44229,26.20968,14.75459
-0.19849,1.96473,-0.15841,-0.30246,-0.03226,-0.25867,-0.21082,-1.34583,0.90151,0.27978,-2.11299,0.85410,0.22224,-0.67884,-0.69607,-0.07261,10.70489,7.44209,22.19746
-0.20317,1.96355,-0.16220,-0.30986,-0.04279,-0.26337,-0.13630,-1.73722,0.88551,-1.14968,0.44815,-1.40188,0.24079,-0.67504,-0.69241,-0.08311,12.08939,-29.63859,-2.85500
-0.20789,1.96340,-0.16696,-0.31604,-0.03370,-0.28265,-0.21452,-2.22871,0.88354,0.77657,1.44077,-0.53512,0.26362,-0.67325,-0.68421,-0.09542,-7.98499,-20.87407,11.59533
-0.21209,1.96438,-0.17192,-0.31260,-0.00840,-0.30057,-0.37548,-2.46045,0.85798,-0.20856,2.43840,-2.44750,0.28302,-0.67366,-0.67447,-0.10571,-0.64888,-37.94353,-18.07115
-0.21606,1.96563,-0.17735,-0.30653,0.01465,-0.32119,-0.51219,-2.56572,0.96992,0.44990,1.92653,-1.78873,0.30366,-0.67342,-0.66476,-0.11130,-15.90342,-9.29426,7.64808
-0.22008,1.96744,-0.18346,-0.30271,0.04226,-0.34877,-0.67106,-2.62497,1.29345,0.23468,1.42189,-1.09639,0.32849,-0.67208,-0.65430,-0.11092,-13.60215,-0.68526,17.14009
-0.22364,1.96919,-0.18948,-0.29139,0.06353,-0.36973,-0.65951,-2.88583,1.36904,1.78153,1.38923,-1.43275,0.35336,-0.66799,-0.64397,-0.11923,-1.27409,-13.92440,11.53575
-0.22607,1.97114,-0.19603,-0.26398,0.08227,-0.39391,-0.62057,-3.25640,1.27047,3.07230,1.31765,-2.22924,0.37817,-0.66338,-0.63154,-0.13444,5.82966,-26.40573,-2.19338
-0.22605,1.97330,-0.20410,-0.20144,0.09894,-0.43728,-0.60388,-3.77670,1.21737,4.93405,0.76139,-3.31004,0.40740,-0.65693,-0.61545,-0.15391,6.37269,-35.44823,-5.75539
-0.22400,1.97457,-0.21235,-0.11969,0.09716,-0.47353,-0.73975,-3.86397,1.48258,8.71651,-0.13075,-3.55373,0.43685,-0.65096,-0.59999,-0.15948,-5.94804,-16.87819,12.44065
-0.21384,1.97626,-0.22130,0.08031,0.10366,-0.51222,-0.93960,-3.75255,1.51720,16.32154,1.25468,-1.69957,0.46008,-0.64881,-0.58370,-0.16333,-13.77690,2.65666,5.98655
-0.19666,1.97964,-0.22769,0.35469,0.13815,-0.49759,-1.13505,-3.26873,1.16059,24.93806,3.47385,4.87035,0.46921,-0.65400,-0.56983,-0.16562,-29.36983,28.82033,-10.56653
-0.16939,1.98647,-0.22917,0.73477,0.22279,-0.40404,-0.90657,-2.47850,-0.12873,30.96687,6.75049,8.94828,0.44971,-0.66698,-0.56508,-0.18326,29.56800,39.56055,-84.04727
-0.13176,1.99578,-0.22459,1.20057,0.32889,-0.22943,-0.51785,-0.99502,-1.89964,37.57537,7.55844,16.00913,0.39804,-0.68980,-0.57095,-0.19940,32.46563,91.95146,-109.52180
-0.08761,2.00559,-0.21564,1.65700,0.41674,-0.02693,-0.04793,0.75936,-3.89623,40.15232,5.40167,16.93755,0.31792,-0.71708,-0.58143,-0.21603,72.31045,109.28730,-171.88450
-0.02947,2.01286,-0.19992,2.23061,0.44083,0.23645,-0.01509,3.36019,-6.14596,43.14322,-2.35205,18.22555,0.19642,-0.75563,-0.58759,-0.21253,53.57250,161.92620,-167.37470
0.04060,2.00869,-0.17921,2.86889,0.26883,0.52101,1.75000,6.68457,-8.18735,47.37640,-20.51826,20.96669,0.02917,-0.75504,-0.62440,-0.19796,126.94180,209.45360,-170.87960
0.12519,1.98360,-0.15823,3.60626,-0.21590,0.74338,4.14559,9.05655,-10.99475,42.66240,-43.98203,7.21421,-0.16762,-0.71453,-0.64666,-0.20778,116.72230,111.60570,-221.72540
0.20137,1.94090,-0.14904,4.03230,-0.87616,0.72054,6.16855,10.34235,-12.99914,26.12969,-64.49215,-9.52907,-0.34607,-0.64266,-0.64823,-0.21683,111.57270,83.63873,-228.29690
0.26677,1.86964,-0.15315,4.17371,-1.83870,0.48693,8.22237,11.19722,-14.08090,-5.81014,-68.79801,-20.28915,-0.50525,-0.53798,-0.64100,-0.21074,95.07514,49.71705,-179.80400
0.29935,1.77643,-0.17641,3.72641,-2.96458,-0.02484,9.31571,9.42297,-14.89264,-38.87439,-51.23198,-31.98803,-0.60427,-0.42587,-0.62644,-0.24712,-49.13870,-68.82308,-113.16820
0.32076,1.70763,-0.19939,3.20228,-3.42824,-0.41147,8.03054,8.08002,-15.45619,-48.55306,-27.65851,-31.18098,-0.68088,-0.35302,-0.57286,-0.28915,-141.57770,5.97771,-35.98107
0.32430,1.64671,-0.22791,2.51121,-3.64188,-0.79249,5.35951,7.38241,-15.01889,-48.86921,-3.75527,-22.79098,-0.73405,-0.32484,-0.49841,-0.32746,-155.80780,101.95520,105.29660
0.31935,1.59824,-0.25228,1.83833,-3.59297,-1.01477,3.54913,6.95669,-13.44055,-45.32036,12.74092,-8.05636,-0.77032,-0.30794,-0.44113,-0.34232,-65.32018,44.52430,144.34420
0.30968,1.56092,-0.26875,1.24837,-3.37213,-1.05162,1.84914,6.20704,-10.98271,-38.27180,16.70018,3.08165,-0.78278,-0.31729,-0.40349,-0.35182,-64.16427,16.09343,232.19590
0.29615,1.52652,-0.27881,0.73196,-3.15852,-0.97441,0.87517,4.92743,-9.53813,-35.92996,14.79047,7.08403,-0.78961,-0.30481,-0.37832,-0.37481,-84.38757,-57.31942,137.72200
0.28207,1.49238,-0.28679,0.33486,-2.99062,-0.88375,0.34185,4.05545,-8.96405,-31.80911,15.38799,7.01919,-0.80232,-0.27666,-0.34690,-0.39926,-72.01460,-41.73736,84.74142
0.26229,1.46404,-0.29343,-0.05611,-2.76831,-0.79425,0.46832,3.24772,-8.49375,-24.85165,18.77151,4.97187,-0.81648,-0.23830,-0.32533,-0.41320,-30.21452,-52.12202,39.02192
0.24242,1.44577,-0.30003,-0.36399,-2.43027,-0.72244,0.88693,2.61434,-8.00592,-13.41059,24.51774,4.18812,-0.83197,-0.19726,-0.30841,-0.41690,6.06032,-49.46799,25.06717
0.23086,1.43100,-0.30672,-0.46710,-2.11547,-0.66772,1.27373,1.90191,-7.25798,-2.75784,28.16558,4.73228,-0.84258,-0.16159,-0.30151,-0.41599,6.46044,-62.66585,32.88870
0.22507,1.42648,-0.31150,-0.45166,-1.71142,-0.59521,1.68451,1.01749,-6.11604,4.62692,30.39735,5.69405,-0.84723,-0.13511,-0.31181,-0.40832,7.40336,-81.06694,77.02091
0.22791,1.43121,-0.31173,-0.29499,-1.24307,-0.46274,1.39249,0.14508,-4.54692,18.31718,23.58915,13.58984,-0.84076,-0.12957,-0.33051,-0.40877,-6.44242,-60.88381,76.81665
0.24063,1.43502,-0.30798,-0.01045,-0.89006,-0.29650,0.12090,0.07948,-1.83083,20.43768,28.17381,10.12484,-0.82083,-0.18147,-0.34698,-0.41583,-111.51490,-15.61638,212.13360
0.25618,1.44185,-0.30401,0.24968,-0.57512,-0.16574,-0.74203,-0.08468,0.23295,21.50780,25.28276,10.98000,-0.79848,-0.22975,-0.36585,-0.41928,-62.31755,-9.86140,161.13560
0.27861,1.45819,-0.29642,0.56064,-0.17796,-0.00582,-2.06283,0.15476,2.69914,16.49967,24.23968,9.21057,-0.76122,-0.31036,-0.37980,-0.42424,-87.04889,24.36237,159.58710
0.29747,1.47694,-0.28854,0.74887,0.17930,0.12543,-3.02075,0.18022,4.48641,7.71422,21.66609,6.80245,-0.71895,-0.38170,-0.39359,-0.42721,-66.80667,9.65750,119.12410
0.31097,1.49538,-0.28193,0.80233,0.45205,0.20684,-3.53150,-0.00074,5.36482,0.03037,18.57096,4.58242,-0.67873,-0.43466,-0.40645,-0.43033,-35.45877,-6.77609,83.35136
0.32048,1.51560,-0.27641,0.77553,0.68969,0.25079,-3.93974,-0.14651,5.78141,-4.04161,16.23928,1.55512,-0.63829,-0.48046,-0.41463,-0.43569,-30.69574,-11.39440,36.88359
0.32656,1.53700,-0.27245,0.69658,0.89031,0.25756,-4.09985,-0.41036,6.01359,-7.04715,13.23390,-0.85279,-0.59702,-0.51942,-0.42524,-0.43925,-9.31712,-18.10284,22.59475
0.33049,1.55760,-0.26997,0.60152,1.02837,0.23837,-4.03151,-0.65805,6.16977,-8.74082,10.48732,-2.73003,-0.55642,-0.55355,-0.43755,-0.43879,4.09463,-14.65528,18.60760
0.32967,1.57997,-0.26976,0.45078,1.16233,0.18592,-3.64462,-1.01987,6.37295,-9.85836,7.16859,-4.47782,-0.51539,-0.58166,-0.45750,-0.43214,26.37792,-10.21764,17.21397
0.32767,1.60089,-0.27151,0.31289,1.24286,0.11152,-3.00924,-1.16086,6.67023,-10.11422,4.92447,-6.57714,-0.47682,-0.60808,-0.48015,-0.41514,41.71008,5.00683,22.71914
0.32465,1.62089,-0.27527,0.19057,1.28786,0.02251,-2.82589,-0.90200,6.77682,-11.76710,0.51076,-7.02355,-0.43955,-0.63894,-0.48982,-0.39829,33.82591,28.56273,23.77044
0.31767,1.63822,-0.28307,0.03178,1.27734,-0.11157,-3.02769,-0.37571,6.26861,-8.91009,-1.69138,-9.21124,-0.41166,-0.66859,-0.48054,-0.39064,-37.48814,14.96547,-42.04102
0.31103,1.65315,-0.29137,-0.08680,1.22967,-0.22479,-2.65382,-0.02170,6.01667,-7.68271,-4.24291,-8.03939,-0.38719,-0.69171,-0.48268,-0.37234,12.45839,28.87352,-24.54692
0.30472,1.66642,-0.29988,-0.17112,1.16557,-0.31363,-2.23440,0.26925,5.81708,-6.40588,-6.25519,-7.11785,-0.36446,-0.71207,-0.48670,-0.35107,22.72732,32.31567,-20.44519
0.29682,1.67570,-0.31041,-0.26110,1.05000,-0.41348,-1.59914,0.66288,5.52928,-4.92777,-8.21294,-5.60707,-0.35016,-0.72770,-0.49277,-0.32407,26.76888,33.11253,-22.04424
0.29006,1.68380,-0.31988,-0.31223,0.94190,-0.47345,-1.26206,0.98173,5.18803,-3.74895,-10.35818,-3.97366,-0.33632,-0.74311,-0.49461,-0.30007,26.83504,36.02847,-25.97185
0.28338,1.68822,-0.32973,-0.34977,0.80009,-0.52558,-1.13094,1.27122,4.54441,-1.95837,-9.98749,-3.28473,-0.32997,-0.75608,-0.48945,-0.28267,-0.24332,18.58162,-48.01589
0.27709,1.69095,-0.33949,-0.37283,0.66349,-0.56349,-0.99414,1.63619,4.08492,-1.39303,-9.72104,-2.04355,-0.32511,-0.76967,-0.48363,-0.26078,2.90169,25.69466,-37.19881
0.27071,1.69199,-0.34892,-0.39233,0.53073,-0.58739,-1.27361,1.87121,3.58225,-1.34591,-9.92440,-0.59096,-0.31890,-0.78622,-0.46860,-0.24612,-18.74429,15.60696,-33.63283
0.26396,1.68992,-0.35753,-0.41337,0.37381,-0.59292,-1.92819,1.84637,2.94888,-0.59158,-10.85007,0.79688,-0.31099,-0.80414,-0.44403,-0.24390,-39.13567,-8.98858,-31.14502
0.25843,1.68580,-0.36469,-0.40886,0.21715,-0.57256,-2.36826,1.63747,2.23596,1.05136,-11.45320,1.95267,-0.30608,-0.81721,-0.42064,-0.24810,-44.47109,-26.42555,-40.58061
0.25383,1.68040,-0.37058,-0.39053,0.07839,-0.53682,-2.40376,1.51620,1.67020,1.87911,-11.01155,3.25382,-0.30533,-0.82596,-0.40340,-0.24867,-16.39057,-23.78999,-47.28289
0.25007,1.67108,-0.37365,-0.36309,-0.09270,-0.46200,-2.08942,1.38508,1.09266,1.53864,-9.86930,5.61937,-0.31075,-0.82876,-0.39351,-0.24848,14.75781,-9.54812,-38.77828
0.24568,1.66209,-0.37520,-0.35236,-0.22060,-0.37866,-1.73757,1.09120,0.77442,0.51520,-8.12473,6.34483,-0.31157,-0.83001,-0.38936,-0.24982,26.03906,-18.95043,-26.45770
0.24080,1.65443,-0.37686,-0.35233,-0.29433,-0.31911,-1.53113,0.83827,0.65627,-0.14774,-6.56922,5.83755,-0.30849,-0.83276,-0.38516,-0.25100,22.86965,-25.49269,-15.35680
0.23539,1.64426,-0.37589,-0.36040,-0.39155,-0.23182,-1.25671,0.43376,0.70067,-0.38739,-4.40223,3.76797,-0.30037,-0.83371,-0.38703,-0.25477,15.45726,-23.81998,3.53656
0.23016,1.63551,-0.37645,-0.36363,-0.44596,-0.18750,-1.03040,0.37216,0.89278,-0.01219,-3.35303,2.51946,-0.29160,-0.83790,-0.38771,-0.25016,17.68396,-7.97819,11.23676
0.22532,1.62663,-0.37706,-0.35960,-0.49024,-0.15407,-0.97948,0.35489,1.09324,0.54639,-3.49132,2.73427,-0.28091,-0.84408,-0.38550,-0.24498,10.41981,4.97964,15.22528
0.22097,1.61706,-0.37763,-0.34871,-0.53607,-0.12804,-1.34753,0.08378,1.15082,1.13396,-3.87354,2.05199,-0.26624,-0.85190,-0.37476,-0.25087,-15.76717,-15.08148,9.28698
0.21747,1.60658,-0.37842,-0.32615,-0.58657,-0.11182,-2.02358,-0.30179,0.98503,1.75790,-3.94528,0.91001,-0.25139,-0.86046,-0.35371,-0.26704,-43.83558,-31.18293,-4.58629
0.21437,1.59582,-0.37939,-0.30254,-0.62890,-0.10250,-2.51945,-0.53947,0.76850,1.75263,-3.03573,0.25312,-0.23951,-0.86777,-0.33122,-0.28267,-46.97911,-30.01470,-15.62634
0.21179,1.58441,-0.38013,-0.27622,-0.67175,-0.09208,-2.83893,-0.65419,0.61262,1.63845,-1.83860,0.43262,-0.22857,-0.87440,-0.30943,-0.29569,-22.24604,-11.64780,-10.77756
0.20922,1.57370,-0.38058,-0.25540,-0.69392,-0.07904,-2.83234,-0.66006,0.58320,1.36865,-1.07468,0.83289,-0.21825,-0.87965,-0.29424,-0.30332,-5.43372,-2.55181,-2.98337
0.20678,1.56317,-0.38059,-0.23700,-0.70807,-0.06126,-2.57573,-0.61467,0.57400,1.31219,-0.84866,1.13348,-0.21024,-0.88302,-0.28539,-0.30762,14.69391,2.44507,0.04662
0.20483,1.55264,-0.38029,-0.21536,-0.71966,-0.04216,-2.22867,-0.51826,0.45701,1.53867,-0.76564,1.21330,-0.20704,-0.88481,-0.27917,-0.31034,23.20461,6.46141,-6.03612
0.20317,1.54233,-0.37986,-0.19392,-0.72432,-0.02538,-1.87784,-0.36981,0.27256,1.19008,-0.02565,1.25809,-0.20788,-0.88587,-0.27390,-0.31145,26.81794,9.20535,-13.48007
0.20099,1.53254,-0.37932,-0.18621,-0.71970,-0.01046,-1.67009,-0.32709,0.16881,0.06280,0.68247,1.22692,-0.20657,-0.88701,-0.26782,-0.31434,18.71918,5.36289,-10.17008
0.19805,1.52332,-0.37904,-0.19324,-0.70685,-0.00272,-1.59160,-0.29979,0.21763,-0.58814,1.31524,0.26228,-0.20102,-0.88951,-0.26076,-0.31682,8.38852,0.47322,0.82381
0.19509,1.51467,-0.37909,-0.19874,-0.68769,-0.00224,-1.67873,-0.29142,0.32943,-0.14928,1.31214,0.00287,-0.19188,-0.89341,-0.25045,-0.31980,-4.82788,1.42171,8.17890
0.19239,1.50608,-0.37905,-0.19851,-0.67210,-0.00003,-1.73735,-0.22972,0.38636,0.03724,0.79002,0.31038,-0.18395,-0.89742,-0.23966,-0.32150,-5.35808,3.68610,5.22810
0.18993,1.49738,-0.37864,-0.19499,-0.66230,0.00878,-1.76973,-0.20007,0.35407,0.22018,0.53919,0.94707,-0.17800,-0.90057,-0.22856,-0.32412,-3.31873,3.51031,-0.95357
