posX, posY, posZ, velX, velY, velZ, angVelX, angVelY, angVelZ, accX, accY, accZ, rotX, rotY, rotZ, rotW, angAccX, angAccY, angAccZ
-0.17170,1.47599,-0.37209,0.13053,-0.28969,-0.32930,-1.04586,0.51137,-1.26245,-1.37527,0.26312,-0.99656,0.43090,-0.79350,-0.07263,-0.42357,-9.34938,3.51022,5.41935
-0.17107,1.47234,-0.37749,0.11027,-0.28403,-0.34285,-1.16534,0.45914,-1.13180,-1.27537,0.49009,-0.42542,0.43135,-0.79733,-0.06296,-0.41742,-8.26331,-0.47721,7.65377
-0.17055,1.46896,-0.38262,0.09221,-0.27460,-0.34868,-1.23663,0.35935,-0.97088,-1.05176,0.62183,-0.20180,0.43294,-0.79955,-0.05371,-0.41278,-4.55159,-5.78206,11.24927
-0.16907,1.46213,-0.39233,0.07606,-0.26315,-0.34822,-1.26939,0.31572,-0.82581,-0.87344,0.68493,0.15860,0.43346,-0.80552,-0.03713,-0.40233,-2.18588,-2.95810,10.55226
-0.16878,1.45921,-0.39691,0.06442,-0.25244,-0.34347,-1.27056,0.32900,-0.74208,-0.76378,0.80187,0.46785,0.43455,-0.80817,-0.03000,-0.39639,-0.65260,0.66308,6.53123
-0.16848,1.45664,-0.40122,0.05548,-0.23853,-0.33613,-1.26121,0.35632,-0.67284,-0.54011,1.12384,0.61051,0.43550,-0.81093,-0.02342,-0.39011,0.73182,2.71485,5.04334
-0.16808,1.45474,-0.40481,0.04922,-0.21695,-0.31883,-1.21158,0.34667,-0.59780,-0.24858,1.33781,1.24342,0.43644,-0.81291,-0.01771,-0.38520,2.60264,-0.19361,4.55003
-0.16748,1.45281,-0.40819,0.04732,-0.20012,-0.30209,-1.14056,0.32055,-0.54982,-0.14242,1.40650,1.64985,0.43666,-0.81475,-0.01240,-0.38126,4.72834,-1.41631,3.85578
-0.16689,1.45156,-0.41057,0.04580,-0.17628,-0.27367,-1.02275,0.26758,-0.46711,-0.11201,1.58055,2.01947,0.43730,-0.81551,-0.00882,-0.37899,6.85891,-2.50844,4.96231
-0.16625,1.45032,-0.41283,0.04521,-0.15733,-0.24959,-0.89848,0.21293,-0.39672,-0.04551,1.54493,2.06157,0.43770,-0.81599,-0.00597,-0.37755,8.93629,-4.27327,6.06448
-0.16565,1.44952,-0.41442,0.04401,-0.13604,-0.22106,-0.76784,0.21218,-0.33452,-0.11371,1.51972,1.94260,0.43783,-0.81686,-0.00476,-0.37553,10.53806,-1.12835,4.82593
-0.16519,1.44921,-0.41528,0.04109,-0.11129,-0.18632,-0.63374,0.23769,-0.25970,-0.18669,1.31136,1.89389,0.43821,-0.81772,-0.00495,-0.37320,7.70016,1.45928,3.93355
-0.16469,1.44861,-0.41648,0.03954,-0.09629,-0.16401,-0.56912,0.23064,-0.18750,-0.15399,1.29969,1.91981,0.43945,-0.81808,-0.00381,-0.37096,5.76208,0.56894,4.97681
-0.16416,1.44833,-0.41708,0.03883,-0.07960,-0.13770,-0.48304,0.19667,-0.08728,-0.02247,1.13745,1.94500,0.44145,-0.81745,-0.00378,-0.36997,6.16139,-1.66361,7.33932
-0.16351,1.44824,-0.41727,0.04003,-0.06372,-0.11091,-0.37825,0.16841,-0.00897,0.19040,1.11588,1.91121,0.44302,-0.81679,-0.00470,-0.36955,7.14581,-1.75950,6.10063
-0.16259,1.44856,-0.41677,0.04516,-0.04419,-0.07814,-0.23202,0.18115,0.02501,0.45942,0.97108,1.72836,0.44315,-0.81689,-0.00735,-0.36913,8.01349,0.36436,2.82953
-0.16149,1.44880,-0.41640,0.05264,-0.03007,-0.05405,-0.11851,0.21306,-0.01378,0.64989,0.96713,1.68967,0.44167,-0.81812,-0.00944,-0.36812,8.21851,1.79224,-1.88191
-0.16016,1.44916,-0.41581,0.06205,-0.01643,-0.03174,-0.00284,0.25142,-0.06234,0.70901,0.94002,1.55845,0.43937,-0.81976,-0.01221,-0.36716,8.53286,2.71894,-3.77702
-0.15856,1.44965,-0.41487,0.07363,-0.00376,-0.00866,0.10460,0.23946,-0.09604,0.62854,0.78425,1.35715,0.43696,-0.82089,-0.01489,-0.36740,6.60334,-0.13799,-2.90706
-0.15705,1.45006,-0.41414,0.08141,0.00426,0.00559,0.15917,0.21483,-0.10147,0.58793,0.65454,1.08255,0.43538,-0.82157,-0.01692,-0.36767,5.68424,-1.57171,-0.62096
-0.15542,1.45054,-0.41324,0.08907,0.01144,0.01930,0.20824,0.19883,-0.09942,0.46989,0.44368,0.85730,0.43385,-0.82218,-0.01926,-0.36799,3.68182,-1.78642,-0.45170
-0.15379,1.45096,-0.41234,0.09496,0.01599,0.02959,0.23505,0.19683,-0.09711,0.39224,0.29302,0.56888,0.43246,-0.82290,-0.02147,-0.36791,2.33522,-0.70330,0.14310
-0.15208,1.45143,-0.41147,0.10125,0.02016,0.03721,0.25546,0.18875,-0.10446,0.36229,0.26262,0.42080,0.43085,-0.82367,-0.02347,-0.36794,1.27862,-0.11323,-0.84759
-0.15033,1.45179,-0.41069,0.10673,0.02148,0.04148,0.23915,0.12995,-0.10236,0.37343,0.08857,0.24107,0.42980,-0.82380,-0.02414,-0.36884,0.05493,-3.07488,-0.84997
-0.14856,1.45212,-0.41002,0.11117,0.02200,0.04291,0.22579,0.08241,-0.09318,0.51847,0.03608,0.07836,0.42899,-0.82376,-0.02478,-0.36984,-1.79130,-5.02528,1.74169
-0.14648,1.45251,-0.40939,0.11984,0.02337,0.04344,0.19073,0.02408,-0.12878,0.44492,0.04687,0.00704,0.42741,-0.82405,-0.02404,-0.37107,-2.03367,-2.86991,-2.28404
-0.14447,1.45285,-0.40880,0.12566,0.02345,0.04319,0.16282,-0.04332,-0.15542,0.37267,0.01570,-0.00487,0.42586,-0.82409,-0.02302,-0.37280,-2.30714,-4.47059,-2.06342
-0.14251,1.45320,-0.40822,0.12899,0.02384,0.04308,0.14595,-0.08038,-0.17048,0.31452,0.03389,-0.03955,0.42441,-0.82420,-0.02234,-0.37427,-1.90926,-4.50908,-1.07608
-0.14042,1.45359,-0.40765,0.13366,0.02479,0.04278,0.13908,-0.14904,-0.19309,0.23619,0.03101,0.02024,0.42262,-0.82398,-0.02116,-0.37683,-0.93755,-3.90047,-1.38795
-0.13832,1.45401,-0.40706,0.13763,0.02600,0.04273,0.15801,-0.21042,-0.22355,0.35926,0.06005,-0.02346,0.42028,-0.82381,-0.02037,-0.37985,0.96209,-4.44615,-1.22207
-0.13615,1.45449,-0.40643,0.14185,0.02793,0.04344,0.18674,-0.21238,-0.28960,0.59589,0.14055,0.06650,0.41670,-0.82464,-0.02001,-0.38200,1.77698,-1.90082,-3.43024
-0.13359,1.45537,-0.40562,0.15161,0.03613,0.04748,0.28695,-0.15157,-0.48928,0.46425,0.56871,0.34423,0.40860,-0.82788,-0.02062,-0.38372,5.02713,2.83838,-11.02121
-0.13131,1.45645,-0.40454,0.15410,0.04589,0.05557,0.41614,-0.02783,-0.65736,-0.08982,0.76973,0.70028,0.39954,-0.83200,-0.02319,-0.38419,8.82584,7.54160,-12.45581
-0.12939,1.45766,-0.40319,0.15007,0.05555,0.06579,0.54312,0.09946,-0.75693,-0.61109,0.95075,0.99484,0.39065,-0.83614,-0.02724,-0.38408,10.93738,11.06503,-10.41984
-0.12792,1.45908,-0.40158,0.13922,0.06662,0.07858,0.68358,0.17625,-0.75012,-1.08543,0.87900,0.95818,0.38320,-0.83900,-0.03309,-0.38488,10.77955,6.10385,-1.71064
-0.12709,1.46060,-0.39978,0.11986,0.07698,0.09200,0.82902,0.26146,-0.68942,-1.33819,0.50354,0.71204,0.37671,-0.84135,-0.04074,-0.38544,9.50140,4.05972,4.26863
-0.12637,1.46196,-0.39812,0.10335,0.08219,0.09936,0.91547,0.37393,-0.66250,-1.33928,0.38641,0.39850,0.36994,-0.84439,-0.04812,-0.38450,7.99215,6.62281,3.37788
-0.12603,1.46340,-0.39663,0.08453,0.08780,0.10361,0.99342,0.54804,-0.66695,-1.32651,0.39480,0.13910,0.36224,-0.84858,-0.05660,-0.38142,6.76403,11.58791,0.70442
-0.12595,1.46485,-0.39532,0.06578,0.09214,0.10371,1.03048,0.69512,-0.66255,-1.41906,0.28186,0.03045,0.35489,-0.85280,-0.06476,-0.37761,4.39850,12.21494,0.40884
-0.12620,1.46622,-0.39409,0.04565,0.09391,0.10124,1.00781,0.73299,-0.58574,-1.28811,0.17831,-0.13007,0.34998,-0.85544,-0.07162,-0.37497,-0.52995,3.72385,4.09263
-0.12637,1.46760,-0.39297,0.03158,0.09520,0.09772,0.95494,0.69796,-0.49196,-1.19085,0.17471,-0.23216,0.34645,-0.85703,-0.07723,-0.37352,-3.33406,-1.66150,6.50253
-0.12678,1.46898,-0.39199,0.01710,0.09632,0.09283,0.88550,0.57003,-0.35794,-1.01989,0.01467,-0.33062,0.34510,-0.85686,-0.08170,-0.37420,-4.96896,-8.38247,9.32580
-0.12740,1.47028,-0.39120,0.00225,0.09571,0.08542,0.79042,0.44910,-0.23260,-0.86713,-0.10474,-0.61050,0.34483,-0.85629,-0.08514,-0.37499,-6.05944,-8.83370,8.45181
-0.12797,1.47157,-0.39054,-0.00826,0.09499,0.07785,0.72041,0.40092,-0.17114,-0.87671,-0.10667,-0.71720,0.34357,-0.85654,-0.08875,-0.37472,-5.73320,-5.60458,5.88489
-0.12879,1.47278,-0.39017,-0.02025,0.09309,0.06737,0.64909,0.36222,-0.11670,-0.87507,-0.21464,-0.86224,0.34271,-0.85673,-0.09193,-0.37432,-5.13897,-3.61866,3.75511
-0.12989,1.47389,-0.39019,-0.03451,0.09054,0.05309,0.56881,0.38813,-0.07566,-0.87919,-0.13946,-0.94507,0.34196,-0.85760,-0.09505,-0.37223,-4.80992,1.33698,2.70035
-0.13098,1.47492,-0.39041,-0.04549,0.08809,0.04068,0.51248,0.40351,-0.04418,-0.74792,-0.23888,-0.75500,0.34114,-0.85840,-0.09827,-0.37028,-4.47626,1.30535,2.87605
-0.13205,1.47593,-0.39058,-0.05324,0.08571,0.03144,0.47004,0.38876,-0.01753,-0.62118,-0.15951,-0.65190,0.34048,-0.85888,-0.10124,-0.36898,-3.93581,-0.38059,2.35605
-0.13326,1.47708,-0.39086,-0.06127,0.08564,0.02138,0.45544,0.34216,-0.00186,-0.44232,0.08248,-0.48525,0.33960,-0.85897,-0.10425,-0.36874,-1.15846,-2.28873,1.31878
-0.13436,1.47845,-0.39102,-0.06576,0.08905,0.01569,0.50478,0.32085,-0.01888,-0.20075,0.32777,-0.31758,0.33730,-0.85931,-0.10859,-0.36882,1.86711,-1.91513,-0.80063
-0.13530,1.48011,-0.39110,-0.06635,0.09643,0.01216,0.59232,0.31994,-0.09615,0.16744,0.68434,-0.29352,0.33274,-0.86026,-0.11368,-0.36921,6.41392,-0.52394,-3.78679
-0.13591,1.48253,-0.39123,-0.06092,0.11497,0.00807,0.75266,0.34658,-0.31535,0.49163,1.43058,-0.26901,0.32299,-0.86271,-0.11965,-0.37026,9.25257,2.01577,-13.03351
-0.13637,1.48561,-0.39141,-0.05443,0.14042,0.00391,0.90858,0.38929,-0.56658,0.41944,2.09740,-0.38084,0.31071,-0.86591,-0.12573,-0.37129,11.22933,2.67298,-16.84994
-0.13698,1.48972,-0.39168,-0.05213,0.17777,-0.00109,1.08594,0.47382,-0.85877,-0.15204,3.17399,-0.46583,0.29497,-0.87015,-0.13261,-0.37181,11.40211,5.58458,-20.70355
-0.13813,1.49469,-0.39196,-0.05973,0.21987,-0.00474,1.27801,0.62124,-1.06582,-1.10073,3.92351,-0.22182,0.27843,-0.87465,-0.14188,-0.37058,14.10346,10.09239,-19.48277
-0.14055,1.50174,-0.39172,-0.08714,0.28738,0.00182,1.67124,0.88368,-1.23317,-2.22145,4.72320,1.02136,0.25812,-0.87932,-0.15854,-0.36748,22.84148,15.47461,-11.64318
-0.14343,1.50918,-0.39065,-0.11549,0.34529,0.02019,2.07680,1.03464,-1.25730,-2.52257,5.16506,2.20275,0.23938,-0.88146,-0.17858,-0.36582,31.79576,14.18606,-4.76675
-0.14703,1.51834,-0.38830,-0.14857,0.41755,0.05554,2.67120,1.07274,-1.21455,-2.34323,5.24662,3.09236,0.21907,-0.87990,-0.20607,-0.36785,40.01175,1.31302,0.49846
-0.15129,1.52925,-0.38463,-0.18569,0.50337,0.10547,3.45055,1.22266,-1.28150,-2.34026,5.14722,2.89388,0.19173,-0.87687,-0.24117,-0.36901,48.64830,1.85928,-5.39160
-0.15593,1.54023,-0.38035,-0.22084,0.57117,0.15387,4.16150,1.56591,-1.40503,-2.40967,4.71991,3.31920,0.15966,-0.87400,-0.27924,-0.36423,50.08821,19.67867,-7.99419
-0.16076,1.55187,-0.37543,-0.25127,0.63504,0.20367,4.87280,2.14593,-1.58727,-1.84183,4.20143,3.34826,0.12089,-0.87077,-0.32184,-0.35151,54.82460,34.55009,-8.30148
-0.16559,1.56380,-0.36998,-0.27440,0.68849,0.25057,5.47271,2.84591,-1.73996,-1.54423,3.69388,3.17335,0.07860,-0.86626,-0.36584,-0.33102,49.89830,46.77589,-4.47803
-0.17067,1.57589,-0.36419,-0.29606,0.73144,0.29108,5.91631,3.47573,-1.78725,-1.57018,2.72670,3.03572,0.03682,-0.85893,-0.40898,-0.30598,40.54668,45.37462,3.32167
-0.17598,1.58789,-0.35823,-0.31622,0.76290,0.32457,6.12836,3.68519,-1.72016,-1.48389,2.23178,3.07077,0.00100,-0.84747,-0.44753,-0.28550,24.80700,23.83882,7.80918
-0.18168,1.60006,-0.35228,-0.33839,0.78961,0.34993,6.08418,3.30437,-1.58121,-1.81718,1.70338,2.02970,-0.02509,-0.83222,-0.47944,-0.27733,0.89184,-21.56267,1.29950
-0.18812,1.61222,-0.34656,-0.36781,0.80981,0.36468,5.84684,2.72693,-1.45379,-2.62717,1.33099,0.23859,-0.04512,-0.81629,-0.50559,-0.27571,-17.76744,-41.40841,-2.67629
-0.19608,1.62493,-0.34184,-0.41646,0.83520,0.35900,5.53569,2.63825,-1.19896,-4.34391,3.26134,-1.90195,-0.06390,-0.80374,-0.52982,-0.26306,-19.96831,-23.94135,5.01222
-0.20551,1.63892,-0.33765,-0.47700,0.87516,0.34617,5.26557,2.94340,-0.70710,-5.73109,4.08132,-1.20672,-0.07948,-0.79359,-0.55514,-0.23604,-17.59170,8.29688,44.50900
-0.21796,1.65452,-0.33338,-0.57186,0.93071,0.33745,4.90175,3.17486,0.11040,-7.16886,3.99974,0.72113,-0.08288,-0.78494,-0.57980,-0.20205,-3.01844,7.31163,62.72158
-0.23275,1.67195,-0.32793,-0.68488,1.00618,0.35150,4.16762,2.58912,0.89687,-7.09868,4.51319,2.44130,-0.06811,-0.77895,-0.59519,-0.18534,-33.58971,-46.95408,45.09753
-0.24754,1.68851,-0.32096,-0.77181,1.04892,0.38704,3.70120,1.94314,1.41593,-7.39169,2.71350,3.96615,-0.05310,-0.76985,-0.61167,-0.17426,-35.10397,-63.53500,37.59230
-0.26462,1.70460,-0.31172,-0.87578,1.07489,0.45404,3.30835,1.05235,1.92376,-7.60317,0.95280,5.82405,-0.02823,-0.75874,-0.62795,-0.17087,-20.84609,-71.74306,25.95453
-0.28394,1.71908,-0.30004,-0.99418,1.06853,0.55210,3.14201,0.11119,2.39396,-7.46165,-1.36663,5.90407,0.00191,-0.74283,-0.64718,-0.17133,-4.70128,-71.35759,16.24652
-0.30200,1.73259,-0.28888,-1.06294,1.04730,0.61406,3.23464,-0.07835,2.77442,-7.03315,-2.10571,5.02465,0.02204,-0.72501,-0.67009,-0.15766,9.06808,-47.93647,19.92474
-0.32326,1.74341,-0.27484,-1.16662,0.98609,0.70813,3.46067,0.21039,3.70777,-4.55881,-4.83208,4.72423,0.04833,-0.70430,-0.69788,-0.12082,12.01847,10.95457,58.49443
-0.34293,1.75235,-0.26165,-1.22343,0.90409,0.77075,3.41764,0.04935,4.05415,-2.57568,-6.45006,3.84498,0.07344,-0.68518,-0.71780,-0.09951,0.75066,-12.10242,25.60139
-0.36171,1.75958,-0.24864,-1.25289,0.81091,0.81353,3.34931,-0.21058,4.14928,-1.63125,-7.40977,2.65309,0.09737,-0.66553,-0.73516,-0.08440,-0.03827,-21.38165,3.11577
-0.38012,1.76477,-0.23546,-1.26985,0.70421,0.84793,3.29931,-0.39193,4.20157,-1.03509,-8.06532,2.20234,0.12044,-0.64514,-0.75135,-0.06908,-0.46447,-15.11309,0.61821
-0.39836,1.76868,-0.22245,-1.27958,0.60265,0.87032,3.28136,-0.54408,4.28309,-0.58245,-9.00400,1.66221,0.14446,-0.62321,-0.76677,-0.05299,0.98007,-11.79946,3.70260
-0.41640,1.76862,-0.20948,-1.28327,0.45786,0.88652,3.32167,-0.98002,4.20389,0.34610,-9.37146,0.86108,0.17200,-0.59872,-0.78091,-0.04606,7.30255,-22.74837,-6.13439
-0.43384,1.76762,-0.19717,-1.27591,0.32949,0.88675,3.40350,-1.46934,4.03736,0.87512,-9.42090,-0.82114,0.20053,-0.57227,-0.79393,-0.04439,14.82096,-28.77275,-17.47577
-0.45072,1.76572,-0.18590,-1.26075,0.21870,0.86919,3.47922,-1.89331,3.85164,1.77621,-9.23703,-1.93944,0.22908,-0.54485,-0.80538,-0.04502,15.80165,-28.69235,-19.34889
-0.46608,1.76076,-0.17624,-1.22339,0.08250,0.82805,3.58685,-2.40740,3.45129,2.94709,-8.06595,-3.23488,0.25706,-0.51641,-0.81499,-0.05496,17.32871,-25.47515,-28.08435
-0.48040,1.75603,-0.16747,-1.17711,-0.01950,0.78032,3.64608,-2.70469,3.09290,3.62680,-6.61831,-3.96534,0.28199,-0.48857,-0.82321,-0.06401,14.07620,-16.53382,-29.93382
-0.49389,1.75161,-0.15927,-1.12859,-0.09040,0.73499,3.65187,-2.83235,2.82052,4.37726,-5.25600,-4.05827,0.30462,-0.46147,-0.83018,-0.07117,8.10993,-7.53767,-24.80302
-0.50567,1.74661,-0.15224,-1.06330,-0.15283,0.68148,3.58900,-2.84733,2.51624,4.86827,-3.80530,-4.11515,0.32373,-0.43658,-0.83568,-0.07891,2.32802,1.54555,-22.97557
-0.51569,1.74129,-0.14644,-0.98229,-0.20651,0.61921,3.38843,-2.69818,2.32439,5.11470,-2.78578,-4.07996,0.34002,-0.41531,-0.83975,-0.08205,-9.99410,9.40628,-14.90985
-0.52559,1.73660,-0.14054,-0.91865,-0.23716,0.57348,3.19447,-2.51847,2.26511,5.45987,-2.22472,-3.80575,0.35590,-0.39429,-0.84334,-0.08155,-16.73091,12.66337,-5.04255
-0.53376,1.73159,-0.13562,-0.84186,-0.26545,0.52276,2.92295,-2.28165,2.17760,6.13821,-2.05226,-3.79708,0.36886,-0.37699,-0.84586,-0.07957,-20.65145,14.79665,-6.83465
-0.53930,1.72597,-0.13215,-0.73626,-0.29857,0.45788,2.81179,-1.94241,1.79908,5.51606,-1.85995,-3.35434,0.37384,-0.36038,-0.85048,-0.08398,-5.07160,21.24719,-20.88604
-0.54639,1.72055,-0.12774,-0.68213,-0.32016,0.42415,2.74795,-1.74045,1.70062,5.11477,-2.18025,-3.52960,0.38225,-0.34099,-0.85464,-0.08484,-4.71998,22.83479,-14.60444
-0.55105,1.71368,-0.12523,-0.60106,-0.36080,0.36709,2.68047,-1.43628,1.70722,4.68349,-2.64896,-3.60905,0.38768,-0.32160,-0.86001,-0.08165,-7.15701,19.40961,2.02092
-0.55582,1.70636,-0.12335,-0.53971,-0.40023,0.31155,2.61486,-1.23176,1.85583,3.79133,-2.82632,-4.42858,0.39520,-0.30072,-0.86471,-0.07528,-6.34191,14.72922,8.04112
-0.56059,1.69847,-0.12257,-0.49365,-0.43924,0.25165,2.50217,-1.13280,2.21066,3.44377,-3.25125,-5.70924,0.40651,-0.27832,-0.86797,-0.06263,-9.35520,6.02136,23.11142
-0.56405,1.68874,-0.12549,-0.43655,-0.49997,0.14317,2.36423,-1.19954,2.82372,3.49585,-4.19860,-7.77538,0.42422,-0.25268,-0.86858,-0.04190,-12.58048,-8.59529,36.99913
-0.56700,1.67843,-0.13090,-0.38307,-0.55716,0.01632,2.37982,-1.45271,3.30455,4.13335,-4.11780,-9.97696,0.44584,-0.22289,-0.86658,-0.02419,-0.91607,-20.18694,33.47401
-0.56875,1.66775,-0.13963,-0.32197,-0.60643,-0.13641,2.47323,-1.87613,3.72350,4.49872,-3.01976,-11.57103,0.47244,-0.18939,-0.86074,-0.00796,9.64108,-29.08907,27.94040
-0.56931,1.65736,-0.15153,-0.25510,-0.63933,-0.30703,2.58760,-2.49369,4.05732,5.33834,-1.73810,-12.78960,0.50517,-0.15376,-0.84919,0.00601,12.70121,-42.22298,21.84957
-0.56788,1.64800,-0.16682,-0.16991,-0.64651,-0.49428,2.78774,-3.20754,4.18032,7.14592,0.55859,-13.88667,0.54149,-0.11629,-0.83251,0.01372,24.55022,-46.79861,7.73341
-0.56368,1.64048,-0.18508,-0.05792,-0.62069,-0.68750,2.98102,-3.93585,4.18224,9.37060,3.26088,-13.92429,0.58008,-0.07874,-0.81055,0.01769,26.56548,-46.94392,-2.11430
-0.55587,1.63605,-0.20579,0.08890,-0.54822,-0.87617,3.19074,-4.55941,4.02009,12.12117,7.26325,-13.04384,0.61778,-0.04201,-0.78505,0.01673,27.88877,-41.11015,-9.78609
-0.54447,1.63614,-0.22756,0.26127,-0.41621,-1.03768,3.44681,-4.99943,3.66544,12.27829,10.95245,-9.88792,0.65193,-0.00683,-0.75819,0.00896,30.79840,-21.77008,-26.43659
-0.52997,1.64215,-0.24845,0.44536,-0.21469,-1.14555,3.37942,-5.11022,2.98009,14.11054,17.92962,-6.30263,0.67928,0.01551,-0.73371,-0.00301,21.32537,-2.54201,-21.76502
-0.51431,1.65248,-0.26685,0.60243,0.00732,-1.18517,3.09643,-5.16511,2.26637,13.27479,20.31700,-0.97056,0.70518,0.02762,-0.70832,-0.01563,1.02035,0.87883,-69.81787
-0.49267,1.67617,-0.28014,0.82595,0.40797,-1.12744,2.47784,-4.67392,0.79309,12.98694,25.27888,7.31024,0.71947,0.01380,-0.69322,-0.04031,-9.91507,29.48755,-73.79275
-0.47231,1.70240,-0.28726,0.98041,0.76752,-0.97577,1.79803,-3.72680,-0.72435,11.20016,27.22993,14.12207,0.72198,-0.01209,-0.68847,-0.06787,-18.21299,71.35904,-106.49250
-0.45138,1.73203,-0.28932,1.10521,1.09261,-0.77727,0.96448,-2.59871,-2.06158,10.90198,28.40607,18.36209,0.71521,-0.05011,-0.69092,-0.09269,-27.21331,99.85538,-114.24000
-0.42551,1.77289,-0.28142,1.28552,1.53164,-0.45566,-0.74432,-0.90047,-3.97540,12.48076,27.43843,20.65414,0.68835,-0.13007,-0.70450,-0.11377,-66.70145,122.35050,-132.55230
-0.39626,1.81488,-0.27150,1.48726,1.89329,-0.17223,-2.25741,0.63692,-5.53835,16.57487,24.70533,19.40603,0.65211,-0.21604,-0.71494,-0.13019,-78.57249,125.31420,-125.63400
-0.36290,1.85723,-0.26139,1.71112,2.17110,0.04247,-3.18283,1.99505,-6.87002,21.17564,21.41826,16.89096,0.60481,-0.30005,-0.72197,-0.15142,-56.84903,120.00800,-124.04260
-0.31968,1.90352,-0.24910,2.04650,2.44346,0.23889,-3.72013,3.43051,-8.44546,26.91059,16.85310,11.83239,0.53704,-0.38974,-0.72528,-0.18347,-18.32409,98.46214,-131.16420
-0.26286,1.95020,-0.23770,2.53497,2.65756,0.37412,-3.81826,4.59925,-10.33048,33.99142,9.27004,5.67059,0.45315,-0.47867,-0.71585,-0.23040,-5.68327,53.41786,-132.17350
-0.20142,1.99086,-0.23021,2.98259,2.71786,0.41082,-3.54827,5.47455,-11.45958,40.18467,-0.25607,1.23933,0.36485,-0.54868,-0.70102,-0.27276,1.34207,29.89240,-122.84970
-0.12867,2.02509,-0.22597,3.49826,2.65609,0.38426,-2.93494,6.14283,-12.65068,45.53141,-10.81153,-4.69148,0.26329,-0.60610,-0.67723,-0.32355,49.25790,10.22673,-106.86680
-0.03213,2.03958,-0.22780,4.29791,2.26898,0.26213,-2.34657,6.80458,-14.55108,42.85439,-33.53766,-9.19562,0.13619,-0.66020,-0.63055,-0.38470,-2.97622,4.62031,-125.12300
0.05647,2.04159,-0.23163,4.78634,1.76324,0.13510,-1.96813,7.57592,-14.92738,37.39294,-49.06767,-13.73660,0.01882,-0.69569,-0.58832,-0.41175,23.65903,2.92999,-81.73273
0.14704,2.02421,-0.23996,5.17763,1.07157,-0.03268,-1.64784,8.98772,-14.63723,27.09657,-64.60370,-16.59078,-0.10731,-0.72189,-0.54991,-0.40614,74.77991,40.96785,-37.56848
0.23716,1.96868,-0.25811,5.47012,-0.08772,-0.32127,-0.00448,11.12275,-13.68852,9.83867,-79.80499,-20.04349,-0.25228,-0.71509,-0.53818,-0.36792,174.13880,14.34918,-33.75674
0.31386,1.89997,-0.28135,5.48061,-1.21209,-0.63083,2.08314,12.24083,-13.87647,-8.80962,-83.38454,-23.62357,-0.40490,-0.67539,-0.51062,-0.34521,136.33710,-33.40760,-112.22710
0.36948,1.80660,-0.31599,5.12625,-2.50726,-1.06859,4.16806,12.46376,-14.86400,-36.99590,-78.55566,-29.59682,-0.55499,-0.60300,-0.46562,-0.33402,35.15412,-38.85192,-145.28850
0.39965,1.71260,-0.35523,4.41914,-3.52071,-1.47866,5.68402,12.13525,-15.24513,-62.95557,-64.52864,-27.50682,-0.67630,-0.51965,-0.41722,-0.31384,14.62445,-48.77176,-106.56400
0.40137,1.61949,-0.39641,3.40024,-4.27942,-1.82337,6.65454,10.91880,-15.43453,-80.26300,-43.53421,-19.64154,-0.76759,-0.42575,-0.37126,-0.30284,-31.05662,-83.63622,-71.79192
0.38032,1.53465,-0.43441,2.23246,-4.71528,-2.03520,6.94176,9.42994,-15.52204,-85.51801,-19.65933,-9.64123,-0.83523,-0.33002,-0.32290,-0.29867,-76.93379,-69.63519,-37.41454
0.34275,1.46243,-0.46712,1.06298,-4.82665,-2.10364,6.36218,8.07769,-15.52300,-81.36005,2.47760,0.48431,-0.88257,-0.24173,-0.26589,-0.30323,-102.62640,-33.66152,2.84861
0.29546,1.40561,-0.49213,0.00764,-4.65206,-2.02601,5.55025,6.97114,-15.19373,-69.46340,21.56934,10.44099,-0.91405,-0.16136,-0.20942,-0.30760,-94.35278,-8.67511,35.96913
0.24449,1.36368,-0.50801,-0.86136,-4.26378,-1.81265,4.90720,5.75524,-14.72166,-54.81330,34.20137,19.45358,-0.93256,-0.08059,-0.16382,-0.31145,-85.04208,-27.07030,44.74143
0.19446,1.33619,-0.51468,-1.50595,-3.71458,-1.49206,4.10972,4.23734,-14.38739,-35.62902,44.89973,25.75283,-0.93683,0.00472,-0.12919,-0.32501,-112.47720,-31.61255,24.71784
0.15387,1.32332,-0.51312,-1.83296,-3.04879,-1.10826,2.98416,2.42102,-13.64766,-9.41161,48.98607,28.68304,-0.92658,0.08036,-0.11423,-0.34920,-129.44720,-40.12472,51.53477
0.13094,1.32045,-0.50610,-1.78093,-2.37379,-0.72586,1.78252,0.21290,-11.92073,16.65961,47.41446,23.26196,-0.90609,0.13284,-0.13380,-0.37874,-199.81320,-50.04057,82.91933
0.12665,1.31836,-0.49781,-1.42701,-1.85036,-0.41254,0.29590,-2.02015,-9.52516,31.56389,25.99142,22.31596,-0.87755,0.16039,-0.18213,-0.41353,-156.94050,-116.41960,158.28970
0.13654,1.31029,-0.48903,-0.91868,-1.55192,-0.16804,-1.42599,-1.81885,-4.89619,35.10259,20.07115,13.86790,-0.86238,0.09173,-0.21633,-0.44844,-241.76990,45.82138,257.94170
0.15217,1.30115,-0.48156,-0.43588,-1.33989,-0.00191,-2.68440,-0.44405,-1.15044,31.70214,14.58866,11.37852,-0.85209,0.00267,-0.22261,-0.47370,-65.02655,136.13650,271.09440
0.16965,1.29444,-0.47384,-0.03787,-1.13591,0.12825,-3.87368,1.36667,1.84323,25.16574,15.50171,7.25578,-0.83453,-0.10089,-0.20963,-0.49943,-92.36812,178.34150,203.40420
0.18374,1.28913,-0.46783,0.20436,-0.95978,0.19752,-4.64297,2.54419,3.65149,16.29552,15.99342,3.72307,-0.80942,-0.18905,-0.19537,-0.52051,-73.89574,143.34350,155.34680
0.19768,1.29104,-0.46307,0.38739,-0.70033,0.22887,-5.27681,4.06976,5.01721,4.78233,14.66296,-0.61323,-0.77824,-0.28304,-0.16418,-0.53598,-47.12177,100.43260,67.18204
0.20386,1.29162,-0.46087,0.39905,-0.51850,0.20974,-5.58814,4.44309,4.84617,-1.33769,12.94006,-3.10922,-0.74886,-0.33401,-0.13703,-0.55576,-38.28111,43.09626,-1.53291
0.20674,1.29203,-0.45970,0.35183,-0.38698,0.17832,-5.56177,3.92575,4.42520,-4.94402,10.36616,-4.09115,-0.72132,-0.36461,-0.12607,-0.57520,-10.85648,-34.65972,-21.81132
0.20578,1.29355,-0.46070,0.25011,-0.26952,0.11749,-4.95356,3.10629,3.87169,-7.60447,5.47196,-3.97100,-0.70397,-0.38061,-0.12578,-0.58630,45.33207,-57.42929,-21.49293
0.20361,1.29296,-0.46258,0.15107,-0.21466,0.05558,-4.37865,2.84965,3.22212,-7.36320,2.92888,-4.42195,-0.69139,-0.39654,-0.11400,-0.59307,38.45189,-28.24700,-44.35514
0.20163,1.29124,-0.46448,0.08189,-0.19344,0.01017,-3.94220,2.73904,2.74972,-6.83579,1.46574,-4.55339,-0.67899,-0.41355,-0.10038,-0.59822,35.29119,-17.88655,-51.43433
0.19600,1.28881,-0.46879,-0.03208,-0.18990,-0.06430,-3.11024,2.48215,1.90585,-5.88121,-0.68039,-4.10001,-0.68033,-0.41590,-0.08734,-0.59712,38.40437,-17.13779,-51.54911
0.19111,1.28517,-0.47242,-0.10933,-0.20728,-0.11142,-2.31876,2.05070,1.31367,-4.79874,-1.57538,-3.26855,-0.68279,-0.41590,-0.08183,-0.59509,50.92207,-28.01445,-46.74708
0.18592,1.28109,-0.47609,-0.17311,-0.22804,-0.14779,-1.40964,1.41181,0.89363,-3.82408,-1.48513,-2.42235,-0.68964,-0.41057,-0.08661,-0.59019,61.70369,-42.13260,-35.60822
0.18049,1.27704,-0.47965,-0.22551,-0.24317,-0.17359,-0.56488,0.69975,0.61881,-3.33876,-0.99581,-1.37240,-0.69805,-0.40180,-0.09874,-0.58441,65.04483,-49.91646,-22.73840
0.17499,1.27348,-0.48313,-0.26622,-0.24593,-0.19163,0.03990,0.13434,0.45303,-2.36373,0.11616,-0.51419,-0.70509,-0.39335,-0.11182,-0.57933,49.94298,-43.91053,-14.95105
0.17001,1.27082,-0.48643,-0.28783,-0.23241,-0.20227,0.25921,-0.06601,0.40080,-0.95452,1.35657,0.01869,-0.70788,-0.39076,-0.11898,-0.57624,26.05363,-23.60843,-5.72504
0.16569,1.26906,-0.48948,-0.29298,-0.20656,-0.20618,0.02807,0.21991,0.38085,-0.22598,1.71987,0.71145,-0.70516,-0.39722,-0.11320,-0.57633,-7.82935,11.26639,-0.13950
0.16183,1.26762,-0.49215,-0.28904,-0.18157,-0.20269,-0.45801,0.75041,0.29139,0.47850,1.79448,0.43102,-0.69881,-0.40842,-0.09595,-0.57935,-35.17212,37.02105,-6.16806
0.15809,1.26642,-0.49455,-0.28416,-0.15884,-0.19541,-0.77478,1.05774,0.28548,0.59827,1.99050,0.28853,-0.69197,-0.41915,-0.08186,-0.58206,-33.42736,33.02107,-3.11282
0.15421,1.26619,-0.49639,-0.28295,-0.12426,-0.17976,-0.96075,1.15670,0.36540,-0.26196,1.93790,0.71450,-0.68455,-0.42911,-0.07261,-0.58480,-11.27318,6.77851,5.69975
0.14988,1.26571,-0.49816,-0.29007,-0.10170,-0.16654,-0.97978,1.08769,0.36453,-0.71200,1.46141,0.70573,-0.67959,-0.43500,-0.06679,-0.58692,-3.63430,-3.24921,1.49592
0.14529,1.26515,-0.49979,-0.30015,-0.08642,-0.15427,-0.88093,0.93814,0.29411,-0.78897,0.97006,0.74001,-0.67712,-0.43767,-0.06307,-0.58819,5.51791,-10.06842,-3.69251
0.14073,1.26457,-0.50145,-0.30690,-0.07505,-0.14576,-0.77289,0.78940,0.21391,-0.26050,1.07250,0.57756,-0.67555,-0.43904,-0.06003,-0.58930,8.26409,-12.05052,-7.23237
0.13648,1.26435,-0.50317,-0.30651,-0.06052,-0.14049,-0.63426,0.64283,0.18139,0.44352,0.88268,0.18696,-0.67458,-0.44021,-0.05891,-0.58965,9.58988,-11.04804,-2.89553
0.13283,1.26424,-0.50509,-0.29544,-0.04768,-0.14002,-0.40322,0.45898,0.23544,0.97238,0.82608,-0.16777,-0.67462,-0.44148,-0.06194,-0.58835,13.84999,-11.44256,1.79070
0.12932,1.26422,-0.50723,-0.28477,-0.03629,-0.14342,-0.26488,0.38718,0.31425,0.80066,0.91282,-0.08571,-0.67370,-0.44466,-0.06402,-0.58678,15.69453,-9.71229,6.77201
0.12620,1.26430,-0.50962,-0.26965,-0.02605,-0.15026,-0.28721,0.48386,0.31109,0.91083,0.35783,-0.31643,-0.67165,-0.44942,-0.06063,-0.58585,0.09971,5.04444,1.27839
0.12325,1.26401,-0.51213,-0.25573,-0.02328,-0.15580,-0.30115,0.57109,0.28383,1.10662,0.20203,-0.42395,-0.66993,-0.45393,-0.05638,-0.58478,-3.35556,8.25408,-2.89233
0.12040,1.26386,-0.51449,-0.24349,-0.01860,-0.15738,-0.26330,0.57795,0.31364,1.05452,0.53495,-0.01505,-0.66830,-0.45830,-0.05476,-0.58338,2.81342,1.35075,0.61076
0.11789,1.26394,-0.51665,-0.22847,-0.01154,-0.15521,-0.29757,0.62048,0.32310,1.14858,0.49514,0.52546,-0.66581,-0.46316,-0.05146,-0.58269,-0.26120,2.07918,1.91025
0.11592,1.26437,-0.51818,-0.20748,-0.00067,-0.14386,-0.35619,0.62144,0.37478,1.48141,0.90347,0.84014,-0.66210,-0.46840,-0.04888,-0.58296,-5.21784,2.60176,1.80995
0.11399,1.26513,-0.51936,-0.19111,0.01307,-0.12943,-0.34838,0.54502,0.47871,1.53694,1.29086,1.34597,-0.65829,-0.47345,-0.04965,-0.58312,0.45533,-4.98396,6.96739
0.11256,1.26645,-0.51993,-0.17007,0.03275,-0.10823,-0.40915,0.50237,0.62139,1.50641,1.50872,1.88337,-0.65245,-0.48008,-0.05049,-0.58420,-0.58197,-4.93029,11.51242
