posX, posY, posZ, velX, velY, velZ, angVelX, angVelY, angVelZ, accX, accY, accZ, rotX, rotY, rotZ, rotW, angAccX, angAccY, angAccZ
0.25000,1.15851,-0.19817,0.37462,0.06119,-0.03215,-1.30318,-0.83107,0.34960,0.74206,-0.41283,-0.37661,0.05778,-0.79114,0.06229,-0.60571,-0.29827,-5.81648,-5.20554
0.25598,1.15906,-0.19884,0.38585,0.05659,-0.03581,-1.22174,-0.86929,0.19768,0.81635,-0.47233,-0.30611,0.05912,-0.78646,0.06921,-0.61090,4.28534,-4.96849,-9.35412
0.26199,1.15958,-0.19944,0.39522,0.05264,-0.03765,-1.08585,-0.86162,0.03135,0.72867,-0.40246,-0.26207,0.05770,-0.78278,0.07506,-0.61506,10.50274,-1.63276,-11.76482
0.26800,1.16014,-0.20017,0.40221,0.05019,-0.04096,-0.81726,-0.74604,-0.20052,0.18364,-0.01918,-0.34349,0.05052,-0.78187,0.07852,-0.61642,16.96839,4.95176,-14.28331
0.27335,1.16096,-0.20099,0.39748,0.05217,-0.04529,-0.59012,-0.60208,-0.35375,-0.77386,0.47155,-0.30431,0.04402,-0.78204,0.08092,-0.61638,18.72063,9.70616,-12.68011
0.27802,1.16207,-0.20188,0.38407,0.05791,-0.04963,-0.48431,-0.52263,-0.38319,-1.44831,0.83511,-0.23916,0.04139,-0.78124,0.08346,-0.61725,12.31901,8.05285,-5.83018
0.28149,1.16357,-0.20285,0.35589,0.06817,-0.05413,-0.50112,-0.52400,-0.30047,-2.14429,0.81548,-0.11531,0.04357,-0.77870,0.08660,-0.61987,0.20478,1.54780,3.98540
0.28442,1.16512,-0.20368,0.32560,0.07654,-0.05599,-0.62568,-0.62097,-0.15176,-2.32459,0.63606,0.03766,0.05004,-0.77365,0.09114,-0.62502,-7.81771,-4.50253,9.36227
0.28694,1.16662,-0.20438,0.29592,0.08250,-0.05536,-0.78300,-0.78500,0.01849,-2.03598,0.27353,0.09155,0.05890,-0.76637,0.09626,-0.63241,-12.09498,-10.32405,12.32929
0.28929,1.16793,-0.20502,0.26934,0.08466,-0.05370,-0.86418,-0.91344,0.16839,-1.75760,-0.15005,-0.06394,0.06728,-0.75900,0.09993,-0.63985,-8.89023,-10.54931,11.43612
0.29146,1.16886,-0.20569,0.24543,0.08114,-0.05310,-0.81988,-0.93549,0.27844,-1.55215,-0.65995,-0.14030,0.07334,-0.75363,0.10076,-0.64537,0.11366,-3.12694,9.20613
0.29356,1.16929,-0.20644,0.22547,0.07090,-0.05369,-0.66003,-0.85930,0.33170,-1.17550,-1.09375,-0.21104,0.07610,-0.75078,0.09887,-0.64866,8.75272,3.88750,5.24613
0.29573,1.16924,-0.20728,0.21083,0.05552,-0.05538,-0.43720,-0.70483,0.32480,-0.90853,-1.31432,-0.17751,0.07580,-0.75044,0.09533,-0.64962,15.19841,10.60387,1.16953
0.29771,1.16749,-0.20816,0.19518,0.01401,-0.05762,-0.14184,-0.45801,0.21988,-0.41028,-1.84855,0.08904,0.07137,-0.75300,0.09084,-0.64780,10.83938,9.53136,-4.10922
0.30297,1.16599,-0.20969,0.19244,-0.01316,-0.05661,-0.07854,-0.38292,0.11426,-0.13968,-1.95490,0.14035,0.07037,-0.75064,0.09127,-0.65058,5.67301,5.41860,-7.05078
0.30564,1.16359,-0.21034,0.19163,-0.04522,-0.05440,-0.08335,-0.33719,-0.01414,-0.08797,-1.90042,0.30130,0.06794,-0.75015,0.09415,-0.65099,1.34658,3.72542,-7.79629
0.30836,1.16132,-0.21087,0.19201,-0.06882,-0.05090,-0.16932,-0.36313,-0.10545,-0.00737,-1.85291,0.44878,0.06745,-0.74795,0.09910,-0.65284,-4.58545,0.11098,-8.17385
0.31119,1.15849,-0.21118,0.19344,-0.09531,-0.04498,-0.32709,-0.44653,-0.19855,0.06460,-1.83371,0.53369,0.06823,-0.74398,0.10710,-0.65603,-10.43104,-5.14230,-7.34705
0.31411,1.15536,-0.21126,0.19514,-0.12065,-0.03688,-0.47953,-0.53522,-0.28338,0.13198,-1.80775,0.64360,0.06928,-0.73934,0.11608,-0.65962,-11.11943,-6.58371,-6.43211
0.31706,1.15213,-0.21122,0.19740,-0.14230,-0.02874,-0.58889,-0.60512,-0.35099,0.23089,-1.90025,0.69171,0.07006,-0.73466,0.12475,-0.66317,-10.23984,-6.22307,-5.88174
0.32020,1.14808,-0.21083,0.20226,-0.17103,-0.01746,-0.67745,-0.65486,-0.47350,0.40388,-1.78810,0.66233,0.06908,-0.73015,0.13504,-0.66623,-5.82207,-3.90283,-7.51151
0.32349,1.14380,-0.21030,0.20846,-0.19821,-0.00614,-0.72573,-0.66321,-0.59606,0.37263,-1.70064,0.74341,0.06707,-0.72650,0.14504,-0.66832,-2.54469,-0.97264,-7.56387
0.32677,1.13955,-0.20967,0.21380,-0.21990,0.00440,-0.74471,-0.67124,-0.69811,0.38110,-1.40977,0.71681,0.06458,-0.72283,0.15457,-0.67041,-1.91146,-1.65019,-7.35438
0.33008,1.13528,-0.20892,0.21758,-0.23749,0.01531,-0.70529,-0.63233,-0.77088,0.13184,-0.79476,0.62425,0.06129,-0.72037,0.16245,-0.67150,3.13332,2.26712,-4.91459
0.33323,1.13158,-0.20841,0.21848,-0.24298,0.02010,-0.67322,-0.59313,-0.78123,0.12462,-0.27855,0.32846,0.05918,-0.71800,0.16922,-0.67256,2.59924,2.08823,-3.43004
0.33629,1.12826,-0.20797,0.21771,-0.24187,0.02307,-0.56761,-0.48414,-0.73992,-0.08891,0.28901,0.08676,0.05686,-0.71784,0.17260,-0.67207,6.43814,6.64902,1.50741
0.33920,1.12532,-0.20759,0.21577,-0.23539,0.02437,-0.44413,-0.37389,-0.69673,-0.13733,0.58388,0.19721,0.05404,-0.71844,0.17470,-0.67112,8.92153,8.39184,3.56760
0.34239,1.12272,-0.20703,0.21813,-0.22543,0.02835,-0.32819,-0.33543,-0.67598,0.31697,0.84983,0.46236,0.05022,-0.71797,0.17676,-0.67138,8.41154,3.67097,2.21662
0.34605,1.12073,-0.20608,0.22698,-0.20870,0.03707,-0.16835,-0.35144,-0.70962,0.56197,1.14889,0.69416,0.04331,-0.71682,0.17843,-0.67264,9.94766,-0.82296,-1.29851
0.34986,1.11909,-0.20498,0.23601,-0.18989,0.04644,-0.04074,-0.42296,-0.76139,0.64937,1.65770,0.61275,0.03550,-0.71430,0.18082,-0.67514,9.31145,-4.68363,-2.68110
0.35370,1.11819,-0.20427,0.24355,-0.16445,0.04793,0.10057,-0.44190,-0.80895,0.65271,2.55738,-0.54460,0.02677,-0.71279,0.18232,-0.67673,8.76025,-6.12608,-4.13124
0.35703,1.11901,-0.20476,0.24217,-0.12009,0.03176,0.31260,-0.27835,-0.78328,-0.47468,3.76412,-1.81148,0.01824,-0.71607,0.17945,-0.67432,16.44023,7.60965,0.26863
0.35902,1.12204,-0.20699,0.22228,-0.05309,-0.00544,0.49659,0.00155,-0.61967,-1.70353,4.86645,-2.61081,0.01388,-0.72277,0.17272,-0.66901,14.33272,16.91120,9.23843
0.36039,1.12588,-0.20983,0.19719,0.01284,-0.04444,0.46316,0.17015,-0.45874,-2.07749,4.96044,-2.52369,0.01420,-0.72709,0.16989,-0.66504,2.55802,14.40786,14.54120
0.36165,1.13037,-0.21267,0.17593,0.07425,-0.07560,0.41108,0.21740,-0.14741,-1.74517,5.42276,-2.45699,0.01923,-0.72899,0.16373,-0.66438,-6.27786,3.73731,15.06554
0.36266,1.13654,-0.21611,0.15552,0.14608,-0.10830,0.55988,0.33110,0.15536,-1.87206,5.13934,-2.18941,0.02192,-0.73370,0.15102,-0.66211,9.63833,9.01712,28.28050
0.36287,1.14405,-0.22024,0.12740,0.22353,-0.14483,0.60770,0.31450,0.51273,-1.84319,4.65524,-2.48482,0.02833,-0.73523,0.13782,-0.66305,2.76858,-2.22210,21.98212
0.36312,1.15118,-0.22445,0.10567,0.28055,-0.17582,0.84243,0.44490,0.77542,-1.49386,4.35696,-2.96203,0.03046,-0.74083,0.12003,-0.66017,9.82303,2.28666,22.56194
0.36285,1.15962,-0.22960,0.08133,0.34290,-0.21324,1.26845,0.70781,1.03085,-1.85719,4.26927,-2.52670,0.02887,-0.75093,0.09445,-0.65296,31.48271,20.43144,19.06315
0.36231,1.16820,-0.23506,0.05791,0.39498,-0.24756,1.58393,0.87146,1.24008,-1.70892,3.34948,-2.28346,0.02777,-0.75922,0.06944,-0.64652,23.65004,13.33202,16.48318
0.36153,1.17731,-0.24085,0.03525,0.44536,-0.28031,2.05751,1.06299,1.38703,-1.25103,2.95476,-1.83983,0.02135,-0.76882,0.03923,-0.63791,28.02932,13.00010,10.07248
0.36094,1.18640,-0.24646,0.01933,0.48639,-0.30460,2.38103,1.14219,1.44041,-1.41741,3.08653,-1.50848,0.01418,-0.77596,0.01210,-0.63051,27.00565,10.97223,4.31210
0.36015,1.19554,-0.25238,0.00384,0.51893,-0.32806,2.38425,1.07927,1.48062,-1.58864,2.99650,-1.86310,0.01230,-0.77945,-0.00831,-0.62629,11.51585,-0.08053,2.08792
0.35859,1.20523,-0.25994,-0.01909,0.55318,-0.37044,2.01598,0.85371,1.48712,-1.55094,1.88947,-3.04553,0.01785,-0.77864,-0.01802,-0.62696,-19.39519,-16.73351,0.32205
0.35673,1.21442,-0.26841,-0.04211,0.57406,-0.41819,1.69469,0.75484,1.45870,-1.55985,1.00204,-3.94562,0.02334,-0.77959,-0.02617,-0.62531,-25.44282,-14.32443,-1.91766
0.35435,1.22342,-0.27789,-0.06790,0.58741,-0.47037,1.57184,0.87760,1.40214,-1.80106,0.50374,-3.90143,0.02520,-0.78496,-0.03738,-0.61791,-12.47896,4.39930,-1.72372
0.35160,1.23203,-0.28784,-0.09415,0.59319,-0.51892,1.52869,1.06231,1.29506,-2.01408,0.15821,-3.17587,0.02411,-0.79216,-0.04877,-0.60788,-5.07158,13.89628,-5.25547
0.34830,1.24042,-0.29804,-0.12368,0.59490,-0.56222,1.48673,1.18453,1.14934,-1.83951,-0.01446,-2.25503,0.02147,-0.79869,-0.05863,-0.59849,-4.29032,8.95646,-7.79757
0.34515,1.24867,-0.30745,-0.14465,0.59369,-0.58474,1.49669,1.24466,1.01835,-1.83603,-0.32574,-1.62206,0.01746,-0.80421,-0.06937,-0.59003,-2.83650,6.25208,-9.17631
0.34137,1.25682,-0.31690,-0.17060,0.59084,-0.60304,1.63766,1.37306,0.87105,-1.82601,-0.30541,-1.27475,0.00929,-0.81089,-0.08276,-0.57924,5.31395,8.26850,-10.53713
0.33710,1.26494,-0.32614,-0.19843,0.58812,-0.61495,1.81597,1.53338,0.72330,-2.32339,-0.25006,-0.44091,-0.00126,-0.81825,-0.09742,-0.56655,11.83265,15.10403,-10.12189
0.33155,1.27266,-0.33505,-0.23929,0.57997,-0.61937,1.91895,1.57886,0.58545,-2.98180,-0.62047,0.14395,-0.01137,-0.82368,-0.11064,-0.55604,5.97896,5.71603,-8.51384
0.32518,1.28033,-0.34350,-0.28473,0.57300,-0.61650,1.97226,1.58828,0.49086,-3.74325,-0.40018,0.38365,-0.02035,-0.82827,-0.12329,-0.54621,3.10846,1.58092,-8.05277
0.31728,1.28801,-0.35147,-0.34352,0.56778,-0.60751,2.02830,1.59707,0.47002,-4.56639,-0.28028,0.98852,-0.02810,-0.83249,-0.13737,-0.53601,4.10744,2.24725,-2.64099
0.30818,1.29572,-0.35887,-0.40696,0.56393,-0.59149,2.07680,1.54857,0.45287,-4.62059,-0.32828,1.32319,-0.03575,-0.83536,-0.15158,-0.52719,2.55307,-3.42007,-1.58843
0.29819,1.30337,-0.36573,-0.47106,0.55937,-0.57109,2.19031,1.55797,0.41221,-4.63751,-0.54578,1.34773,-0.04570,-0.83835,-0.16723,-0.51684,6.50735,-0.37997,-3.37160
0.28731,1.31078,-0.37240,-0.53501,0.55233,-0.55232,2.31996,1.65102,0.35330,-4.60390,-0.43449,1.26515,-0.05746,-0.84219,-0.18341,-0.50377,9.84187,6.57468,-4.11140
0.27473,1.31802,-0.37890,-0.61144,0.54404,-0.53467,2.38583,1.76708,0.30299,-5.03641,-0.57741,1.10025,-0.06876,-0.84645,-0.19835,-0.48934,4.37967,7.29774,-2.69306
0.26216,1.32527,-0.38541,-0.67193,0.53769,-0.52127,2.40147,1.86834,0.27706,-5.05685,-0.44176,1.24854,-0.07901,-0.85063,-0.21234,-0.47444,1.74119,8.91451,-1.35824
0.24810,1.33258,-0.39143,-0.74033,0.53302,-0.50311,2.33690,1.94057,0.21672,-4.91939,-0.24222,1.67358,-0.08904,-0.85481,-0.22347,-0.45982,-2.70658,7.51020,-1.27376
0.23323,1.34004,-0.39689,-0.80688,0.53279,-0.48053,2.19868,1.92737,0.13868,-4.83877,0.22602,1.76921,-0.09804,-0.85811,-0.23158,-0.44766,-9.97507,0.52526,-4.97055
0.21730,1.34794,-0.40186,-0.87575,0.53950,-0.45556,2.06148,1.91768,0.08731,-5.03189,0.77312,1.85315,-0.10627,-0.86138,-0.23898,-0.43546,-11.00856,-0.60799,-3.29735
0.20087,1.35634,-0.40665,-0.93616,0.55162,-0.43289,1.97998,1.93350,0.07354,-5.02695,1.27467,1.79449,-0.11433,-0.86458,-0.24750,-0.42210,-8.23520,0.28489,-0.71130
0.18238,1.36570,-0.41059,-1.01473,0.57528,-0.40276,1.89511,2.02058,0.08646,-4.79800,1.69777,1.96771,-0.12189,-0.86880,-0.25551,-0.40626,-4.02317,5.79652,1.69861
0.16389,1.37550,-0.41444,-1.07917,0.60092,-0.37694,1.75392,2.07983,0.07887,-4.58787,1.93434,1.85325,-0.12875,-0.87313,-0.26104,-0.39106,-9.19412,3.71961,1.76943
0.14564,1.38531,-0.41837,-1.12448,0.62061,-0.35792,1.66111,2.15753,0.07919,-4.59401,1.99558,1.90750,-0.13595,-0.87748,-0.26693,-0.37456,-10.74914,4.98999,2.13363
0.12427,1.39649,-0.42041,-1.20605,0.65646,-0.31582,1.57495,2.34403,0.09349,-4.52324,1.98813,2.82569,-0.14345,-0.88327,-0.27195,-0.35398,-4.62793,10.97800,3.23949
0.10009,1.40898,-0.41877,-1.32536,0.70995,-0.21540,1.53118,2.40639,0.07820,-4.13853,1.76785,4.32860,-0.15131,-0.88715,-0.27766,-0.33612,-2.06574,-0.16522,-1.26390
0.05929,1.43046,-0.42021,-1.38140,0.73393,-0.14867,1.63033,2.44517,0.03792,-3.98671,1.62689,5.06508,-0.16951,-0.89117,-0.29383,-0.30123,4.65752,2.53660,-3.19761
0.03595,1.44231,-0.41655,-1.44240,0.75753,-0.06377,1.79084,2.48920,0.00019,-3.68843,1.35453,5.56548,-0.18110,-0.89136,-0.30506,-0.28216,9.42984,3.71081,-3.26214
0.01245,1.45416,-0.41217,-1.49261,0.77630,0.01514,2.00779,2.57772,-0.02097,-3.51066,1.28903,5.60639,-0.19369,-0.89056,-0.31847,-0.26070,12.10021,4.24382,-3.20666
-0.01102,1.46591,-0.40727,-1.53202,0.78919,0.08436,2.26930,2.74677,-0.03328,-3.12361,0.81630,5.76986,-0.20786,-0.88882,-0.33381,-0.23530,19.92488,11.92719,-3.08819
-0.03496,1.47751,-0.40051,-1.57011,0.79747,0.16540,2.55900,2.96111,-0.05865,-2.32883,0.24364,5.83461,-0.22389,-0.88558,-0.35061,-0.20665,21.91645,16.13429,-3.13975
-0.05894,1.48867,-0.39227,-1.60012,0.79697,0.25229,2.73559,3.16891,-0.09244,-1.45007,-0.48981,5.34398,-0.23984,-0.88198,-0.36502,-0.17702,13.26424,13.82839,-2.74793
-0.08215,1.49930,-0.38480,-1.61338,0.78930,0.30964,2.68067,3.26906,-0.10431,-0.66452,-1.00976,4.75760,-0.25267,-0.87963,-0.37384,-0.15052,2.39213,10.56103,0.23940
-0.10484,1.50930,-0.37664,-1.61689,0.77442,0.36450,2.38643,3.29934,-0.12822,0.23753,-1.30541,3.73577,-0.26327,-0.87961,-0.37511,-0.12757,-16.87915,3.73813,3.35588
-0.12663,1.51875,-0.36799,-1.60500,0.75370,0.41565,1.93822,3.33080,-0.17719,1.21101,-1.45253,3.04633,-0.27338,-0.88167,-0.36963,-0.10630,-27.40702,2.32650,4.41939
-0.14641,1.52748,-0.35698,-1.56143,0.72301,0.49764,1.25706,3.32336,-0.29247,1.91840,-0.88773,3.50132,-0.28371,-0.88602,-0.35573,-0.08912,-26.32439,0.71786,0.80425
-0.18803,1.54686,-0.33870,-1.53433,0.71147,0.56107,1.18208,3.36797,-0.29289,1.50892,-0.15300,4.03809,-0.30508,-0.88283,-0.35441,-0.04398,-9.43914,0.88369,1.52012
-0.20797,1.55665,-0.32635,-1.51328,0.70905,0.62704,1.38490,3.49567,-0.22509,1.56667,0.09445,4.97452,-0.31564,-0.87813,-0.35921,-0.01496,12.13786,9.36581,1.50818
-0.22774,1.56653,-0.31335,-1.49450,0.70861,0.68811,1.58797,3.49780,-0.14022,1.93002,-0.09488,5.29241,-0.32390,-0.87226,-0.36620,0.01196,19.15623,3.92603,2.69214
-0.24620,1.57629,-0.29840,-1.46037,0.70673,0.76526,1.74487,3.34866,-0.04787,2.52205,-0.31328,4.58972,-0.32935,-0.86607,-0.37450,0.03463,12.55970,-8.57787,1.75381
-0.26399,1.58593,-0.28397,-1.42280,0.70353,0.81987,1.78064,3.16764,0.02672,3.01150,-0.20677,3.39299,-0.33366,-0.86076,-0.38051,0.05454,4.74042,-13.20465,2.57874
-0.28107,1.59567,-0.27011,-1.38406,0.70290,0.85491,1.78772,3.06174,0.08128,3.34717,0.06371,2.52584,-0.33824,-0.85531,-0.38520,0.07519,1.44932,-11.66645,3.20964
-0.29782,1.60522,-0.25698,-1.33436,0.70463,0.88804,1.84815,2.99746,0.16204,3.31502,0.16332,1.89389,-0.34171,-0.84901,-0.39105,0.09749,3.90885,-5.58657,3.23812
-0.31532,1.61447,-0.24512,-1.29550,0.70518,0.90768,1.92301,2.96070,0.25546,3.36009,-0.10236,1.51389,-0.34427,-0.84210,-0.39717,0.12084,6.20349,-2.42036,4.70897
-0.33219,1.62351,-0.23317,-1.25582,0.70093,0.92097,1.93774,2.85271,0.37975,3.46006,-0.60412,1.12402,-0.34424,-0.83619,-0.40262,0.14203,4.44671,-7.43005,7.09067
-0.34644,1.63251,-0.21948,-1.20840,0.68974,0.93371,1.92630,2.70302,0.49879,3.46790,-1.15265,0.82032,-0.34274,-0.83074,-0.40787,0.16141,1.39730,-10.84785,6.79970
-0.36042,1.64100,-0.20599,-1.16716,0.67355,0.94069,1.87441,2.52961,0.58825,3.67254,-1.66511,0.39302,-0.34062,-0.82586,-0.41236,0.17858,-0.47510,-14.12058,6.69714
-0.37276,1.64872,-0.19298,-1.11195,0.65024,0.93969,1.75695,2.30764,0.64642,4.24934,-1.78400,-0.44245,-0.33793,-0.82232,-0.41557,0.19209,-5.86126,-17.07383,4.32824
-0.38373,1.65597,-0.18074,-1.04797,0.62489,0.92993,1.68375,2.18683,0.63859,4.62707,-1.80563,-0.86882,-0.33743,-0.81736,-0.41871,0.20677,-6.62138,-11.93020,0.24231
-0.39421,1.66299,-0.16870,-0.98957,0.60109,0.91914,1.69586,2.14287,0.57769,4.86875,-2.03187,-0.94848,-0.33886,-0.81004,-0.42338,0.22307,-1.90701,-4.37241,-3.77817
-0.40239,1.66884,-0.15738,-0.91178,0.56626,0.90169,1.70598,2.05998,0.49367,4.93800,-2.25603,-1.10665,-0.34060,-0.80238,-0.42876,0.23736,0.89660,-2.56989,-6.13808
-0.41057,1.67471,-0.14624,-0.84773,0.53665,0.88516,1.69877,1.94128,0.45053,4.42642,-2.10533,-1.19726,-0.34089,-0.79551,-0.43416,0.24993,-1.91885,-9.20550,-4.14373
-0.41782,1.67986,-0.13557,-0.78053,0.50093,0.86338,1.69676,1.80450,0.42342,4.36431,-2.43784,-1.60834,-0.34033,-0.78866,-0.44012,0.26170,1.25557,-6.17137,-3.24163
-0.42421,1.68464,-0.12577,-0.71407,0.46815,0.83113,1.52302,1.53334,0.40854,4.06821,-1.96592,-2.24023,-0.33849,-0.78583,-0.44316,0.26739,-9.56933,-16.43869,-2.29821
-0.43101,1.68970,-0.11580,-0.66757,0.44722,0.80474,1.40844,1.37458,0.41586,3.57933,-1.50224,-2.30690,-0.33662,-0.78242,-0.44590,0.27511,-11.79891,-17.07224,-0.58324
-0.43689,1.69439,-0.10648,-0.61825,0.42588,0.77496,1.34958,1.24519,0.43075,3.36358,-1.33917,-2.13901,-0.33413,-0.77860,-0.44940,0.28316,-4.77241,-9.67176,0.64639
-0.44199,1.69880,-0.09741,-0.56721,0.40388,0.74697,1.40393,1.18283,0.45157,2.92308,-1.21992,-1.50612,-0.33107,-0.77287,-0.45489,0.29351,1.48260,-4.92277,0.88478
-0.44782,1.70347,-0.08765,-0.53771,0.38979,0.73511,1.50709,1.16487,0.46422,3.00883,-1.42615,-1.14424,-0.32793,-0.76560,-0.46159,0.30537,8.42834,-1.22989,0.49126
-0.45232,1.70739,-0.07811,-0.49649,0.36844,0.72210,1.61503,1.01196,0.48853,3.20492,-1.76418,-1.02146,-0.32193,-0.75919,-0.47056,0.31395,10.23998,-6.93092,-0.31817
-0.45571,1.71085,-0.06921,-0.44734,0.34483,0.70341,1.64540,0.70759,0.48388,3.13053,-1.37377,-1.36216,-0.31424,-0.75527,-0.48029,0.31647,3.34015,-18.90643,-2.76050
-0.45888,1.71454,-0.06031,-0.40503,0.32822,0.68630,1.63209,0.41670,0.48345,2.92314,-1.10718,-1.24738,-0.30606,-0.75237,-0.48935,0.31750,-0.36226,-19.73574,-2.78997
-0.46198,1.71827,-0.05139,-0.37063,0.31613,0.67425,1.62861,0.18891,0.47441,2.78723,-0.88959,-0.90257,-0.29794,-0.74922,-0.49850,0.31843,-0.85799,-20.51304,-2.17804
-0.46399,1.72145,-0.04243,-0.32737,0.29862,0.66633,1.73433,-0.04616,0.43772,2.48712,-1.04184,-0.23157,-0.28847,-0.74431,-0.51121,0.31852,5.31178,-15.50847,-3.79888
-0.46602,1.72434,-0.03294,-0.29220,0.28012,0.66650,1.95376,-0.17139,0.37906,2.41322,-1.39476,0.00987,-0.27921,-0.73574,-0.52682,0.32122,14.60182,-8.76912,-5.37264
-0.46825,1.72711,-0.02352,-0.26737,0.26435,0.66682,2.11737,-0.25651,0.31930,2.59482,-1.71858,-0.10560,-0.27048,-0.72674,-0.54205,0.32384,17.38644,-6.62960,-4.92102
-0.46832,1.72846,-0.01439,-0.21772,0.23162,0.66257,2.36679,-0.40117,0.14947,2.97383,-1.95837,-0.54372,-0.26206,-0.71470,-0.56218,0.32325,14.93877,-7.31200,-9.66813
-0.46800,1.72990,-0.00557,-0.17101,0.20549,0.65410,2.53880,-0.42252,-0.04942,3.45606,-1.94266,-0.75560,-0.25709,-0.70132,-0.58082,0.32359,12.22045,-0.50634,-12.97468
-0.46638,1.73057,0.00288,-0.11425,0.17349,0.64229,2.68448,-0.47531,-0.30950,3.78278,-2.10128,-0.81214,-0.25375,-0.68678,-0.60068,0.32114,11.50847,1.34696,-15.60674
-0.46462,1.73110,0.01137,-0.06639,0.14534,0.63434,2.77830,-0.64389,-0.53769,3.18524,-2.07812,-0.38404,-0.24861,-0.67355,-0.62089,0.31466,5.80709,-7.58013,-18.93348
-0.46265,1.73104,0.02006,-0.02604,0.11421,0.62969,2.90944,-0.80120,-0.71815,2.61460,-2.27828,-0.50837,-0.24204,-0.65892,-0.64225,0.30782,9.75773,-9.08527,-15.38432
-0.46052,1.73052,0.02835,0.00904,0.08314,0.62078,3.01844,-0.94089,-0.86063,2.34038,-2.23072,-0.91031,-0.23480,-0.64391,-0.66331,0.30044,8.37998,-8.80471,-11.82568
-0.45820,1.72969,0.03599,0.03979,0.05343,0.60529,3.12606,-0.98670,-0.99640,1.82893,-1.97134,-1.34834,-0.22892,-0.62716,-0.68398,0.29401,7.70550,-3.91074,-11.25196
-0.45578,1.72891,0.04322,0.06544,0.03090,0.58607,3.20266,-1.04566,-1.09950,1.88390,-1.26228,-1.39858,-0.22234,-0.61028,-0.70413,0.28693,7.55596,-0.57388,-6.82000
-0.45319,1.72862,0.05020,0.08921,0.02037,0.56797,3.23789,-1.17133,-1.17681,1.69551,-0.32858,-1.23019,-0.21402,-0.59441,-0.72373,0.27766,2.71442,-7.67557,-7.90636
-0.45013,1.72895,0.05755,0.11455,0.02158,0.55713,3.26070,-1.29185,-1.20886,1.78627,0.38216,-0.33754,-0.20445,-0.57873,-0.74247,0.26834,0.76145,-7.80656,-5.11291
-0.44687,1.72940,0.06575,0.13771,0.02433,0.56073,3.33595,-1.43664,-1.20082,1.52172,0.04132,0.67689,-0.19217,-0.56184,-0.76181,0.25895,3.81089,-9.33207,-1.65233
-0.44380,1.72951,0.07461,0.15398,0.02137,0.57488,3.38204,-1.70292,-1.23544,1.14272,-0.48117,1.28378,-0.17706,-0.54571,-0.78150,0.24517,4.07594,-15.34219,-3.31404
-0.44103,1.72932,0.08405,0.16315,0.01409,0.59634,3.43792,-1.99429,-1.33493,0.07763,-0.46409,1.83299,-0.16097,-0.52872,-0.80168,0.22772,-0.02897,-22.02167,-13.74941
-0.43862,1.72884,0.09423,0.16497,0.00420,0.62372,3.68104,-2.05763,-1.30520,-0.35524,-0.46702,2.20893,-0.14465,-0.50512,-0.82260,0.21740,14.20231,-9.15654,-1.22121
-0.43660,1.72847,0.10488,0.16085,-0.00208,0.65234,3.93673,-2.07049,-1.22135,-0.67798,-0.39758,2.68994,-0.12738,-0.47909,-0.84280,0.20962,19.76105,-4.52656,7.53423
-0.43549,1.72764,0.11725,0.14434,-0.01383,0.70036,4.34442,-2.15040,-1.04125,-1.68933,-1.07959,3.34300,-0.10424,-0.44773,-0.86427,0.20424,23.09526,-8.92908,11.24723
-0.43541,1.72604,0.12993,0.11614,-0.03441,0.74245,4.65749,-2.33488,-0.86722,-2.94605,-2.46727,3.80675,-0.07720,-0.41658,-0.88414,0.19699,22.80779,-17.01312,14.67807
-0.43933,1.72105,0.14440,0.03393,-0.10138,0.80255,5.19298,-2.87879,-0.64075,-5.99516,-4.92203,2.92818,-0.03535,-0.37889,-0.90591,0.18581,26.16876,-33.92363,5.91999
-0.44434,1.71511,0.15729,-0.04782,-0.16886,0.82819,5.56265,-3.33815,-0.43787,-7.62931,-6.34998,1.34320,0.00698,-0.34173,-0.92347,0.17430,27.88552,-41.72006,6.81841
-0.45187,1.70712,0.16895,-0.14701,-0.25046,0.82968,5.86585,-3.86443,-0.30048,-8.77196,-7.43529,-1.21746,0.05426,-0.30337,-0.93794,0.15905,24.32441,-46.38045,3.32355
-0.46298,1.69621,0.17791,-0.27584,-0.35600,0.79220,6.16294,-4.47640,-0.19536,-9.74315,-7.73451,-4.38077,0.10768,-0.26270,-0.94855,0.14016,20.80189,-44.68238,-8.48099
-0.47768,1.68271,0.18163,-0.43241,-0.47885,0.68561,6.41514,-5.17225,0.01375,-9.64340,-7.58957,-9.39266,0.16853,-0.22108,-0.95278,0.12220,15.74398,-46.91404,3.33971
-0.49175,1.67035,0.18237,-0.54784,-0.56027,0.55811,6.44788,-5.69878,-0.08325,-9.32833,-6.42358,-12.46187,0.22333,-0.18359,-0.95244,0.09635,9.67861,-40.24663,-20.97584
-0.50795,1.65703,0.17591,-0.66914,-0.63839,0.35568,6.45542,-6.22782,-0.06918,-8.21629,-4.49013,-16.91212,0.28151,-0.14626,-0.94561,0.07196,6.43464,-33.56339,-20.89633
-0.52682,1.64364,0.14411,-0.81368,-0.70369,-0.23700,6.26086,-7.13089,0.94327,-1.48360,0.62411,-22.67975,0.35787,-0.11064,-0.92433,0.07280,-20.76056,-43.09299,23.71289
-0.54896,1.62606,0.11495,-0.80557,-0.67396,-0.56571,5.96060,-7.57669,1.48064,2.87843,3.89464,-24.85057,0.47034,-0.03907,-0.87971,0.05798,-28.61725,-47.44682,11.49777
-0.55639,1.62127,0.08635,-0.75041,-0.60738,-0.86232,5.63376,-7.95044,1.73859,6.86434,7.01331,-24.62728,0.53049,-0.01005,-0.84590,0.05406,-30.98812,-39.91075,-4.40518
-0.55682,1.62422,0.04910,-0.60546,-0.44201,-1.22221,5.36957,-8.17900,1.14912,13.23310,13.86209,-20.83506,0.58248,0.01109,-0.81234,0.02622,8.32299,-18.32750,-33.87255
-0.55150,1.63482,0.01435,-0.40528,-0.19768,-1.47920,4.85292,-7.72124,0.53936,16.07890,21.53508,-16.73015,0.61369,0.02186,-0.78924,0.00138,1.21913,51.84637,-41.81223
-0.54231,1.65132,-0.01694,-0.19270,0.07830,-1.63010,3.91244,-7.26765,0.21874,19.07773,26.11505,-9.38612,0.64244,0.01778,-0.76607,-0.00965,-41.34932,40.12645,-49.25866
-0.52077,1.68621,-0.04195,0.15890,0.56947,-1.65834,1.58996,-6.54579,-0.30040,21.19516,30.64042,3.94058,0.66045,-0.03584,-0.75001,-0.00093,-93.29704,44.00106,-66.01240
-0.49843,1.72207,-0.05666,0.45935,0.98625,-1.53234,-0.72759,-5.65616,-1.07141,23.61461,30.22883,12.92352,0.66799,-0.10717,-0.73636,0.00905,-132.72870,58.23125,-113.35760
-0.47282,1.76060,-0.06577,0.74126,1.34953,-1.35164,-2.33505,-4.28034,-2.20804,25.97008,29.99369,17.73860,0.65429,-0.18152,-0.73412,0.00440,-105.26080,95.04319,-133.14850
-0.43403,1.81218,-0.06493,1.15966,1.82969,-1.06309,-3.88770,-1.88392,-4.28518,28.73015,29.54982,18.32421,0.59586,-0.28379,-0.75098,-0.02113,-34.05885,127.46060,-177.42010
-0.36451,1.87896,-0.05403,2.04136,2.49671,-0.65091,-6.32445,1.83455,-7.37491,40.85726,20.63111,11.64412,0.47586,-0.42749,-0.76728,-0.04568,-55.41844,118.39620,-160.73870
-0.25850,1.96581,-0.06358,2.76229,2.74589,-0.52755,-7.19775,4.19285,-9.25385,50.84790,10.08888,3.83483,0.31767,-0.58743,-0.73955,-0.08412,-21.33392,93.25583,-167.91540
-0.17599,2.00814,-0.07068,3.40873,2.80529,-0.52547,-7.60425,6.04135,-10.85091,58.17927,-1.08560,-3.79366,0.18237,-0.66947,-0.71135,-0.11192,-11.54413,81.91325,-188.69280
-0.07049,2.03658,-0.08690,4.24300,2.64607,-0.65611,-8.19256,8.16353,-12.58670,59.91446,-23.18966,-15.91081,0.01358,-0.74202,-0.65690,-0.13306,-29.33273,70.56518,-188.85620
0.04513,2.03642,-0.11698,5.05277,2.10359,-0.94639,-8.24937,10.35440,-13.16784,53.69330,-54.02898,-25.29633,-0.15353,-0.77650,-0.59853,-0.12343,14.97791,86.23356,-141.14610
0.15782,1.99859,-0.15908,5.65883,1.12968,-1.33226,-6.74577,12.55011,-13.12019,30.71289,-82.79790,-26.38832,-0.31860,-0.75661,-0.56209,-0.10049,95.01216,22.09658,-158.03740
0.25355,1.93681,-0.20225,5.89918,0.02979,-1.65616,-3.95635,13.99383,-12.93189,9.58588,-97.91129,-26.08574,-0.46868,-0.68839,-0.54774,-0.08031,112.48860,-73.98250,-180.82290
0.33132,1.82710,-0.25741,5.82746,-1.52996,-2.10695,-0.38257,14.97352,-13.85350,-19.62016,-96.84042,-30.51068,-0.62662,-0.56435,-0.53164,-0.07881,27.79005,-104.06820,-233.04960
0.38626,1.72687,-0.31209,5.44549,-2.64954,-2.46740,2.08385,15.63628,-14.24462,-46.25578,-88.25125,-29.95959,-0.75344,-0.43750,-0.48747,-0.05746,-12.31117,-49.89299,-198.47910
0.41281,1.61740,-0.37110,4.75314,-3.64348,-2.80205,4.57991,15.57092,-14.45029,-68.65540,-76.35262,-23.53060,-0.84644,-0.28892,-0.44606,-0.03310,15.29069,-89.56761,-212.09340
0.30453,1.46780,-0.42768,2.00679,-5.06567,-3.03041,3.94158,10.84508,-15.79899,-89.76600,-14.93813,13.07928,-0.86990,-0.18552,-0.43373,-0.14401,-178.14350,-19.96323,45.06582
0.28835,1.31937,-0.49618,0.98552,-5.15176,-2.80412,3.21379,9.15662,-15.43855,-81.00670,2.89664,23.59618,-0.93125,-0.01422,-0.30724,-0.19541,-141.15080,-3.21036,87.73091
0.21851,1.25770,-0.50437,-0.18646,-4.99792,-2.36762,3.03873,6.94360,-14.68758,-66.91379,17.73303,29.85575,-0.92553,0.05979,-0.29556,-0.22906,-118.98640,-81.28848,52.24162
0.15752,1.20966,-0.50747,-1.01379,-4.68172,-1.94184,2.68363,5.49013,-14.17072,-52.86865,28.03775,31.66069,-0.91745,0.13331,-0.27058,-0.25941,-94.93806,-48.53383,55.47119
0.09398,1.17957,-0.49865,-1.71951,-4.16807,-1.42384,2.16710,4.07248,-13.88671,-36.08765,36.39254,34.13540,-0.89835,0.20943,-0.24923,-0.29496,-91.07096,-40.05758,22.59981
0.04733,1.15434,-0.48961,-2.04199,-3.69243,-1.00421,0.85981,3.86973,-13.57461,-19.46811,41.03301,36.59550,-0.87874,0.26399,-0.19685,-0.34551,-79.60059,31.49584,44.78383
0.01303,1.14512,-0.46765,-2.11777,-3.09402,-0.49079,-1.08621,4.00959,-12.39428,8.50102,42.55548,35.91165,-0.85662,0.27613,-0.14522,-0.41093,-52.24187,121.49030,80.90643
0.00237,1.14033,-0.44264,-1.84510,-2.55519,-0.03846,-2.23308,3.45809,-10.25802,29.98516,33.25118,28.16810,-0.83999,0.26558,-0.13312,-0.45406,-38.83194,53.22582,168.17400
0.01099,1.13077,-0.41969,-1.35269,-2.19018,0.29603,-3.36781,3.22723,-8.34639,42.48306,15.10838,20.17912,-0.82023,0.24631,-0.11921,-0.50234,-45.27446,52.44593,129.87820
0.03859,1.10793,-0.40008,-0.69159,-2.08401,0.51612,-4.40052,1.45584,-2.60604,45.46737,10.40251,10.06952,-0.81861,0.11866,-0.21556,-0.51897,-64.90211,55.04551,440.04200
0.07091,1.08631,-0.38450,-0.09756,-1.98198,0.63697,-4.89734,1.59611,1.08777,37.35974,7.74437,8.18939,-0.81027,0.00275,-0.25090,-0.52962,-10.82124,33.82243,235.69580
0.09915,1.06771,-0.37044,0.31595,-1.85889,0.71173,-5.07710,2.45169,3.59565,30.76389,13.15444,4.98721,-0.79866,-0.11019,-0.25457,-0.53403,-12.00974,171.90040,215.39380
0.12863,1.05631,-0.35668,0.66113,-1.66102,0.76700,-5.12088,3.15854,5.62960,19.91533,16.70267,2.55162,-0.77759,-0.22210,-0.25659,-0.52933,-8.62623,108.75260,124.74080
0.15262,1.05062,-0.34471,0.86450,-1.42239,0.78647,-5.22829,4.02020,6.20961,9.98867,18.40825,0.39017,-0.75337,-0.30506,-0.23330,-0.53381,-13.62602,72.69769,45.74168
0.17274,1.05192,-0.33452,0.97799,-1.12965,0.77771,-5.46000,4.71995,6.10688,5.00321,18.76224,-1.49398,-0.72473,-0.37099,-0.19928,-0.54536,-41.66652,37.50560,-13.55960
0.18837,1.05378,-0.32540,1.00833,-0.88280,0.75550,-5.62956,4.71489,5.95771,0.71545,16.92592,-2.07411,-0.69091,-0.42370,-0.18070,-0.55720,-16.85416,-0.08468,-6.31810
0.20096,1.05734,-0.31712,0.98968,-0.66028,0.72539,-5.75677,4.26246,5.73543,-2.16610,15.35967,-3.04450,-0.65388,-0.46440,-0.17251,-0.57185,-2.63671,-33.04659,-1.52625
0.21129,1.06212,-0.31056,0.94323,-0.46411,0.67669,-5.63332,3.70563,5.72459,-4.16393,12.96015,-4.22335,-0.61675,-0.50315,-0.17382,-0.57987,23.88786,-35.73206,10.19222
0.21974,1.06719,-0.30637,0.87993,-0.30220,0.60418,-5.46945,3.55737,5.67511,-5.50506,10.48333,-5.71904,-0.58128,-0.54391,-0.16635,-0.58189,19.46879,-12.89469,0.62936
0.22520,1.07281,-0.30520,0.78495,-0.16311,0.50203,-5.28793,3.65736,5.48981,-6.85696,6.96501,-6.48247,-0.54861,-0.58339,-0.15065,-0.57965,6.48951,4.69535,-14.30130
0.22999,1.07504,-0.30360,0.69948,-0.09928,0.42634,-5.19527,3.75496,5.19013,-7.65480,3.78169,-5.92630,-0.51575,-0.61887,-0.13061,-0.57788,1.17643,2.33655,-22.83261
0.23194,1.07605,-0.30336,0.59280,-0.06565,0.34779,-5.17436,3.80980,4.66793,-7.77735,1.21403,-5.35295,-0.48590,-0.64675,-0.10451,-0.57853,-7.42742,-8.21537,-34.67550
0.23152,1.07509,-0.30388,0.47123,-0.06682,0.27287,-5.01840,3.67119,4.08204,-7.38506,-1.29034,-4.33260,-0.46109,-0.66674,-0.08158,-0.57982,2.63579,-18.55465,-32.85586
0.23149,1.07205,-0.30374,0.37790,-0.09733,0.22144,-4.84577,3.48248,3.53458,-5.98581,-2.85561,-3.25402,-0.43803,-0.68333,-0.05949,-0.58108,7.91522,-23.78477,-35.30162
0.23123,1.06761,-0.30356,0.30002,-0.14132,0.18061,-4.62069,3.25869,3.03052,-5.20929,-3.42258,-2.84837,-0.41792,-0.69656,-0.03909,-0.58191,9.84537,-24.97422,-33.05560
0.23069,1.06216,-0.30317,0.23326,-0.19159,0.15047,-4.23757,3.01321,2.56512,-3.99243,-3.78856,-1.74200,-0.40348,-0.70682,-0.02280,-0.58059,20.43196,-22.62814,-33.12421
0.23066,1.05585,-0.30188,0.18735,-0.24375,0.13914,-3.73357,2.69339,2.17877,-2.56463,-3.64419,-0.33645,-0.39332,-0.71434,-0.01264,-0.57866,31.82015,-24.08373,-29.15231
0.23092,1.04932,-0.29979,0.15437,-0.28855,0.14144,-3.26745,2.34682,1.86486,-2.22675,-2.93080,0.61679,-0.38462,-0.71990,-0.00553,-0.57774,35.34106,-25.46063,-23.51690
