posX, posY, posZ, velX, velY, velZ, angVelX, angVelY, angVelZ, accX, accY, accZ, rotX, rotY, rotZ, rotW, angAccX, angAccY, angAccZ
-0.01609,1.21980,-0.43490,-0.34319,0.32792,-0.28578,-0.29828,0.52971,1.38319,1.14612,0.33963,0.64502,-0.02834,-0.92177,-0.09032,-0.37600,7.71436,-7.21795,-1.90309
-0.01978,1.22449,-0.43835,-0.32489,0.33186,-0.27563,-0.18595,0.41848,1.33303,1.14873,0.18518,0.55350,-0.02137,-0.92205,-0.09453,-0.37475,6.95587,-7.22887,-3.50963
-0.02329,1.22923,-0.44164,-0.30725,0.33474,-0.26535,-0.01465,0.40165,1.22813,1.02720,0.12151,0.45273,-0.01709,-0.92275,-0.10003,-0.37179,9.80600,-2.08641,-5.80069
-0.02679,1.23398,-0.44495,-0.29305,0.33672,-0.25854,0.16634,0.45997,1.11599,1.09025,0.13300,0.40031,-0.01436,-0.92400,-0.10645,-0.36699,12.68146,4.67251,-8.11306
-0.03006,1.23876,-0.44831,-0.27874,0.33873,-0.25426,0.30035,0.51031,0.99727,1.24833,0.14687,0.40348,-0.01260,-0.92526,-0.11251,-0.36206,11.35812,5.83518,-9.35278
-0.03279,1.24361,-0.45148,-0.25833,0.34163,-0.24726,0.41996,0.53690,0.83776,1.29251,0.32331,0.61937,-0.01290,-0.92627,-0.11836,-0.35755,8.13746,3.64317,-10.97645
-0.03559,1.24855,-0.45469,-0.24389,0.34575,-0.24192,0.45275,0.49216,0.76357,1.18075,0.51473,0.52794,-0.01116,-0.92675,-0.12325,-0.35471,4.53522,-1.76563,-7.49392
-0.03819,1.25373,-0.45781,-0.23004,0.35327,-0.23606,0.47650,0.43630,0.70786,0.86014,0.59073,0.39501,-0.00935,-0.92695,-0.12808,-0.35251,0.99202,-4.42790,-4.90129
-0.04089,1.25906,-0.46091,-0.22123,0.36107,-0.23194,0.48368,0.40702,0.68371,0.47347,0.66837,0.11247,-0.00699,-0.92729,-0.13281,-0.34992,0.87169,-3.11028,-2.39633
-0.04377,1.26463,-0.46420,-0.21747,0.37089,-0.23159,0.46754,0.40302,0.70404,0.18023,0.81159,-0.02650,-0.00343,-0.92786,-0.13736,-0.34668,-0.33236,-0.54871,0.63393
-0.04679,1.27029,-0.46757,-0.21689,0.37990,-0.23294,0.43685,0.39289,0.74903,-0.00033,0.77861,-0.12968,0.00118,-0.92839,-0.14170,-0.34351,-2.27483,-0.72875,3.27760
-0.04989,1.27620,-0.47101,-0.21803,0.39050,-0.23542,0.40772,0.38449,0.79998,-0.15976,0.74572,-0.26510,0.00635,-0.92890,-0.14603,-0.34027,-2.54267,-0.79430,3.77104
-0.05309,1.28225,-0.47459,-0.22051,0.40104,-0.23980,0.43172,0.45000,0.82865,-0.15045,0.72667,-0.59643,0.01052,-0.92986,-0.15153,-0.33509,0.81907,1.57276,3.68807
-0.05623,1.28850,-0.47828,-0.22146,0.41231,-0.24472,0.46385,0.56857,0.80512,-0.04889,1.09469,-0.32938,0.01291,-0.93145,-0.15693,-0.32804,2.26484,9.62274,-0.86900
-0.05948,1.29542,-0.48186,-0.22425,0.43204,-0.24679,0.50333,0.65416,0.81183,-0.25668,1.36110,0.29864,0.01577,-0.93283,-0.16303,-0.32094,2.91237,7.54156,-0.76156
-0.06281,1.30250,-0.48512,-0.22758,0.45056,-0.24276,0.51762,0.58971,0.84360,-0.19859,1.41537,0.52885,0.02022,-0.93290,-0.16887,-0.31745,0.15224,-3.11122,2.72928
-0.06616,1.31001,-0.48805,-0.23052,0.47167,-0.23429,0.60816,0.55021,0.85954,-0.27400,1.48546,0.59067,0.02362,-0.93259,-0.17683,-0.31377,5.53695,-4.07459,1.30470
-0.06957,1.31785,-0.49080,-0.23381,0.49445,-0.22437,0.71905,0.49592,0.85622,-0.08281,1.45407,0.64526,0.02626,-0.93180,-0.18579,-0.31071,7.77824,-1.30736,-0.56734
-0.07290,1.32587,-0.49385,-0.23503,0.51652,-0.22156,0.77914,0.39592,0.86000,-0.10340,1.82119,-0.17782,0.02965,-0.93050,-0.19400,-0.30928,4.47635,-8.31578,-0.20973
-0.07628,1.33410,-0.49713,-0.23684,0.53532,-0.22346,0.85381,0.41781,0.83747,-0.25502,1.83555,-0.52940,0.03155,-0.92988,-0.20284,-0.30526,5.17426,-3.12915,-0.81927
-0.07983,1.34352,-0.50064,-0.24104,0.57058,-0.22776,1.10202,0.66552,0.69904,-0.24469,2.07534,-0.22685,0.02708,-0.93022,-0.21590,-0.29554,11.73960,13.92378,-7.11940
-0.08337,1.35294,-0.50388,-0.24437,0.59874,-0.22628,1.35456,0.85812,0.56719,-0.28618,1.91975,0.43099,0.02140,-0.92993,-0.23032,-0.28589,16.98309,17.24904,-8.67734
-0.08699,1.36261,-0.50677,-0.24805,0.62384,-0.21956,1.61789,1.00422,0.45132,-0.19687,1.77643,0.65003,0.01463,-0.92880,-0.24650,-0.27633,18.75964,12.38544,-8.50151
-0.09052,1.37260,-0.50952,-0.24970,0.64857,-0.21231,1.81635,1.08552,0.34506,-0.11565,1.79720,0.66161,0.00752,-0.92708,-0.26241,-0.26761,15.97641,9.52751,-8.80944
-0.09412,1.38282,-0.51237,-0.25214,0.67152,-0.20801,1.86765,1.03262,0.29041,-0.16343,1.66571,0.45063,0.00271,-0.92488,-0.27578,-0.26178,6.88589,-0.12661,-5.42308
-0.09785,1.39336,-0.51532,-0.25608,0.69413,-0.20684,1.82871,0.92929,0.25675,-0.43930,1.76241,-0.15549,-0.00070,-0.92262,-0.28698,-0.25770,-2.40041,-8.60103,-3.62852
-0.10190,1.40446,-0.51839,-0.26444,0.72151,-0.20769,1.79930,1.00787,0.22630,-0.77064,2.16555,-0.15466,-0.00533,-0.92137,-0.29811,-0.24935,-2.71095,2.00259,-1.84101
-0.10638,1.41609,-0.52116,-0.27810,0.75111,-0.20296,1.79729,1.16869,0.22529,-1.23899,2.20409,0.70680,-0.01032,-0.92046,-0.30990,-0.23792,-1.04814,11.31630,0.82617
-0.11154,1.42828,-0.52304,-0.30012,0.78192,-0.18522,1.85938,1.33807,0.27421,-1.88107,2.33418,1.80477,-0.01490,-0.91900,-0.32360,-0.22473,2.28288,11.99957,2.86786
-0.11726,1.44060,-0.52411,-0.32585,0.80742,-0.15865,1.93655,1.41558,0.37684,-2.23690,2.16742,2.84355,-0.01752,-0.91653,-0.33858,-0.21218,7.36228,10.31996,7.29205
-0.12411,1.45365,-0.52384,-0.36420,0.83957,-0.11546,1.91357,1.16048,0.57204,-2.35424,2.02271,3.23354,-0.01365,-0.91259,-0.35229,-0.20708,2.22715,-10.94633,10.24953
-0.13152,1.46707,-0.52305,-0.40436,0.87155,-0.07268,1.78759,0.70716,0.78728,-2.59103,2.04177,2.44543,-0.00495,-0.90799,-0.36347,-0.20839,-6.17791,-30.69861,10.58128
-0.13901,1.48028,-0.52270,-0.43624,0.89476,-0.04546,1.69948,0.45346,0.95395,-2.81069,1.95934,1.89979,0.00307,-0.90370,-0.37470,-0.20715,-5.98383,-27.55933,11.11069
-0.14746,1.49395,-0.52193,-0.47612,0.92041,-0.01719,1.64191,0.36397,1.13616,-2.98968,1.81208,1.74363,0.01168,-0.89977,-0.38634,-0.20256,-4.61276,-12.55299,12.12607
-0.15679,1.50806,-0.52031,-0.52233,0.94538,0.01752,1.69060,0.46911,1.32907,-2.90826,1.35745,2.20280,0.01930,-0.89559,-0.40055,-0.19262,1.66332,4.14575,12.62448
-0.16597,1.52190,-0.51849,-0.55510,0.95869,0.04596,1.76752,0.56928,1.43453,-2.62773,0.74890,2.53157,0.02529,-0.89078,-0.41547,-0.18238,5.28916,8.23497,11.67725
-0.17545,1.53556,-0.51603,-0.58396,0.96519,0.07760,1.86614,0.63096,1.47535,-2.32507,0.26709,2.82711,0.03012,-0.88507,-0.43116,-0.17279,7.18394,6.86320,6.15988
-0.18581,1.54909,-0.51245,-0.62078,0.96855,0.12066,1.97389,0.55936,1.46253,-2.33940,0.03676,2.91799,0.03487,-0.87800,-0.44731,-0.16678,7.67697,-0.27184,-0.65703
-0.19668,1.56235,-0.50885,-0.65832,0.96845,0.15644,2.03206,0.40427,1.47522,-3.07833,0.07260,2.50840,0.04158,-0.87038,-0.46265,-0.16328,5.53793,-11.12202,-2.49311
-0.20839,1.57549,-0.50498,-0.70036,0.96565,0.18762,2.08975,0.33273,1.58223,-3.94951,-0.18779,2.66464,0.05031,-0.86233,-0.47866,-0.15729,4.68038,-9.33357,3.66955
-0.22228,1.58791,-0.49952,-0.76878,0.95027,0.23660,2.21698,0.27250,1.85316,-4.42923,-1.47975,3.37774,0.06363,-0.85226,-0.49747,-0.14874,8.57160,-2.72041,15.64223
-0.23661,1.59952,-0.49387,-0.82947,0.92504,0.27797,2.30691,0.08854,2.11948,-4.13468,-1.91652,2.69263,0.08027,-0.84090,-0.51577,-0.14292,8.69434,-14.04280,16.83467
-0.25131,1.61066,-0.48830,-0.88205,0.89755,0.30801,2.32616,-0.02364,2.36154,-3.43198,-2.06179,1.47626,0.09774,-0.82968,-0.53262,-0.13561,4.68756,-12.14514,16.33905
-0.26579,1.62137,-0.48355,-0.92108,0.87107,0.31996,2.23687,-0.00853,2.58689,-2.45329,-1.78744,0.11806,0.11522,-0.81984,-0.54683,-0.12480,-2.96860,-4.65446,15.62647
-0.27997,1.63176,-0.47962,-0.94644,0.84510,0.31633,2.02715,0.09072,2.75764,-1.49249,-2.10309,-0.64831,0.13187,-0.81212,-0.55740,-0.11126,-12.75105,1.88922,14.64953
-0.29380,1.64165,-0.47601,-0.95916,0.81549,0.30653,1.76288,0.20932,2.90002,-0.43629,-2.41931,-0.58445,0.14840,-0.80579,-0.56522,-0.09600,-19.87489,5.09346,12.28390
-0.30705,1.65035,-0.47283,-0.95851,0.77331,0.29707,1.46507,0.17724,2.97719,0.50191,-2.91238,-0.01018,0.16621,-0.80023,-0.57008,-0.08378,-18.86639,-3.98507,6.32088
-0.31966,1.65849,-0.46908,-0.94704,0.73012,0.29813,1.28902,0.02462,2.95484,1.21688,-3.39168,0.57537,0.18369,-0.79339,-0.57534,-0.07599,-12.60732,-11.34898,-0.59893
-0.33146,1.66595,-0.46460,-0.92353,0.68431,0.30714,1.20645,-0.17444,2.82629,2.17014,-3.31181,0.85591,0.19968,-0.78576,-0.58096,-0.07212,-4.49331,-15.85330,-8.04755
-0.34191,1.67269,-0.45943,-0.88110,0.63574,0.32540,1.18843,-0.25256,2.60304,3.03288,-2.86984,1.14513,0.21150,-0.77811,-0.58745,-0.06869,-0.55468,-6.20344,-13.76075
-0.35190,1.67970,-0.45409,-0.84139,0.60370,0.34145,1.18596,-0.20482,2.42436,3.56073,-2.61578,1.37656,0.22123,-0.77045,-0.59456,-0.06296,0.09121,3.23693,-14.91073
-0.36023,1.68581,-0.44816,-0.78238,0.56308,0.36309,1.19341,-0.13149,2.15588,3.87263,-2.62093,1.36004,0.22728,-0.76342,-0.60175,-0.05862,-0.32813,5.96207,-16.42627
-0.36843,1.69195,-0.44232,-0.73561,0.53246,0.37731,1.20281,-0.12454,1.92244,4.01715,-2.55161,1.19113,0.23345,-0.75627,-0.60863,-0.05592,0.61533,3.75684,-17.61199
-0.37543,1.69759,-0.43637,-0.68032,0.50122,0.38996,1.20667,-0.12986,1.63216,3.94003,-2.10829,0.63933,0.23719,-0.74985,-0.61513,-0.05555,1.30629,0.21794,-21.00988
-0.38167,1.70295,-0.43040,-0.62512,0.47300,0.39887,1.16147,-0.02454,1.37096,3.84133,-1.97595,0.44280,0.23825,-0.74474,-0.62111,-0.05317,-3.00785,6.34398,-19.20767
-0.38725,1.70797,-0.42431,-0.57204,0.44504,0.40692,1.10157,0.15252,1.16535,3.75919,-2.03667,0.52762,0.23749,-0.74027,-0.62709,-0.04860,-5.16608,12.27379,-14.83088
-0.39258,1.71275,-0.41812,-0.52779,0.42016,0.41476,1.05216,0.34088,1.01439,3.62510,-2.13939,0.68699,0.23575,-0.73588,-0.63331,-0.04270,-5.35090,15.52378,-12.42589
-0.39693,1.71666,-0.41174,-0.47861,0.38780,0.42439,1.03150,0.50387,0.84689,3.48595,-2.51615,0.79823,0.23231,-0.73152,-0.63994,-0.03737,-3.40290,14.98548,-10.11481
-0.40049,1.71967,-0.40541,-0.42645,0.34759,0.43129,1.05013,0.60345,0.64663,3.12772,-2.48972,0.06814,0.22779,-0.72684,-0.64702,-0.03433,1.06457,5.93393,-12.77470
-0.40454,1.72302,-0.39937,-0.39531,0.32294,0.43180,1.03189,0.72934,0.57363,3.00824,-2.38344,-0.21882,0.22408,-0.72221,-0.65375,-0.02847,-1.19865,9.65018,-9.62597
-0.40708,1.72526,-0.39347,-0.34714,0.28629,0.42930,0.97885,0.94377,0.47583,3.07108,-2.22807,-0.13668,0.21708,-0.71869,-0.66026,-0.02039,-4.51512,14.72524,-4.37822
-0.40895,1.72701,-0.38773,-0.29649,0.24828,0.42367,0.95594,1.10672,0.32893,2.58785,-1.99103,-0.51663,0.20873,-0.71509,-0.66699,-0.01408,-1.26515,9.30163,-8.12984
-0.41117,1.72898,-0.38230,-0.26283,0.22203,0.41449,0.89867,1.23356,0.25477,2.26587,-1.77668,-0.83288,0.20128,-0.71181,-0.67288,-0.00680,-3.81919,10.04757,-4.86401
-0.41338,1.73088,-0.37712,-0.23763,0.20146,0.40330,0.82521,1.31203,0.21038,2.04053,-1.70072,-0.99320,0.19433,-0.70897,-0.67794,0.00053,-6.17212,8.10647,-3.36241
-0.41516,1.73241,-0.37238,-0.21132,0.17978,0.38713,0.75232,1.28367,0.11086,1.89496,-1.50805,-1.15715,0.18762,-0.70683,-0.68204,0.00490,-6.35657,1.67731,-5.10911
-0.41674,1.73366,-0.36822,-0.18772,0.15810,0.36471,0.67397,1.11001,-0.04294,1.19968,-1.27471,-1.45381,0.18225,-0.70554,-0.68482,0.00467,-5.18869,-9.99268,-10.17231
-0.41868,1.73495,-0.36413,-0.17559,0.14242,0.34729,0.60329,0.98930,-0.11192,0.75922,-1.28938,-1.55085,0.17771,-0.70416,-0.68742,0.00558,-6.26336,-11.35406,-8.03359
-0.42062,1.73573,-0.36048,-0.16642,0.12221,0.32659,0.52902,0.86831,-0.13400,0.53588,-1.39771,-1.49569,0.17443,-0.70303,-0.68940,0.00659,-6.08907,-8.18819,-1.87606
-0.42256,1.73625,-0.35711,-0.15931,0.10242,0.30616,0.44895,0.79108,-0.10752,0.47682,-1.39464,-1.54192,0.17176,-0.70211,-0.69099,0.00887,-5.54682,-7.01888,0.59865
-0.42434,1.73654,-0.35399,-0.15115,0.08302,0.28621,0.39941,0.74297,-0.08401,0.72015,-1.33256,-1.36112,0.16892,-0.70091,-0.69286,0.01147,-4.22128,-2.41507,2.78805
-0.42594,1.73684,-0.35120,-0.14159,0.06848,0.26519,0.36875,0.61748,-0.16534,0.83095,-0.92439,-1.61504,0.16583,-0.70013,-0.69442,0.01014,-2.53536,-8.25502,-3.86157
-0.42724,1.73721,-0.34881,-0.12951,0.05850,0.24271,0.31077,0.59703,-0.21990,0.82489,-0.52387,-1.87475,0.16137,-0.69995,-0.69564,0.01059,-3.39283,-4.82255,-5.70326
-0.42829,1.73770,-0.34679,-0.11618,0.05322,0.21993,0.22450,0.73651,-0.22802,0.87457,-0.11625,-1.82194,0.15441,-0.70037,-0.69671,0.01517,-5.73228,6.53896,-1.69388
-0.42914,1.73842,-0.34504,-0.10277,0.05284,0.19802,0.11732,0.94865,-0.19771,0.98865,-0.00744,-1.50338,0.14599,-0.70134,-0.69733,0.02300,-7.48504,15.52832,3.06589
-0.42992,1.73922,-0.34344,-0.09099,0.05372,0.17900,0.03637,1.06926,-0.22781,0.75921,0.07475,-0.90737,0.13728,-0.70251,-0.69771,0.02893,-6.60232,11.54203,0.14579
-0.43105,1.74002,-0.34151,-0.08730,0.05410,0.17024,0.01581,1.11470,-0.24739,0.01321,0.00161,-0.37592,0.12956,-0.70280,-0.69868,0.03368,-3.55809,4.98890,-3.12225
-0.43270,1.74061,-0.33931,-0.09236,0.05053,0.16838,0.05535,1.16665,-0.19083,-0.62108,-0.12808,0.25013,0.12302,-0.70157,-0.70077,0.03992,2.00148,2.73192,2.04934
-0.43468,1.74114,-0.33652,-0.10378,0.04720,0.17673,0.10438,1.19554,-0.09576,-1.02316,-0.34695,0.97951,0.11777,-0.69972,-0.70308,0.04694,3.60256,2.85067,6.53400
-0.43721,1.74131,-0.33307,-0.12136,0.03798,0.19487,0.19166,1.20514,0.03819,-1.58965,-0.86501,1.78056,0.11405,-0.69658,-0.70624,0.05472,6.22841,0.39833,7.87213
-0.44024,1.74106,-0.32892,-0.14309,0.02418,0.22020,0.32266,1.19379,0.20961,-2.05234,-1.25390,2.63245,0.11222,-0.69178,-0.71052,0.06340,9.51669,1.29151,12.03293
-0.44455,1.73990,-0.32331,-0.18191,-0.00203,0.26440,0.57106,0.97209,0.40482,-2.56690,-2.04452,3.31107,0.11627,-0.68392,-0.71695,0.06865,16.06788,-10.89073,12.33662
-0.44949,1.73813,-0.31718,-0.22261,-0.03312,0.30781,0.83348,0.58929,0.55053,-2.98218,-2.39348,3.24131,0.12469,-0.67493,-0.72397,0.06922,19.92412,-24.26103,8.00060
-0.45471,1.73604,-0.31088,-0.25764,-0.06141,0.34283,1.04325,0.19976,0.65342,-2.73036,-2.38438,2.76643,0.13525,-0.66573,-0.73072,0.06754,19.17916,-31.06307,7.79181
-0.46049,1.73348,-0.30407,-0.29346,-0.09029,0.37723,1.21209,-0.24860,0.74849,-2.42085,-1.90771,2.10125,0.14959,-0.65628,-0.73686,0.06292,15.57168,-33.23445,3.81080
-0.46633,1.73082,-0.29727,-0.32136,-0.11447,0.40383,1.31312,-0.60607,0.84700,-1.69057,-1.67520,1.57525,0.16471,-0.64716,-0.74203,0.05876,9.64209,-27.46494,5.97369
-0.47209,1.72797,-0.29033,-0.34147,-0.13655,0.42709,1.38457,-0.96347,0.89555,-0.92928,-1.19563,1.39725,0.18094,-0.63824,-0.74642,0.05259,5.10101,-22.78386,2.74132
-0.47742,1.72524,-0.28335,-0.35124,-0.15118,0.44485,1.44573,-1.21961,0.92056,-0.45434,-1.01046,1.06508,0.19641,-0.62901,-0.75074,0.04650,5.77259,-19.49402,0.13649
-0.48241,1.72252,-0.27641,-0.35304,-0.16195,0.45755,1.51466,-1.37829,0.93809,0.02093,-0.75963,0.94274,0.21113,-0.61902,-0.75535,0.04091,5.90601,-15.30483,-0.07875
-0.48691,1.71966,-0.26916,-0.34593,-0.17234,0.47234,1.58708,-1.46355,0.98173,0.83092,-0.61115,0.75936,0.22566,-0.60814,-0.76020,0.03658,5.03091,-6.46476,3.47084
-0.49080,1.71693,-0.26195,-0.32988,-0.17816,0.48363,1.65467,-1.49209,0.96795,1.45448,-0.33701,0.83332,0.23841,-0.59705,-0.76529,0.03190,4.62864,-2.56979,0.48146
-0.49424,1.71424,-0.25457,-0.31037,-0.18180,0.49480,1.72857,-1.46118,0.94584,1.75920,-0.34903,0.96807,0.24971,-0.58530,-0.77091,0.02775,5.44648,1.35811,-1.56213
-0.49671,1.71128,-0.24673,-0.27920,-0.18929,0.51117,1.85555,-1.35822,0.92013,2.12102,-0.51358,1.05200,0.25910,-0.57176,-0.77805,0.02439,6.91858,6.28132,-0.04476
-0.49861,1.70832,-0.23864,-0.24444,-0.19499,0.52844,2.00025,-1.14991,0.95006,2.02607,-0.05267,1.02751,0.26652,-0.55660,-0.78651,0.02381,8.85937,11.18837,1.42778
-0.50027,1.70560,-0.23042,-0.21334,-0.19516,0.54396,2.09703,-0.85780,1.10163,2.23984,0.17473,1.00602,0.27308,-0.54060,-0.79522,0.02832,4.98805,18.55181,11.87096
-0.50168,1.70308,-0.22209,-0.18620,-0.19161,0.55727,2.18187,-0.56751,1.28005,2.14090,0.55326,1.26378,0.27888,-0.52351,-0.80430,0.03541,4.13529,21.88911,16.72512
-0.50249,1.70116,-0.21313,-0.15545,-0.17837,0.57837,2.37137,-0.26312,1.55051,1.70538,1.09596,1.61976,0.28476,-0.50208,-0.81530,0.04601,8.77121,19.23158,20.19068
-0.50360,1.69969,-0.20389,-0.13726,-0.16053,0.59954,2.62819,-0.11543,1.76686,0.90621,1.46476,1.74878,0.29245,-0.47765,-0.82666,0.05445,15.25928,11.78830,17.51938
-0.50512,1.69850,-0.19454,-0.13077,-0.14233,0.61669,2.86845,-0.09036,1.95008,0.26976,1.53343,1.31283,0.30218,-0.45145,-0.83731,0.06162,19.17349,4.91386,17.05794
-0.50710,1.69800,-0.18541,-0.13434,-0.11681,0.62546,3.11992,-0.26040,2.06264,-0.46127,1.42610,-0.11653,0.31566,-0.42349,-0.84665,0.06482,18.05543,-7.95980,7.24308
-0.50939,1.69719,-0.17712,-0.14189,-0.10285,0.61801,3.24118,-0.43829,2.14542,-0.85133,0.92179,-1.26523,0.32997,-0.39701,-0.85377,0.06767,13.48790,-14.06340,1.75626
-0.51201,1.69628,-0.16984,-0.15323,-0.09399,0.59515,3.32597,-0.64032,2.32096,-0.90420,0.48541,-2.06350,0.34717,-0.36931,-0.85897,0.07246,8.36977,-14.86996,10.73841
-0.51500,1.69531,-0.16356,-0.16808,-0.08824,0.56091,3.37003,-0.89394,2.37102,-1.02060,0.16298,-2.96054,0.36537,-0.34267,-0.86231,0.07413,6.96286,-17.72919,2.79455
-0.51821,1.69401,-0.15846,-0.18312,-0.08953,0.51484,3.38550,-1.16757,2.40980,-1.15059,-0.40532,-3.71872,0.38513,-0.31631,-0.86371,0.07498,4.48429,-18.28652,-2.08249
-0.52151,1.69209,-0.15470,-0.19578,-0.10102,0.45685,3.39858,-1.43728,2.43972,-0.49276,-1.19766,-4.74095,0.40604,-0.28971,-0.86344,0.07525,3.11182,-19.66089,0.09073
-0.52439,1.68962,-0.15266,-0.19852,-0.11919,0.38349,3.47757,-1.65634,2.34308,0.26719,-1.46031,-5.73369,0.42574,-0.26235,-0.86301,0.07171,7.76703,-15.32170,-7.47388
-0.52684,1.68695,-0.15163,-0.19346,-0.13596,0.31171,3.46952,-1.74233,2.33540,0.31221,-1.05594,-6.88404,0.44354,-0.23562,-0.86179,0.07125,7.15968,-7.43193,-9.77527
-0.52812,1.68383,-0.15498,-0.16943,-0.15651,0.18111,3.01086,-1.82988,2.88999,1.55062,-0.72726,-8.35307,0.46565,-0.21364,-0.85410,0.08963,-24.24402,-13.19387,22.61265
-0.52893,1.68117,-0.15835,-0.14322,-0.16448,0.07980,2.50784,-1.98317,3.41945,2.47133,-0.30534,-9.04620,0.48952,-0.19382,-0.84274,0.11220,-40.48524,-23.21509,39.59358
-0.52884,1.67882,-0.16410,-0.10907,-0.16519,-0.03415,2.07607,-2.25826,3.72869,3.96178,0.00131,-9.70502,0.51581,-0.17662,-0.82779,0.13234,-40.63872,-35.09426,26.53321
-0.52681,1.67751,-0.17456,-0.05053,-0.14825,-0.19980,1.91459,-2.60480,3.47920,3.98589,1.54960,-10.50522,0.54179,-0.16190,-0.81330,0.13713,-7.99234,-21.80763,-14.00674
-0.52471,1.67747,-0.18653,-0.00425,-0.11370,-0.35495,1.99670,-3.09931,2.96900,3.14181,3.16664,-11.29238,0.57105,-0.14703,-0.79720,0.12945,14.72774,-24.41678,-34.87232
-0.52182,1.67981,-0.20234,0.04543,-0.04587,-0.54135,2.35070,-3.83978,2.13805,3.67024,5.10328,-11.70509,0.60630,-0.13263,-0.77704,0.10499,34.23558,-36.02782,-48.03239
-0.51845,1.68348,-0.21838,0.09253,0.02821,-0.68668,2.85572,-4.34760,1.35457,4.64866,7.26196,-12.37191,0.63883,-0.11488,-0.75716,0.07350,56.67677,-29.52919,-56.82529
-0.51290,1.69113,-0.23797,0.16440,0.15067,-0.85465,3.38620,-4.94933,0.49990,5.76977,10.53887,-11.43933,0.67350,-0.09848,-0.73191,0.03175,60.35962,-28.07059,-54.61047
-0.50437,1.70435,-0.25869,0.27517,0.34196,-1.00382,3.99868,-5.31458,-0.32001,10.05990,16.22979,-8.58914,0.70353,-0.07956,-0.70602,-0.01608,60.01001,-19.92730,-20.88817
-0.49496,1.72049,-0.27678,0.39195,0.53663,-1.07277,3.81893,-5.52291,-1.18567,10.44218,17.15105,-4.10691,0.72848,-0.08068,-0.67784,-0.05779,30.70423,2.73127,-90.20987
-0.48072,1.74244,-0.29232,0.56261,0.77921,-1.07754,3.21877,-5.50604,-1.64610,13.99785,18.76868,2.77801,0.74987,-0.08857,-0.65012,-0.08486,-20.65746,2.89425,-43.93047
-0.46206,1.76934,-0.30183,0.75556,1.04758,-0.98084,2.40762,-4.83825,-2.34624,15.31355,20.29547,10.78535,0.75690,-0.11105,-0.63470,-0.10923,-35.82842,45.56915,-50.53709
-0.44080,1.79868,-0.30552,0.93175,1.28907,-0.81433,1.46395,-3.82935,-3.05896,15.51080,21.00314,16.67766,0.75307,-0.14519,-0.62873,-0.12845,-31.87676,90.12303,-64.87801
-0.41253,1.83654,-0.29687,1.18256,1.61497,-0.48198,-0.24276,-1.87622,-4.08579,17.28228,21.07299,24.48434,0.72447,-0.21217,-0.64256,-0.13133,-66.76443,131.67740,-72.95170
-0.37933,1.87901,-0.27834,1.46646,1.95275,-0.05123,-2.24260,0.86820,-5.38809,20.74948,22.50695,28.62975,0.66579,-0.30321,-0.67052,-0.12325,-62.93155,181.47910,-97.85760
-0.34248,1.92207,-0.25911,1.74215,2.21743,0.28836,-3.77175,3.32338,-6.54971,26.86283,21.79894,27.51630,0.59021,-0.39594,-0.69435,-0.11294,-75.73140,217.43470,-118.70970
-0.29263,1.97078,-0.23615,2.16523,2.50961,0.60410,-4.55457,5.87941,-7.98578,33.99212,18.35114,18.93851,0.48313,-0.48798,-0.71811,-0.11300,-25.74047,192.45780,-146.44050
-0.22306,2.02136,-0.21755,2.83141,2.76785,0.77183,-4.46338,8.04626,-10.11436,48.76079,11.30185,3.34962,0.34932,-0.57250,-0.72845,-0.13993,8.15213,101.48770,-163.61790
-0.14634,2.06498,-0.20818,3.45322,2.84513,0.74431,-4.13693,9.17672,-12.00756,54.14055,0.17677,-7.21653,0.21448,-0.64124,-0.71519,-0.17693,-14.93388,58.70223,-180.15950
-0.05078,2.09798,-0.20975,4.23046,2.72673,0.54325,-3.78853,9.59261,-14.14887,55.77652,-18.43511,-20.87101,0.07150,-0.69803,-0.67451,-0.22951,-48.57942,13.48869,-158.28830
0.06038,2.10703,-0.22774,5.09516,2.22532,0.10420,-4.06904,9.77218,-15.99961,49.12532,-43.58824,-34.09312,-0.07275,-0.74480,-0.60397,-0.27421,-77.31017,13.30601,-106.48750
0.16311,2.09877,-0.25075,5.61263,1.55742,-0.31344,-4.67768,10.50126,-16.24533,34.39382,-65.66801,-37.25058,-0.20527,-0.77639,-0.52827,-0.27569,-32.36889,72.82167,-43.84430
0.26190,2.05472,-0.28468,5.93094,0.46754,-0.80361,-4.07937,12.22654,-15.27700,8.26523,-86.39325,-33.63694,-0.34062,-0.77599,-0.47631,-0.23442,97.16810,51.26326,-28.10619
0.33820,1.97257,-0.32292,5.80807,-1.02336,-1.25783,-0.54835,13.97333,-13.56545,-22.36644,-95.55891,-22.95587,-0.47616,-0.71443,-0.48498,-0.16631,243.75070,-77.95026,-98.55888
0.39751,1.89363,-0.35630,5.43590,-2.10539,-1.52613,2.18626,13.75067,-13.50422,-38.97891,-87.28706,-20.07723,-0.59755,-0.63087,-0.47434,-0.14122,127.78120,-159.36160,-163.80740
0.43953,1.80562,-0.39279,4.88110,-3.05230,-1.77409,3.98553,13.00541,-13.94511,-54.54697,-73.56689,-20.65526,-0.70486,-0.53457,-0.44798,-0.12930,-5.79254,-123.93640,-148.95210
0.43726,1.69483,-0.43870,3.71494,-4.16601,-2.12031,5.17619,11.75106,-14.55845,-75.01223,-50.82186,-16.91121,-0.79220,-0.42762,-0.41572,-0.12939,-47.47376,-70.05952,-72.76546
0.43296,1.60744,-0.47783,2.77767,-4.65391,-2.27845,5.36977,10.97351,-14.85590,-81.39028,-31.47236,-8.82936,-0.86254,-0.32974,-0.36318,-0.12409,-50.50064,-34.07384,-40.23600
0.40257,1.52597,-0.51185,1.64429,-4.92293,-2.31190,4.71444,9.90582,-14.91404,-79.17760,-9.19924,5.49220,-0.91079,-0.24306,-0.30522,-0.13497,-76.56739,-16.89431,8.13677
0.35519,1.45937,-0.53129,0.47809,-4.88474,-2.08788,2.93133,8.48770,-14.55394,-64.14546,11.38860,23.44108,-0.93688,-0.17990,-0.24533,-0.17236,-109.81520,14.11727,72.87007
0.31067,1.40966,-0.53375,-0.39392,-4.56675,-1.61936,0.23586,6.96168,-13.65563,-43.14725,27.81180,34.42010,-0.94321,-0.14190,-0.18641,-0.23554,-151.60970,47.78531,130.81140
0.28117,1.36852,-0.53142,-0.80297,-4.17997,-1.18839,-1.33674,5.78585,-12.68608,-24.94668,38.02116,35.93524,-0.94303,-0.10023,-0.13796,-0.28569,-153.03320,30.52783,125.44110
0.25959,1.34183,-0.52004,-0.96958,-3.64802,-0.71245,-2.50796,4.41857,-10.99913,2.30999,37.28756,30.56960,-0.93346,-0.07842,-0.11171,-0.33169,-76.56706,1.86386,135.64170
0.25843,1.31999,-0.50551,-0.74736,-3.15668,-0.29104,-4.29872,2.38838,-7.43929,18.55806,29.21804,20.92900,-0.90370,-0.11360,-0.12604,-0.39312,-115.18410,-36.33057,250.22290
0.26411,1.29459,-0.49849,-0.46875,-2.83944,-0.10023,-4.31730,1.82950,-4.65558,27.83753,25.34190,12.35802,-0.88959,-0.14720,-0.12654,-0.41347,-20.25441,44.39838,227.58030
0.27853,1.27322,-0.49027,-0.11423,-2.53561,0.06428,-4.01327,0.24777,-1.88096,24.01389,20.73425,10.54735,-0.86749,-0.18659,-0.16872,-0.42917,19.36885,-53.39922,238.42510
0.29374,1.25404,-0.48095,0.16851,-2.26616,0.20931,-3.97387,-1.00293,0.42966,15.61866,18.82865,11.03473,-0.83756,-0.22896,-0.21372,-0.44766,2.09231,-61.76672,194.24630
0.30738,1.23937,-0.46941,0.35979,-1.97696,0.35827,-4.43239,-0.99810,2.54173,6.78856,17.87010,9.29472,-0.80086,-0.29021,-0.23428,-0.46853,-34.53025,18.25183,136.23540
0.31563,1.22408,-0.45919,0.41577,-1.76830,0.44863,-5.07053,-0.17580,3.59846,0.83760,17.65701,7.22756,-0.76576,-0.34697,-0.22546,-0.49234,-56.73826,67.61467,91.74944
0.32038,1.21371,-0.44851,0.39861,-1.52934,0.52385,-6.14441,0.94372,3.79994,-3.87678,17.48724,4.10147,-0.72605,-0.39766,-0.19126,-0.52739,-91.26289,80.53723,11.32852
0.32237,1.20547,-0.43891,0.34008,-1.31163,0.56281,-6.60943,1.39547,3.68642,-3.46292,15.19900,0.06697,-0.68873,-0.43315,-0.16563,-0.55731,-70.28537,23.22394,-25.12633
0.32389,1.19775,-0.43109,0.28706,-1.13507,0.56200,-6.25536,1.26236,3.68036,-3.82108,12.48664,-2.19357,-0.65831,-0.45990,-0.15987,-0.57407,18.59222,-7.23468,1.51895
0.32525,1.19081,-0.42414,0.24411,-0.98869,0.54744,-5.80938,1.12605,3.78568,-3.19696,12.01791,-1.34406,-0.62850,-0.48672,-0.15852,-0.58563,39.44538,0.27689,1.29323
0.32490,1.18859,-0.41844,0.18326,-0.79819,0.51530,-5.39903,1.24393,4.00915,-4.21302,11.44507,-2.10537,-0.59789,-0.51857,-0.15529,-0.59119,28.43533,14.87876,9.46169
0.32292,1.18757,-0.41391,0.10806,-0.62662,0.46980,-5.34694,1.66815,4.12352,-5.48282,9.61824,-2.88046,-0.56306,-0.55412,-0.14078,-0.59673,-0.29743,28.28413,0.72040
0.32045,1.18484,-0.40962,0.04202,-0.52451,0.43117,-5.41303,1.99815,4.03620,-5.64327,7.40789,-3.60155,-0.52734,-0.58554,-0.12172,-0.60353,-12.66571,24.75702,-11.50183
0.31585,1.18292,-0.40671,-0.04468,-0.43370,0.37840,-5.20720,2.16767,3.87416,-5.16733,4.45546,-3.91984,-0.49627,-0.61216,-0.10608,-0.60641,1.44868,11.21846,-15.69853
0.31068,1.17977,-0.40393,-0.12196,-0.38354,0.33509,-4.66142,2.18371,3.76804,-6.10033,3.11068,-2.97929,-0.47097,-0.63542,-0.09912,-0.60382,34.66019,6.31649,-11.99327
0.30394,1.17638,-0.40128,-0.20798,-0.34981,0.30026,-4.37275,2.24681,3.40560,-6.68710,1.84484,-1.51453,-0.44782,-0.65477,-0.08493,-0.60293,25.32260,4.53443,-23.76439
0.29588,1.17266,-0.39803,-0.29523,-0.32941,0.28398,-4.24790,2.16751,2.89298,-6.01044,1.43481,-0.53380,-0.42628,-0.66819,-0.06691,-0.60608,3.92615,-9.76982,-36.56873
0.28765,1.16934,-0.39395,-0.36304,-0.30716,0.28560,-4.11245,1.92390,2.55133,-5.01518,2.36668,0.25253,-0.40405,-0.67851,-0.05307,-0.61118,8.69419,-21.90409,-30.22353
0.27811,1.16790,-0.38959,-0.43636,-0.25790,0.29093,-3.72217,1.50591,2.39545,-3.23492,3.62112,-0.44273,-0.38454,-0.68548,-0.04940,-0.61628,21.72156,-26.68578,-10.51733
0.26949,1.16728,-0.38602,-0.47789,-0.20602,0.28180,-3.08656,1.29493,2.51541,-2.39140,3.59567,-1.23065,-0.36667,-0.69671,-0.05475,-0.61412,46.70228,-11.98475,6.74239
0.26123,1.16666,-0.38311,-0.50282,-0.16729,0.26383,-2.71890,1.27383,2.49997,-1.87096,3.12398,-1.14411,-0.34893,-0.70879,-0.05449,-0.61065,41.71461,2.23111,1.63143
0.25312,1.16650,-0.38084,-0.51952,-0.13059,0.23993,-2.61865,1.29588,2.28170,-1.00296,2.41717,-1.46032,-0.33196,-0.71895,-0.04652,-0.60889,12.09318,1.29493,-12.96041
0.24537,1.16657,-0.37887,-0.52630,-0.09814,0.21572,-2.66953,1.25773,1.85124,-0.13277,1.94241,-1.25276,-0.31765,-0.72518,-0.03181,-0.61008,-5.02988,-5.21045,-24.88635
0.23809,1.16692,-0.37643,-0.52440,-0.06845,0.20543,-2.50103,1.12028,1.58908,0.46330,3.13046,-1.40503,-0.30560,-0.72986,-0.02350,-0.61104,-0.16997,-13.05869,-27.08497
0.23086,1.16902,-0.37385,-0.52243,-0.01743,0.20014,-1.83706,0.90174,1.48446,0.32777,4.07125,-0.74323,-0.30159,-0.73320,-0.02957,-0.60876,41.27004,-12.20346,-9.60681
0.22340,1.17282,-0.37124,-0.52433,0.05043,0.19583,-0.87821,0.72406,1.56467,-0.20461,5.52343,-0.50241,-0.30255,-0.73746,-0.04845,-0.60189,68.08087,-7.70479,0.05298
0.21539,1.17904,-0.36920,-0.53516,0.14398,0.18241,-0.17707,0.60598,1.74322,-0.88611,6.34598,-0.51258,-0.30012,-0.74279,-0.06865,-0.59454,53.25401,-2.00633,9.41072
0.20721,1.18536,-0.36757,-0.54701,0.21676,0.16658,-0.04605,0.55520,1.84575,-1.13468,6.24332,-1.12416,-0.29075,-0.74876,-0.07895,-0.59042,21.86056,-2.95927,9.37322
0.19848,1.19408,-0.36694,-0.56466,0.31322,0.13628,-0.12405,0.54704,1.96204,-0.98327,6.11150,-2.21392,-0.27729,-0.75566,-0.08574,-0.58715,-2.95032,-2.15045,7.27721
0.18977,1.20326,-0.36714,-0.57825,0.39606,0.09912,-0.29997,0.61019,2.05534,-0.94555,5.90729,-3.12226,-0.26170,-0.76380,-0.08930,-0.58322,-12.60670,1.72222,6.77742
0.18089,1.21295,-0.36813,-0.59202,0.46630,0.05895,-0.34161,0.73625,2.19282,-1.12853,5.84647,-3.95294,-0.24628,-0.77338,-0.09524,-0.57633,-8.97089,6.16726,8.84321
0.17123,1.22482,-0.37092,-0.61555,0.55718,-0.00287,-0.33246,0.98969,2.44713,-1.72821,5.50041,-3.96856,-0.22850,-0.78631,-0.10343,-0.56463,1.00302,16.97865,15.12796
0.16122,1.23612,-0.37393,-0.63957,0.61709,-0.05335,-0.44893,1.17136,2.62243,-2.29989,4.68851,-4.22484,-0.20877,-0.79863,-0.10856,-0.55391,-7.28277,14.70565,16.23862
0.15025,1.24805,-0.37830,-0.67338,0.67207,-0.11355,-0.70906,1.36415,2.78759,-2.67884,3.26213,-4.09242,-0.18521,-0.81196,-0.10977,-0.54256,-17.13515,12.55700,14.08424
0.13826,1.25969,-0.38369,-0.71696,0.71074,-0.17782,-1.11907,1.51535,2.89752,-2.92425,1.70545,-3.78417,-0.15844,-0.82496,-0.10568,-0.53213,-26.30567,6.00872,9.08996
0.12586,1.27040,-0.38891,-0.75806,0.72523,-0.22499,-1.42927,1.56726,2.98765,-3.06101,0.33994,-3.13757,-0.13148,-0.83619,-0.10210,-0.52257,-24.39313,1.49426,8.74128
0.11309,1.28026,-0.39407,-0.79510,0.72204,-0.25872,-1.58650,1.60038,3.03860,-3.22301,-0.97876,-2.87501,-0.10609,-0.84636,-0.09999,-0.51226,-16.26216,-0.82891,7.10069
0.09958,1.28881,-0.39959,-0.83607,0.69988,-0.29031,-1.67599,1.64013,3.05623,-2.68857,-2.24366,-1.90386,-0.08176,-0.85597,-0.09809,-0.50101,-8.04221,3.00835,2.61148
0.08623,1.29641,-0.40473,-0.86436,0.66708,-0.30811,-1.71759,1.61430,3.03349,-2.26763,-3.30412,-1.16596,-0.05860,-0.86390,-0.09648,-0.49085,-4.35755,-1.15233,-0.21000
0.07235,1.30172,-0.40986,-0.89485,0.60496,-0.32145,-1.76185,1.51244,2.90677,-1.91500,-4.58674,-0.58492,-0.03777,-0.86981,-0.09313,-0.48305,-2.19824,-7.22381,-4.97310
0.05863,1.30589,-0.41470,-0.91674,0.53829,-0.32712,-1.77032,1.44432,2.76152,-1.09082,-4.94290,-0.32322,-0.01863,-0.87533,-0.08956,-0.47480,-1.69092,-7.56594,-9.88749
0.04548,1.30953,-0.41928,-0.92405,0.47861,-0.32749,-1.74655,1.39364,2.61949,-0.25230,-5.09405,0.16017,-0.00086,-0.88043,-0.08627,-0.46627,1.63713,-4.35320,-10.80621
0.03297,1.31031,-0.42361,-0.91922,0.38509,-0.32282,-1.82047,1.22711,2.38593,0.68277,-5.26859,0.51594,0.01540,-0.88349,-0.07901,-0.46149,-3.10495,-11.06565,-11.78086
0.02068,1.31292,-0.42784,-0.91187,0.34283,-0.31798,-1.85629,1.13398,2.27010,1.00649,-5.38870,0.70690,0.03294,-0.88670,-0.07302,-0.45536,-5.24821,-13.32393,-11.28223
0.00991,1.31082,-0.43122,-0.88265,0.23661,-0.29991,-1.94056,0.89306,1.97589,2.13318,-5.19821,1.01156,0.04622,-0.88736,-0.06256,-0.45446,-3.37170,-14.53498,-11.89804
-0.00048,1.31049,-0.43462,-0.85184,0.17741,-0.28693,-1.96177,0.73583,1.76148,2.87154,-4.85118,1.16622,0.05919,-0.88831,-0.05356,-0.45226,-1.17737,-14.18194,-15.25649
-0.00965,1.30904,-0.43754,-0.80899,0.11496,-0.26919,-1.93929,0.59329,1.47004,3.07823,-4.23036,1.19256,0.06816,-0.88885,-0.04364,-0.45100,-0.01431,-14.79818,-18.10952
-0.01844,1.30740,-0.43996,-0.76967,0.06327,-0.24743,-1.73615,0.60955,1.17490,2.76525,-3.39555,1.40021,0.07227,-0.89101,-0.03772,-0.44660,9.07026,-4.72062,-21.58660
