posX, posY, posZ, velX, velY, velZ, angVelX, angVelY, angVelZ, accX, accY, accZ, rotX, rotY, rotZ, rotW, angAccX, angAccY, angAccZ
-0.03925,1.17678,-0.30551,-0.43232,0.32643,-0.16390,0.45081,0.64329,0.53046,1.24324,-1.07949,-1.33358,0.07909,-0.87619,0.10880,-0.46282,4.03850,-0.27422,-10.71781
-0.04415,1.18049,-0.30892,-0.41421,0.31232,-0.18322,0.48652,0.63053,0.37135,1.30804,-0.90766,-1.42790,0.07679,-0.87863,0.10531,-0.45938,2.32548,-0.04982,-11.47347
-0.04875,1.18417,-0.31279,-0.39480,0.30061,-0.20601,0.53373,0.63815,0.20735,1.08918,-0.43305,-1.53553,0.07325,-0.88141,0.10183,-0.45540,1.80698,0.00377,-10.85697
-0.05368,1.18821,-0.31662,-0.38577,0.29844,-0.22290,0.60451,0.67924,0.14234,0.54074,0.10846,-1.38605,0.07079,-0.88456,0.09662,-0.45078,4.44584,2.74403,-8.73576
-0.05879,1.19247,-0.32084,-0.38255,0.30097,-0.24210,0.69234,0.72111,0.16756,-0.03098,0.38565,-1.06180,0.06976,-0.88775,0.08948,-0.44612,5.77429,3.43106,0.71407
-0.06410,1.19705,-0.32495,-0.38304,0.30815,-0.25501,0.78937,0.76684,0.22607,-0.06138,0.78340,-1.12824,0.06942,-0.89101,0.08101,-0.44127,6.44362,2.40489,3.69883
-0.06960,1.20192,-0.32930,-0.38641,0.31808,-0.26862,0.92721,0.83854,0.31998,-0.31772,0.57333,-0.88762,0.06963,-0.89467,0.07005,-0.43567,10.35437,4.43207,6.61703
-0.07513,1.20672,-0.33387,-0.38899,0.32393,-0.28331,1.01298,0.88232,0.39468,0.00052,0.22383,-0.91876,0.07010,-0.89803,0.05954,-0.43022,7.03819,3.08770,4.91760
-0.08037,1.21132,-0.33859,-0.38583,0.32507,-0.29710,0.98310,0.87492,0.43571,0.39491,0.07648,-1.15840,0.07132,-0.90063,0.05181,-0.42556,0.66216,0.95304,3.88930
-0.08525,1.21568,-0.34397,-0.37730,0.32178,-0.31873,0.84683,0.81802,0.47627,0.56304,-0.35241,-1.40075,0.07411,-0.90233,0.04698,-0.42202,-7.15663,-3.23212,3.23854
-0.09008,1.21995,-0.34940,-0.37022,0.31783,-0.33625,0.72958,0.78713,0.47648,0.59914,-0.34874,-1.54434,0.07633,-0.90418,0.04295,-0.41807,-10.56050,-4.25245,1.31644
-0.09478,1.22429,-0.35524,-0.36279,0.31586,-0.35611,0.64692,0.79379,0.46313,0.48410,-0.08983,-1.40930,0.07815,-0.90641,0.03894,-0.41329,-7.41492,-0.25446,-0.86019
-0.09951,1.22869,-0.36117,-0.35741,0.31556,-0.37298,0.62456,0.81549,0.45862,0.34484,-0.00849,-1.14106,0.07963,-0.90882,0.03371,-0.40812,-2.66472,0.86864,-0.08087
-0.10423,1.23328,-0.36714,-0.35323,0.31848,-0.38668,0.66449,0.86360,0.44696,0.26312,0.33736,-0.93936,0.08023,-0.91164,0.02702,-0.40218,1.05179,3.12920,-0.55343
-0.10903,1.23806,-0.37303,-0.35129,0.32370,-0.39547,0.73340,0.91456,0.45905,0.08961,0.49073,-0.63749,0.08088,-0.91453,0.01894,-0.39589,4.84523,4.36897,-0.44406
-0.11380,1.24299,-0.37904,-0.34955,0.33034,-0.40419,0.82202,0.93319,0.49751,0.15421,0.34884,-0.46539,0.08185,-0.91703,0.00953,-0.39021,6.05364,1.91390,2.58237
-0.11845,1.24787,-0.38505,-0.34611,0.33450,-0.41120,0.87913,0.94579,0.48711,0.25782,0.21247,-0.53134,0.08191,-0.91947,0.00095,-0.38452,4.37027,0.25375,0.19788
-0.12301,1.25280,-0.39115,-0.34194,0.33876,-0.41802,0.96443,1.00530,0.41588,0.25585,0.20230,-0.41727,0.07986,-0.92252,-0.00812,-0.37751,5.04945,3.49552,-3.81566
-0.12755,1.25774,-0.39721,-0.33823,0.34250,-0.42245,1.01468,1.05508,0.31940,0.31160,0.37233,-0.30357,0.07680,-0.92560,-0.01632,-0.37026,4.40140,5.23263,-7.26277
-0.13197,1.26291,-0.40334,-0.33368,0.34946,-0.42720,0.99303,1.05993,0.21397,0.24789,0.74624,-0.15318,0.07347,-0.92834,-0.02247,-0.36371,-0.62419,2.67654,-7.76596
-0.13652,1.26868,-0.40941,-0.33230,0.36507,-0.42929,0.94204,0.99661,0.15378,-0.13454,1.37551,0.06841,0.07111,-0.93024,-0.02775,-0.35891,-4.14854,-3.66065,-4.65414
-0.14145,1.27503,-0.41511,-0.33853,0.38823,-0.42492,0.99811,0.94799,0.14781,-0.68093,1.90097,0.45399,0.06881,-0.93190,-0.03595,-0.35431,1.16823,-3.73537,-1.51488
-0.14686,1.28208,-0.42044,-0.35162,0.41771,-0.41484,1.16043,0.93230,0.15642,-1.13779,2.22040,0.74883,0.06559,-0.93349,-0.04757,-0.34932,9.84044,-1.77808,0.46036
-0.15274,1.28977,-0.42549,-0.36914,0.45054,-0.40232,1.40951,0.99695,0.14576,-1.35154,2.39114,0.71098,0.06054,-0.93549,-0.06253,-0.34246,16.03242,2.35769,-1.05432
-0.15904,1.29783,-0.43040,-0.38968,0.48332,-0.39058,1.70304,1.15854,0.09448,-1.60541,2.24928,0.69412,0.05309,-0.93815,-0.08011,-0.33264,21.07158,10.54927,-3.45042
-0.16578,1.30612,-0.43523,-0.41281,0.51178,-0.37998,1.96906,1.35588,0.04047,-1.72296,1.90773,0.79358,0.04466,-0.94097,-0.09884,-0.32065,19.48376,15.07503,-3.60389
-0.17291,1.31465,-0.43989,-0.43697,0.53718,-0.36894,2.20994,1.55150,-0.01093,-1.76626,1.75705,0.87898,0.03545,-0.94354,-0.11851,-0.30731,17.17142,14.41610,-3.15464
-0.18031,1.32330,-0.44425,-0.45988,0.55810,-0.35527,2.40035,1.70138,-0.06342,-1.48152,1.33914,1.32018,0.02572,-0.94550,-0.13827,-0.29370,15.85928,13.81897,-3.61786
-0.18763,1.33193,-0.44836,-0.47578,0.57372,-0.34051,2.46798,1.67653,-0.09088,-0.87623,1.04094,1.20519,0.01740,-0.94603,-0.15579,-0.28366,6.36316,1.11780,-2.74310
-0.19475,1.34062,-0.45237,-0.48447,0.58665,-0.32760,2.50000,1.60291,-0.14397,-0.46142,0.82024,0.84220,0.00859,-0.94578,-0.17237,-0.27518,2.54494,-4.89136,-4.08577
-0.20182,1.34928,-0.45639,-0.49029,0.59619,-0.31789,2.46212,1.50967,-0.19105,-0.39890,0.54465,0.76178,0.00028,-0.94519,-0.18713,-0.26759,-1.59501,-4.83133,-4.85516
-0.20890,1.35772,-0.46042,-0.49487,0.59934,-0.31080,2.37738,1.36688,-0.20882,-0.37784,0.05150,0.66266,-0.00671,-0.94403,-0.20040,-0.26192,-5.48391,-9.27951,-2.48861
-0.21612,1.36586,-0.46438,-0.50046,0.59610,-0.30460,2.25866,1.18248,-0.24406,-0.30102,-0.40812,0.09259,-0.01342,-0.94239,-0.21190,-0.25851,-8.05193,-12.41248,-2.54279
-0.22321,1.37387,-0.46851,-0.50261,0.59129,-0.30278,2.19993,1.15299,-0.31731,-0.13352,-0.56349,-0.07086,-0.02220,-0.94118,-0.22389,-0.25209,-6.45037,-5.48517,-4.64988
-0.23014,1.38167,-0.47264,-0.50151,0.58419,-0.30134,2.17375,1.16062,-0.43970,0.19515,-0.41414,0.06735,-0.03318,-0.93981,-0.23577,-0.24510,-4.04261,1.45623,-7.34742
-0.23687,1.38962,-0.47654,-0.49733,0.58121,-0.29699,2.22537,1.23646,-0.63001,0.20451,-0.16254,0.24380,-0.04773,-0.93801,-0.24873,-0.23663,1.77238,4.73465,-10.55006
-0.24363,1.39768,-0.48030,-0.49431,0.58037,-0.29146,2.34738,1.38371,-0.83004,0.19612,-0.06251,0.26050,-0.06488,-0.93563,-0.26339,-0.22587,6.36657,10.81773,-12.55242
-0.25033,1.40574,-0.48404,-0.49115,0.57981,-0.28675,2.48901,1.58680,-1.01663,0.27553,-0.03452,0.31259,-0.08406,-0.93272,-0.27891,-0.21255,10.87305,16.06287,-14.53032
-0.25692,1.41388,-0.48744,-0.48647,0.57977,-0.27811,2.61270,1.76960,-1.22729,0.39204,0.07293,1.19528,-0.10553,-0.92893,-0.29418,-0.19853,10.01793,18.03744,-12.83581
-0.26368,1.42219,-0.49041,-0.48595,0.58208,-0.26463,2.54812,1.55785,-1.25760,-0.10921,0.48895,1.51394,-0.11971,-0.92423,-0.30652,-0.19369,-3.13991,-7.42856,-6.83129
-0.27114,1.43095,-0.49312,-0.49787,0.59250,-0.24977,2.45225,1.24586,-1.14076,-1.34366,1.30706,0.69560,-0.12841,-0.91920,-0.31879,-0.19226,-9.28707,-25.08375,2.44418
-0.27967,1.44056,-0.49594,-0.52528,0.61516,-0.23941,2.37802,1.19281,-0.91864,-2.57778,2.20482,0.30470,-0.13483,-0.91537,-0.33137,-0.18470,-5.91039,-12.16378,12.35581
-0.28938,1.45114,-0.49855,-0.56610,0.64876,-0.22821,2.33734,1.34939,-0.60438,-3.27830,2.83009,0.81732,-0.13902,-0.91268,-0.34456,-0.17021,-0.82318,6.18192,22.52689
-0.30014,1.46262,-0.50074,-0.61508,0.68998,-0.21237,2.31453,1.61574,-0.24513,-3.58653,2.99869,1.23056,-0.14129,-0.91065,-0.35794,-0.15047,1.55935,13.07809,26.96213
-0.31125,1.47470,-0.50245,-0.65787,0.72975,-0.19377,2.11986,1.69115,0.10488,-2.42815,3.28970,1.85077,-0.13944,-0.90980,-0.36730,-0.13381,-6.87464,6.04077,28.99738
-0.32185,1.48753,-0.50337,-0.68212,0.77230,-0.16666,1.89975,1.62593,0.35068,-1.22381,2.57692,2.43299,-0.13666,-0.90896,-0.37484,-0.12088,-12.22762,-2.62176,21.33983
-0.33204,1.50087,-0.50343,-0.69378,0.81484,-0.13018,1.68352,1.44412,0.46223,-0.56655,3.10443,3.01054,-0.13441,-0.90778,-0.38106,-0.11251,-16.30883,-13.97889,10.39270
-0.34213,1.51508,-0.50200,-0.70157,0.86145,-0.07715,1.63605,1.32836,0.51933,-0.88542,3.74047,4.26206,-0.13366,-0.90518,-0.38999,-0.10341,-8.34893,-12.18877,3.11028
-0.35292,1.53000,-0.49857,-0.71942,0.90928,-0.00258,1.82144,1.28554,0.63434,-1.64089,3.47570,5.95264,-0.13234,-0.90015,-0.40480,-0.09136,9.99832,-4.16618,5.62131
-0.36446,1.54523,-0.49310,-0.74571,0.95145,0.08921,2.15482,1.27044,0.80999,-2.02360,2.73994,6.91854,-0.12944,-0.89269,-0.42476,-0.07699,23.26239,-1.01357,9.76893
-0.37645,1.56046,-0.48607,-0.77301,0.98325,0.18531,2.43758,1.17885,1.01644,-1.63268,1.87139,6.97179,-0.12365,-0.88425,-0.44582,-0.06363,25.17624,-4.72105,12.42256
-0.38831,1.57571,-0.47797,-0.79176,1.00813,0.27680,2.61714,1.07510,1.19252,-1.14865,1.46230,6.32136,-0.11667,-0.87570,-0.46576,-0.05111,15.30211,-9.79679,10.74608
-0.40018,1.59062,-0.46867,-0.80604,1.02436,0.37310,2.74754,1.01392,1.39984,-0.66585,0.43716,5.92297,-0.10793,-0.86694,-0.48518,-0.03711,10.60951,-4.79737,11.75385
-0.41194,1.60445,-0.45987,-0.81436,1.02360,0.44958,2.78034,0.88287,1.59032,-0.48259,-0.55223,5.61104,-0.09719,-0.85853,-0.50284,-0.02500,4.90103,-9.19132,11.63853
-0.42364,1.61766,-0.45067,-0.81947,1.01044,0.51140,2.76355,0.72580,1.75953,-0.24095,-1.67954,5.29170,-0.08478,-0.85020,-0.51939,-0.01411,2.50821,-13.73379,11.98532
-0.43504,1.62946,-0.43954,-0.81817,0.97367,0.58786,2.70139,0.41284,1.93299,0.55491,-2.94305,4.65022,-0.06840,-0.84202,-0.53504,-0.00757,-1.35531,-20.68552,9.00175
-0.44572,1.64034,-0.42832,-0.80487,0.92832,0.64773,2.69264,0.19164,2.02276,1.20877,-3.66739,4.01173,-0.05336,-0.83274,-0.55108,-0.00102,0.84864,-19.66101,3.50262
-0.45570,1.65045,-0.41685,-0.78311,0.88080,0.69549,2.73445,0.12288,2.02763,2.17582,-4.39382,3.91023,-0.04121,-0.82221,-0.56764,0.00729,2.41554,-9.46317,2.74761
-0.46403,1.65846,-0.40364,-0.73919,0.80780,0.75721,2.85474,0.11891,1.87959,2.95846,-4.92793,3.64301,-0.03358,-0.80960,-0.58584,0.01471,7.06273,1.54834,-8.48029
-0.47214,1.66621,-0.39062,-0.70233,0.74760,0.79952,2.95752,0.19424,1.75198,3.11641,-5.23357,3.38207,-0.02753,-0.79628,-0.60383,0.02375,7.81801,6.33412,-10.19200
-0.47964,1.67272,-0.37701,-0.66462,0.68240,0.83976,3.08413,0.28512,1.63426,3.13576,-5.70351,3.31775,-0.02261,-0.78144,-0.62268,0.03335,8.61585,10.91659,-8.46613
-0.48569,1.67656,-0.36225,-0.61398,0.58729,0.88796,3.26712,0.37982,1.51970,3.54826,-6.16338,2.78317,-0.01872,-0.76435,-0.64308,0.04316,11.20847,8.76788,-5.38205
-0.49079,1.67984,-0.34747,-0.55986,0.50304,0.92483,3.39631,0.45014,1.35861,3.97338,-6.26459,2.47458,-0.01641,-0.74694,-0.66270,0.05142,8.04409,7.73327,-9.71431
-0.49499,1.68178,-0.33245,-0.50320,0.41646,0.95760,3.50473,0.55624,1.20834,4.10450,-6.12127,2.31746,-0.01561,-0.72869,-0.68200,0.06029,8.03238,9.31355,-9.22866
-0.49854,1.68253,-0.31636,-0.44764,0.33107,1.00191,3.66106,0.81624,1.08279,3.42698,-6.37237,3.81034,-0.01827,-0.70814,-0.70205,0.07295,4.98867,17.25031,-7.58280
-0.50203,1.68132,-0.29874,-0.40488,0.23275,1.06041,3.98671,1.08511,1.07971,2.69786,-7.07353,4.63619,-0.01993,-0.68216,-0.72549,0.08905,21.04462,23.57563,2.73790
-0.50572,1.67798,-0.27954,-0.37465,0.12056,1.13316,4.37821,1.13737,1.16208,1.37158,-7.13407,4.60974,-0.01652,-0.65242,-0.75061,0.10328,24.20813,8.07002,4.88235
-0.51120,1.67485,-0.26123,-0.36727,0.03761,1.18086,4.66094,0.94846,1.22504,0.77988,-6.94428,3.78975,-0.00832,-0.62249,-0.77446,0.11242,25.86849,-8.48489,3.14480
-0.51777,1.66963,-0.24262,-0.37381,-0.06191,1.22411,4.93905,0.43931,1.19444,-0.89941,-5.87434,1.77590,0.00611,-0.59104,-0.79877,0.11230,20.64667,-27.25217,-12.31516
-0.52478,1.66462,-0.22492,-0.39426,-0.13452,1.23900,5.10332,0.06433,1.28132,-2.03459,-4.64866,0.23124,0.02252,-0.55983,-0.82031,0.11480,14.83683,-28.94299,-6.68336
-0.53216,1.65916,-0.20795,-0.42691,-0.19579,1.23381,5.20960,-0.24685,1.51426,-3.00146,-3.81536,-1.10810,0.04261,-0.52804,-0.83953,0.12061,13.91004,-23.00148,5.91370
-0.54069,1.65369,-0.19213,-0.47149,-0.24247,1.21020,5.23712,-0.54795,1.90911,-3.57992,-2.88315,-2.50986,0.06788,-0.49663,-0.85544,0.13025,5.50812,-28.23639,17.89766
-0.55032,1.64828,-0.17781,-0.52414,-0.27716,1.16658,5.15501,-0.93344,2.26613,-3.85067,-2.29656,-3.70331,0.09724,-0.46725,-0.86772,0.13888,-2.10490,-32.74367,19.46128
-0.56107,1.64297,-0.16505,-0.58317,-0.30177,1.10655,5.03227,-1.51811,2.47329,-4.19224,-1.48170,-4.78150,0.13198,-0.43945,-0.87719,0.14142,-2.40249,-42.40458,3.77155
-0.57231,1.63793,-0.15333,-0.63580,-0.31583,1.04446,4.88195,-2.08781,2.59046,-4.49458,-1.03854,-5.66462,0.16893,-0.41287,-0.88379,0.14115,-4.11414,-48.07398,-5.89812
-0.58531,1.63271,-0.14483,-0.70536,-0.32944,0.94259,4.70713,-2.93840,2.64699,-3.98288,-0.77898,-7.23682,0.21526,-0.38829,-0.88593,0.13421,-1.37253,-52.70590,-9.84536
-0.59784,1.62775,-0.13728,-0.75064,-0.33566,0.84878,4.56745,-3.60646,2.49668,-3.27022,-0.59311,-8.57447,0.25893,-0.36386,-0.88633,0.12242,0.36675,-52.76521,-24.04422
-0.61076,1.62273,-0.13335,-0.79107,-0.34146,0.71841,4.44265,-4.31809,2.20908,-2.35966,-0.34017,-10.22317,0.30502,-0.34058,-0.88334,0.10335,5.06111,-44.99789,-34.90406
-0.62320,1.61750,-0.13365,-0.81434,-0.34946,0.54541,4.36977,-4.94166,1.92729,-0.77848,-0.57890,-11.76363,0.35158,-0.31645,-0.87724,0.08185,6.68700,-35.10742,-31.62886
-0.63404,1.61196,-0.13607,-0.80513,-0.36103,0.37468,4.36674,-5.28966,1.92441,1.80131,-0.70935,-12.92665,0.39655,-0.28821,-0.86898,0.06748,5.43649,-25.63484,-10.67713
-0.64351,1.60651,-0.13873,-0.77617,-0.36784,0.24508,4.37673,-5.43225,1.91961,3.98290,-0.61254,-13.37721,0.43754,-0.25857,-0.85949,0.05446,2.26735,-19.23351,-2.06027
-0.64797,1.60116,-0.15166,-0.66862,-0.37128,-0.02833,4.43109,-5.54763,1.88419,6.94996,0.37785,-14.49543,0.47710,-0.22729,-0.84802,0.03986,5.86431,-4.35678,-3.43524
-0.65073,1.59663,-0.16361,-0.55289,-0.35977,-0.23130,4.42158,-5.55247,1.99442,9.45067,1.56344,-14.85252,0.51445,-0.19519,-0.83447,0.03017,-1.72722,-2.91177,5.98808
-0.65256,1.59291,-0.17545,-0.45333,-0.33778,-0.37729,4.38647,-5.56643,2.04217,10.65849,2.94724,-14.65348,0.55034,-0.16366,-0.81851,0.01986,-5.32309,-2.78438,6.12818
-0.64827,1.59240,-0.19446,-0.27647,-0.26705,-0.60631,4.23456,-5.73327,2.04962,11.64914,6.01260,-14.26986,0.58805,-0.13531,-0.79737,0.00915,-4.87788,-7.07883,-4.07083
-0.64185,1.59444,-0.21422,-0.10230,-0.16895,-0.79750,4.08997,-6.03742,2.03104,13.40852,8.14856,-13.17447,0.62799,-0.10781,-0.77071,-0.00282,-9.50177,-20.88135,-12.65107
-0.63292,1.59909,-0.23460,0.07031,-0.05198,-0.95143,3.95587,-6.36836,1.71515,16.06510,11.26712,-12.39980,0.66663,-0.08496,-0.74020,-0.02206,0.57424,-20.83992,-16.33474
-0.61756,1.60912,-0.25699,0.30591,0.12442,-1.09970,3.86243,-6.71256,1.15519,18.64951,14.16493,-8.68816,0.70376,-0.06717,-0.70552,-0.04965,13.14512,-17.29386,-45.82906
-0.59407,1.62592,-0.27753,0.62594,0.37562,-1.18420,3.75612,-6.71433,0.54324,21.80889,17.71546,-1.27575,0.73280,-0.05352,-0.67375,-0.07877,9.71771,0.89017,-38.88458
-0.56783,1.64713,-0.29141,0.92097,0.64573,-1.13750,3.31099,-6.16565,-0.03621,21.33767,22.18066,7.30584,0.75013,-0.05038,-0.65158,-0.10103,0.79329,39.65735,-34.58576
-0.54052,1.67251,-0.29845,1.16078,0.91772,-0.99054,2.16350,-5.44339,-0.81035,20.14030,25.14397,15.66718,0.76173,-0.07307,-0.63372,-0.11323,-49.16202,63.74583,-63.28228
-0.50881,1.70667,-0.29490,1.41348,1.26623,-0.70646,0.57516,-4.02850,-2.12872,18.46040,25.98941,24.04312,0.75484,-0.12894,-0.63125,-0.12293,-78.26843,103.00920,-110.77420
-0.47411,1.74714,-0.28289,1.65788,1.63819,-0.35028,-0.94167,-2.15510,-3.90490,18.25956,27.37761,26.79793,0.72666,-0.20857,-0.63981,-0.13824,-55.68930,144.38340,-138.34580
-0.43450,1.79321,-0.26485,1.92748,2.01601,0.02193,-2.00425,-0.21749,-5.94224,22.08972,26.28508,27.02609,0.67835,-0.30043,-0.64992,-0.16491,-32.87813,142.36460,-160.95310
-0.38895,1.84032,-0.24540,2.22774,2.31971,0.32756,-2.20156,1.45133,-7.81777,28.87025,23.17364,25.40429,0.61435,-0.38419,-0.65727,-0.20728,11.47241,121.79410,-171.59510
-0.32507,1.89305,-0.21863,2.75538,2.64335,0.68040,-1.72227,3.18021,-10.53036,36.54231,15.85704,19.62715,0.51448,-0.47506,-0.65657,-0.28026,56.80337,68.52309,-190.61830
-0.25005,1.93854,-0.19395,3.35254,2.78044,0.92586,-1.12231,4.33410,-12.80335,49.75192,0.93910,15.73790,0.40471,-0.55327,-0.63673,-0.35310,17.93746,28.21053,-181.78180
-0.15093,1.96633,-0.16866,4.21608,2.59022,1.12840,-0.27720,5.80966,-15.13575,54.79868,-26.48335,10.13975,0.25977,-0.62005,-0.60587,-0.42543,47.46945,21.10754,-188.70240
-0.04874,1.96749,-0.14527,4.94149,1.99934,1.25609,0.25137,7.40850,-15.83612,47.15168,-57.52033,7.29853,0.11771,-0.66526,-0.57886,-0.45662,71.15117,50.14495,-106.15600
0.05431,1.93519,-0.12375,5.51032,0.98819,1.32179,1.79642,9.82065,-14.66008,33.79081,-83.58699,-0.43274,-0.03194,-0.67223,-0.59125,-0.44442,173.29190,12.36577,-40.97221
0.15283,1.87233,-0.10903,5.87039,-0.29226,1.25714,4.09683,13.02151,-12.39383,19.02832,-96.31556,-11.40320,-0.19672,-0.64757,-0.63122,-0.37884,320.29940,-0.11399,-15.12624
0.24382,1.78808,-0.10803,6.02020,-1.62907,0.97721,7.14656,15.18920,-11.44456,0.98893,-97.91331,-29.39175,-0.37788,-0.58037,-0.64765,-0.31770,262.62950,-9.78455,-132.77860
0.32072,1.69509,-0.12299,5.90227,-2.78000,0.50597,9.59786,15.89181,-11.33391,-22.40177,-95.48064,-46.48718,-0.53920,-0.48803,-0.63186,-0.26804,164.65460,-19.33660,-181.62740
0.36877,1.57883,-0.16191,5.34379,-4.02623,-0.23671,11.96534,15.42572,-11.51150,-58.07534,-82.40409,-56.94515,-0.67257,-0.36414,-0.60307,-0.22663,39.23813,-14.19411,-164.23250
0.37005,1.45453,-0.22269,4.11850,-5.14550,-1.18434,14.49099,13.26200,-12.01425,-92.25009,-54.55438,-57.71365,-0.76283,-0.20063,-0.57976,-0.20424,-29.82224,-68.24352,-212.82790
0.34717,1.35314,-0.28346,2.73449,-5.65041,-1.92575,15.45482,11.04295,-12.68522,-105.62020,-18.20445,-46.90783,-0.81987,-0.04994,-0.53773,-0.19016,-93.08485,-23.56690,-161.86810
0.32151,1.27127,-0.33594,1.67608,-5.70165,-2.33422,15.35489,9.40884,-13.17964,-106.70660,6.78235,-34.10467,-0.85474,0.08246,-0.48077,-0.17743,-126.84000,-3.47699,-115.10660
0.24404,1.21505,-0.39229,0.06836,-5.32038,-2.70154,14.41073,6.97360,-13.67399,-92.74040,39.49562,-10.66473,-0.85403,0.20579,-0.43842,-0.18992,-153.72050,17.76258,-57.12521
0.17307,1.18171,-0.43068,-1.08228,-4.64970,-2.70785,12.92009,5.05276,-13.75564,-71.69489,55.23732,9.90959,-0.83949,0.30771,-0.39871,-0.20398,-172.74730,10.82467,-25.66906
0.11123,1.16056,-0.45532,-1.81450,-3.95163,-2.49486,10.97791,3.58539,-14.07472,-51.60180,60.04391,24.91497,-0.81202,0.39887,-0.35570,-0.23454,-182.11730,47.58701,-3.69843
0.05048,1.16660,-0.45783,-2.35717,-2.98315,-1.98438,7.66322,3.19460,-14.16530,-16.52678,59.42440,37.96716,-0.78329,0.44991,-0.30355,-0.30315,-147.79260,147.80710,54.26663
0.01627,1.17372,-0.44589,-2.35750,-2.19078,-1.34529,4.37235,2.72354,-12.74135,16.66997,39.47696,40.77538,-0.75651,0.46384,-0.28108,-0.36543,-146.93640,111.89530,101.28850
0.00669,1.16983,-0.42936,-1.95285,-1.74836,-0.75976,1.48404,2.69405,-10.25704,32.56412,19.30715,33.15141,-0.74265,0.44388,-0.27442,-0.41968,-144.53870,73.89905,182.54540
0.00914,1.15317,-0.41649,-1.43871,-1.61844,-0.36773,-0.37379,3.04383,-6.47792,39.60073,1.79841,24.05296,-0.75545,0.38734,-0.27897,-0.44882,-62.11055,82.11605,245.51830
0.01523,1.12940,-0.40645,-0.99520,-1.63796,-0.12060,-2.26312,2.70769,-2.77654,35.67343,1.28717,16.52321,-0.76176,0.30942,-0.31401,-0.47475,-95.82930,62.96552,365.92910
0.03063,1.10872,-0.39446,-0.50201,-1.60026,0.10116,-3.25402,2.88802,0.36861,26.57296,4.84987,10.93006,-0.77308,0.22349,-0.33748,-0.48837,-29.98720,47.09368,203.99610
0.04233,1.09079,-0.38619,-0.18633,-1.52591,0.21687,-3.39002,3.15442,2.11636,20.08228,6.95510,6.61380,-0.78255,0.15800,-0.34350,-0.49463,3.35213,52.97417,130.26330
0.05168,1.07493,-0.37936,0.01208,-1.43633,0.28051,-3.27849,3.14693,3.19423,14.05686,8.60527,4.27393,-0.78822,0.10279,-0.34975,-0.49579,21.33237,29.02836,102.92120
0.06095,1.06246,-0.37219,0.15998,-1.31288,0.33416,-3.01683,3.23955,3.47482,8.42231,9.19473,4.04443,-0.79262,0.06077,-0.34545,-0.49871,25.38336,18.49696,32.82862
0.06920,1.05322,-0.36269,0.25896,-1.16183,0.41517,-3.10585,2.84890,3.65017,3.44427,9.49892,6.00160,-0.78672,0.02380,-0.35256,-0.50616,7.09293,-25.40428,5.63825
0.07594,1.04453,-0.35079,0.31244,-1.03359,0.51806,-3.54643,2.43239,3.57022,4.31251,10.21266,8.01426,-0.77267,-0.01149,-0.36036,-0.52249,-15.04923,-22.71186,18.89723
0.08363,1.03753,-0.33806,0.36741,-0.91078,0.60941,-4.00700,2.59252,3.85405,3.70406,10.08377,7.79065,-0.75874,-0.06242,-0.36062,-0.53886,-33.65657,-16.51378,20.59372
0.09313,1.03514,-0.32203,0.43846,-0.73967,0.73428,-4.79140,3.39939,4.21157,4.10782,11.61149,7.91927,-0.74058,-0.13121,-0.34518,-0.56141,-52.53703,38.79279,21.14178
0.10252,1.03395,-0.30659,0.49172,-0.58872,0.82032,-5.56046,4.16681,4.43059,4.39341,13.31137,6.44486,-0.71642,-0.20230,-0.32294,-0.58441,-70.81627,49.82629,18.22462
0.11289,1.03766,-0.29086,0.54766,-0.39451,0.88925,-6.48745,4.96680,4.66908,3.47790,14.55493,3.23781,-0.68197,-0.28086,-0.29307,-0.60840,-77.51123,45.65887,19.08087
0.12289,1.04481,-0.27703,0.58264,-0.18949,0.91023,-7.34226,5.56194,4.85767,1.62267,15.13128,-0.45730,-0.63867,-0.35822,-0.26030,-0.62931,-70.27100,34.37640,18.51550
0.13123,1.05468,-0.26605,0.58260,0.01232,0.88086,-8.08460,5.92947,4.88991,-1.75158,13.99273,-4.11426,-0.58815,-0.42924,-0.22475,-0.64755,-58.91315,18.19118,18.15239
0.13615,1.06673,-0.25906,0.52685,0.20681,0.79082,-8.61005,5.94251,4.62517,-4.90190,11.06700,-7.60540,-0.53502,-0.48613,-0.18823,-0.66483,-41.41252,-7.96740,0.38278
0.13861,1.07741,-0.25418,0.44038,0.33450,0.68227,-8.57015,5.41135,4.47595,-6.69872,7.43380,-9.75212,-0.48522,-0.52900,-0.16650,-0.67601,-1.27278,-38.13103,8.17184
0.13974,1.08611,-0.25154,0.35416,0.39757,0.56596,-8.18218,5.00495,4.31343,-8.17080,3.71064,-10.72767,-0.44229,-0.56648,-0.14709,-0.67959,33.11452,-31.54892,0.94701
0.13718,1.09278,-0.25334,0.22755,0.41180,0.40327,-7.35627,4.61223,3.96983,-7.96834,-1.54059,-9.94054,-0.41262,-0.59491,-0.13129,-0.67719,47.56701,-23.18213,-23.57701
0.13431,1.09605,-0.25451,0.12289,0.36575,0.28509,-6.49695,4.35012,3.57438,-7.61559,-4.82461,-7.13637,-0.38918,-0.62044,-0.11539,-0.67103,59.77750,-18.17175,-33.37564
0.13036,1.09672,-0.25513,0.02491,0.28663,0.20556,-5.77985,4.07704,2.99329,-6.97755,-6.38687,-3.95455,-0.37057,-0.63984,-0.09622,-0.66636,47.25270,-23.60529,-45.62359
0.12555,1.09531,-0.25390,-0.06323,0.19299,0.17580,-5.15879,3.64860,2.39849,-5.81122,-7.06462,-0.35693,-0.35494,-0.65259,-0.07854,-0.66482,39.47092,-34.68471,-42.83259
0.12054,1.09259,-0.25040,-0.13440,0.09874,0.19034,-4.60701,3.06594,1.80084,-4.59005,-6.44422,2.14937,-0.34250,-0.65839,-0.06284,-0.66729,37.94412,-46.93726,-38.45212
0.11540,1.08953,-0.24532,-0.19077,0.02165,0.22884,-4.02734,2.42642,1.36276,-3.32969,-4.65047,2.81582,-0.33253,-0.66032,-0.05259,-0.67130,37.15847,-50.79843,-29.99323
0.11004,1.08718,-0.23976,-0.23687,-0.02268,0.26762,-3.23007,1.83617,1.32596,-2.42560,-2.11764,2.14207,-0.32438,-0.66310,-0.05580,-0.67228,54.40289,-42.70562,-9.61571
0.10466,1.08582,-0.23426,-0.27274,-0.04054,0.29643,-2.23653,1.43281,1.62374,-2.05063,-0.77713,1.89060,-0.31813,-0.66970,-0.07232,-0.66713,75.66185,-23.24975,16.38692
0.09948,1.08453,-0.22887,-0.29654,-0.05335,0.31737,-1.55596,1.21732,1.80744,-1.42628,-0.86989,2.22120,-0.31103,-0.67746,-0.08564,-0.66104,60.99937,-9.52689,15.99327
0.09493,1.08315,-0.22335,-0.30497,-0.06526,0.33543,-1.45083,1.11609,1.70797,-0.98983,-0.62200,2.44228,-0.30009,-0.68462,-0.08538,-0.65875,28.61181,-6.63119,-1.17211
0.09047,1.08168,-0.21739,-0.31017,-0.07627,0.35675,-1.99287,0.97428,1.31882,0.10423,-0.47833,1.48488,-0.28226,-0.68839,-0.06689,-0.66481,-31.87211,-15.62114,-20.53388
0.08668,1.08032,-0.21152,-0.30220,-0.08229,0.37196,-2.60591,0.85845,0.98440,0.66505,-0.19072,0.45797,-0.26099,-0.69168,-0.04386,-0.67197,-40.37009,-13.18107,-18.75832
