posX, posY, posZ, velX, velY, velZ, angVelX, angVelY, angVelZ, accX, accY, accZ, rotX, rotY, rotZ, rotW, angAccX, angAccY, angAccZ
-0.35581,1.81404,-0.46361,-0.06044,-0.03350,0.14204,0.58389,0.85115,-0.26613,-0.40101,0.73238,-0.10461,0.10663,-0.86960,-0.46751,-0.11771,-2.15213,15.59624,7.23474
-0.35693,1.81437,-0.46175,-0.06513,-0.02134,0.13948,0.52708,0.92047,-0.19064,-0.24639,0.95133,0.13175,0.10314,-0.86942,-0.47042,-0.11032,-3.12198,8.74670,6.21186
-0.35815,1.81493,-0.45988,-0.07026,-0.00843,0.13757,0.44914,0.68750,-0.14508,-0.32923,0.94920,0.28367,0.10379,-0.86876,-0.47123,-0.11147,-5.29305,-10.91572,3.91777
-0.35955,1.81571,-0.45773,-0.07724,0.00492,0.14076,0.40798,0.39551,-0.09526,-0.59220,0.93674,0.35281,0.10648,-0.86731,-0.47224,-0.11582,-3.88911,-21.82024,2.36800
-0.36107,1.81650,-0.45540,-0.08430,0.01547,0.14600,0.39636,0.13453,-0.04957,-0.64713,0.90105,0.45676,0.10983,-0.86535,-0.47375,-0.12108,-1.89401,-21.47616,3.46448
-0.36282,1.81752,-0.45288,-0.09320,0.02708,0.15251,0.40047,-0.06082,0.01199,-0.67470,0.78776,0.22096,0.11377,-0.86305,-0.47581,-0.12575,0.46713,-17.26786,3.41146
-0.36455,1.81870,-0.45015,-0.10067,0.03898,0.15975,0.42536,-0.06229,0.08319,-0.46577,0.69986,0.25261,0.11582,-0.86094,-0.47919,-0.12550,1.22522,-3.01500,5.06853
-0.36611,1.81984,-0.44735,-0.10407,0.04796,0.16700,0.47399,0.10117,0.13815,-0.15217,0.64650,0.44816,0.11500,-0.85906,-0.48401,-0.12051,2.88009,9.37860,4.10248
-0.36747,1.82112,-0.44436,-0.10324,0.05698,0.17583,0.52684,0.31314,0.14239,0.19127,0.55147,0.71385,0.11160,-0.85738,-0.48941,-0.11371,3.68397,15.49185,2.08895
-0.36860,1.82239,-0.44118,-0.10030,0.06403,0.18486,0.57827,0.45012,0.13009,0.28144,0.56743,0.92273,0.10813,-0.85541,-0.49489,-0.10804,4.29334,14.00862,-0.15586
-0.36970,1.82381,-0.43753,-0.09799,0.07185,0.19849,0.65863,0.57966,0.11446,-0.03610,0.46975,0.84325,0.10395,-0.85280,-0.50151,-0.10206,4.88963,8.06383,-1.29601
-0.37114,1.82515,-0.43404,-0.09981,0.07685,0.20815,0.70106,0.63276,0.12895,-0.25862,0.35558,0.89527,0.10148,-0.85019,-0.50742,-0.09699,4.51794,7.24258,1.04636
-0.37291,1.82653,-0.43041,-0.10600,0.08133,0.21763,0.72273,0.58299,0.16934,-0.47611,0.32144,0.73342,0.10148,-0.84732,-0.51272,-0.09414,1.96424,-1.51151,1.95943
-0.37494,1.82808,-0.42669,-0.11482,0.08748,0.22636,0.70377,0.42512,0.19848,-0.63207,0.38858,0.52379,0.10353,-0.84469,-0.51653,-0.09469,-0.51039,-9.88656,1.47247
-0.37712,1.82959,-0.42299,-0.12380,0.09180,0.23378,0.68548,0.32964,0.24763,-0.71487,0.26675,0.41778,0.10585,-0.84210,-0.52043,-0.09390,-1.36676,-8.88226,2.80351
-0.37942,1.83120,-0.41916,-0.13295,0.09663,0.24117,0.65899,0.32321,0.30688,-0.77260,0.48579,0.44608,0.10761,-0.83985,-0.52425,-0.09072,-1.94093,-2.99565,3.56150
-0.38185,1.83286,-0.41516,-0.14193,0.10111,0.24987,0.64512,0.41365,0.38304,-0.83116,0.29830,0.77116,0.10850,-0.83764,-0.52867,-0.08419,-1.52402,4.97339,5.79716
-0.38466,1.83451,-0.41040,-0.15504,0.10491,0.26730,0.64787,0.53105,0.48427,-0.64021,0.17712,1.17215,0.10968,-0.83507,-0.53378,-0.07559,0.38688,6.90580,6.21976
-0.38726,1.83613,-0.40569,-0.16259,0.10754,0.28091,0.63806,0.52595,0.52174,-0.53803,0.15065,1.38473,0.11135,-0.83255,-0.53803,-0.07060,-0.09958,2.69711,4.30709
-0.38991,1.83766,-0.40067,-0.16933,0.10838,0.29592,0.63002,0.38469,0.52010,-0.40469,-0.19982,1.51831,0.11462,-0.82979,-0.54166,-0.07016,-0.39956,-6.97131,1.41153
-0.39268,1.83891,-0.39477,-0.17589,0.10455,0.32106,0.66743,0.03998,0.44064,-0.26407,-0.30505,1.41175,0.11972,-0.82589,-0.54543,-0.07794,2.20490,-19.93533,-5.29105
-0.39520,1.84008,-0.38907,-0.17732,0.10035,0.33884,0.70869,-0.08432,0.38320,-0.14974,-0.35136,1.26193,0.12225,-0.82212,-0.55005,-0.08136,3.72016,-15.11957,-6.00546
-0.39757,1.84103,-0.38289,-0.17638,0.09386,0.35992,0.77067,-0.02534,0.34328,0.06083,-0.52998,1.29043,0.12200,-0.81817,-0.55610,-0.08036,4.54471,0.44622,-3.42045
-0.39978,1.84184,-0.37659,-0.17291,0.08670,0.37788,0.84414,0.14237,0.30066,0.33225,-0.65700,1.40855,0.11906,-0.81409,-0.56329,-0.07609,4.59930,11.60720,-2.22420
-0.40167,1.84222,-0.36958,-0.16596,0.07488,0.40257,0.94852,0.46887,0.25180,0.41263,-0.81891,1.52163,0.11189,-0.80957,-0.57238,-0.06678,5.82603,19.54807,-2.15916
-0.40345,1.84239,-0.36243,-0.15849,0.06236,0.42489,1.07076,0.78050,0.20355,0.67143,-0.97546,1.69897,0.10340,-0.80423,-0.58253,-0.05638,7.60988,23.56301,-1.04396
-0.40508,1.84244,-0.35512,-0.15080,0.05086,0.44371,1.18136,0.96196,0.12392,0.78368,-1.12314,1.68069,0.09481,-0.79838,-0.59265,-0.04865,8.62613,19.45100,-4.50272
-0.40633,1.84188,-0.34739,-0.13966,0.03300,0.46486,1.34218,1.08922,-0.05610,0.65498,-1.13023,1.08201,0.08307,-0.79121,-0.60428,-0.04406,9.43367,8.17016,-11.25098
-0.40768,1.84110,-0.33987,-0.13166,0.01511,0.47976,1.48275,1.32959,-0.17951,0.14247,-0.99977,0.60700,0.06938,-0.78363,-0.61633,-0.03551,8.38508,13.07605,-8.64039
-0.40940,1.84047,-0.33262,-0.13040,0.00326,0.48716,1.58285,1.60511,-0.18759,-0.17582,-1.10374,0.43465,0.05632,-0.77564,-0.62825,-0.02260,8.43568,21.56106,-2.87847
-0.41145,1.83931,-0.32522,-0.13442,-0.01320,0.49485,1.70404,2.08082,-0.11381,-0.56284,-0.99544,0.50313,0.03981,-0.76600,-0.64161,-0.00069,10.25904,33.40810,6.06014
-0.41420,1.83798,-0.31790,-0.14758,-0.02923,0.50057,1.82165,2.41471,-0.01726,-0.88219,-1.03015,0.56252,0.02525,-0.75512,-0.65478,0.02059,9.12793,23.79846,8.59275
-0.41746,1.83678,-0.31060,-0.16578,-0.04021,0.50432,1.88656,2.44077,0.02040,-1.56906,-0.61884,0.45959,0.01473,-0.74466,-0.66640,0.03433,6.06379,4.98490,2.28963
-0.42163,1.83571,-0.30306,-0.19368,-0.04729,0.51105,1.94539,2.38870,0.12078,-2.36837,-0.38505,0.65161,0.00770,-0.73367,-0.67780,0.04750,4.91288,-3.78851,4.23632
-0.42684,1.83457,-0.29517,-0.23073,-0.05393,0.52194,2.00079,2.23210,0.28001,-2.82098,-0.49270,1.10755,0.00533,-0.72225,-0.68905,0.05946,6.02640,-8.58259,9.21327
-0.43304,1.83330,-0.28685,-0.27483,-0.06107,0.53564,2.03796,1.92292,0.43850,-3.33202,-0.48882,1.09349,0.00792,-0.71104,-0.69988,0.06734,4.84124,-21.98188,6.78608
-0.43998,1.83190,-0.27822,-0.32069,-0.06868,0.55150,2.08316,1.61067,0.64485,-3.21139,-0.49046,1.11354,0.01420,-0.69933,-0.71067,0.07537,5.38918,-24.77366,9.71509
-0.44704,1.83057,-0.26943,-0.35851,-0.07376,0.56721,2.11850,1.33784,0.81859,-2.19239,-0.27275,1.07441,0.02136,-0.68749,-0.72110,0.08317,5.59149,-21.63551,10.99345
-0.45365,1.82955,-0.26036,-0.38180,-0.07344,0.58346,2.12628,1.12693,0.91362,-1.19144,0.09848,1.17271,0.02725,-0.67597,-0.73088,0.09027,2.98563,-17.47103,5.57564
-0.45969,1.82879,-0.25100,-0.39228,-0.06949,0.60083,2.10767,0.96901,0.92702,-0.61815,0.30950,1.75047,0.03131,-0.66504,-0.73992,0.09618,0.12523,-13.13585,1.36194
-0.46565,1.82796,-0.24072,-0.39980,-0.06747,0.62757,2.11911,0.75078,0.90452,-0.49631,-0.08087,2.14768,0.03694,-0.65364,-0.74942,0.09880,0.54102,-16.50126,-5.17269
-0.47144,1.82637,-0.22937,-0.40369,-0.07629,0.66284,2.22345,0.65843,0.96413,-0.26187,-0.99325,2.77622,0.04266,-0.63909,-0.76068,0.10542,5.67314,-7.32473,1.64015
-0.47713,1.82392,-0.21766,-0.40530,-0.09496,0.69588,2.37283,0.57294,1.00999,0.03685,-2.01689,2.81612,0.04885,-0.62240,-0.77315,0.11168,12.00745,-5.87565,3.66791
-0.48266,1.81966,-0.20464,-0.40437,-0.13592,0.74217,2.59274,0.33199,0.95334,0.12176,-2.56148,2.42519,0.05752,-0.60347,-0.78750,0.11116,12.86172,-11.43979,-6.30645
-0.48811,1.81492,-0.19199,-0.40237,-0.17705,0.77539,2.73260,0.08434,0.85717,0.09263,-2.65657,1.74058,0.06632,-0.58559,-0.80058,0.10844,11.17645,-13.81892,-7.65810
-0.49377,1.81005,-0.17969,-0.40385,-0.21216,0.79720,2.81952,-0.05243,0.82334,-0.60928,-2.30995,1.12688,0.07444,-0.56792,-0.81255,0.10811,6.19820,-11.92058,-8.37719
-0.49990,1.80472,-0.16769,-0.41201,-0.24671,0.81065,2.91798,-0.01398,0.99354,-1.01291,-2.33660,0.67714,0.08300,-0.54819,-0.82409,0.11605,7.64200,-0.27350,9.99837
-0.50685,1.79880,-0.15582,-0.43035,-0.28234,0.81861,3.04268,0.04466,1.28056,-1.97411,-2.58388,0.42433,0.09396,-0.52622,-0.83533,0.12842,7.03653,0.68314,17.38555
-0.51492,1.79201,-0.14427,-0.46160,-0.32392,0.82066,3.18862,0.10005,1.75384,-2.75146,-3.11326,0.08271,0.10952,-0.50157,-0.84542,0.14731,10.25181,-0.88957,30.73613
-0.52414,1.78408,-0.13313,-0.50357,-0.37370,0.81663,3.33603,0.01236,2.23476,-3.06177,-4.00214,-0.41947,0.13044,-0.47541,-0.85396,0.16649,12.00475,-7.26573,36.77150
-0.53465,1.77504,-0.12262,-0.55578,-0.42931,0.80385,3.47786,-0.37535,2.43528,-3.82226,-4.34959,-1.02403,0.15656,-0.44986,-0.86178,0.17452,13.68619,-24.85850,13.86085
-0.54594,1.76540,-0.11260,-0.60713,-0.48174,0.78646,3.58815,-0.84204,2.51593,-4.37456,-4.63880,-1.73360,0.18576,-0.42478,-0.86812,0.17726,15.68056,-34.13421,-0.17241
-0.55876,1.75416,-0.10406,-0.67003,-0.54610,0.75223,3.72740,-1.49783,2.41199,-4.17977,-4.82764,-3.01207,0.22043,-0.39974,-0.87339,0.16972,18.64542,-40.80883,-11.60342
-0.57240,1.74199,-0.09708,-0.73143,-0.61046,0.70184,3.87332,-2.14221,2.17741,-4.57030,-4.49854,-4.35347,0.25607,-0.37437,-0.87758,0.15533,21.23570,-38.75172,-28.48530
-0.58721,1.72859,-0.09286,-0.79817,-0.68070,0.62138,3.96038,-2.71102,2.17613,-4.35399,-4.11187,-5.93698,0.29559,-0.34839,-0.87751,0.14572,14.35123,-33.31198,-12.34486
-0.60142,1.71549,-0.08919,-0.84308,-0.73311,0.54984,3.97086,-3.05104,2.37060,-3.66174,-4.52519,-6.39584,0.33392,-0.32179,-0.87414,0.14432,4.78953,-32.58653,3.03157
-0.61603,1.70051,-0.08830,-0.88375,-0.80091,0.45373,4.04428,-3.38750,2.60045,-2.18273,-5.06338,-7.45509,0.37493,-0.29184,-0.86811,0.14366,5.67087,-28.89657,12.20655
-0.63023,1.68383,-0.09070,-0.91015,-0.87999,0.32783,4.15400,-3.73593,2.72287,-0.97820,-5.02187,-8.45884,0.41646,-0.26027,-0.85987,0.13942,9.16362,-21.65205,3.36274
-0.64277,1.66673,-0.09583,-0.90797,-0.95191,0.18429,4.33190,-4.03762,2.49210,1.99299,-4.19605,-9.35941,0.45390,-0.22903,-0.85203,0.12473,14.41215,-17.03394,-7.01144
-0.65384,1.65062,-0.10097,-0.88407,-0.99352,0.07021,4.52523,-4.13754,2.07316,2.59580,-3.09785,-9.98449,0.48411,-0.19798,-0.84599,0.10364,27.95113,3.01163,-31.85916
-0.66198,1.63379,-0.11070,-0.82182,-1.03748,-0.08798,4.66217,-4.08176,1.86072,4.54288,-2.20756,-10.45919,0.51089,-0.16541,-0.83906,0.08721,14.65766,7.12441,-12.57226
-0.66774,1.61715,-0.12314,-0.73551,-1.07126,-0.25892,4.54472,-4.03509,2.19131,5.39642,-1.55853,-11.45401,0.54012,-0.13272,-0.82642,0.08768,-7.77327,0.94535,13.15833
-0.67385,1.60115,-0.13440,-0.67293,-1.08644,-0.37331,4.34217,-4.14089,2.62644,6.31034,-1.14749,-11.99636,0.57321,-0.10042,-0.80782,0.09366,-23.23638,-17.73051,26.89271
-0.67508,1.58527,-0.15341,-0.55264,-1.09770,-0.57754,4.11426,-4.54538,3.21309,9.09870,-0.39756,-13.34918,0.61420,-0.06698,-0.77920,0.10545,-24.38179,-39.55111,25.37656
-0.67353,1.57075,-0.17492,-0.41418,-1.08648,-0.77944,4.33247,-4.88938,3.38714,11.48389,1.61394,-14.85636,0.65223,-0.02630,-0.75067,0.10198,9.57894,-28.05254,12.37952
-0.66778,1.55875,-0.20033,-0.24157,-1.03838,-0.99649,4.87173,-5.19601,3.33401,13.96637,5.06598,-15.52470,0.68833,0.02136,-0.71995,0.08617,36.03205,-16.68690,6.39290
-0.65811,1.55110,-0.22875,-0.04720,-0.93590,-1.21333,5.67998,-5.65114,2.87278,14.05075,9.74247,-15.11462,0.72511,0.07045,-0.68313,0.05086,59.83853,-3.85355,0.47052
-0.64394,1.54953,-0.25821,0.17480,-0.76414,-1.40069,6.33783,-5.71141,2.69942,17.63378,15.38967,-12.13568,0.75186,0.12325,-0.64740,0.01981,68.94966,-3.37129,-12.66336
-0.62478,1.55513,-0.28665,0.42356,-0.52070,-1.53157,6.86161,-5.57516,2.85871,17.62334,20.51629,-6.69843,0.77048,0.18201,-0.61093,-0.00336,29.24832,6.26375,34.50802
-0.60332,1.56971,-0.30992,0.65451,-0.19451,-1.55857,6.40809,-5.47229,2.72161,15.24523,28.18130,1.41539,0.78836,0.21350,-0.57681,-0.01417,-6.36630,9.71618,4.53204
-0.58275,1.59224,-0.32499,0.82394,0.18089,-1.45860,4.94901,-5.56181,2.25807,9.35237,28.14288,11.87396,0.81215,0.21021,-0.54422,-0.00701,-70.77005,-3.08747,-69.61909
-0.56440,1.62143,-0.33004,0.89608,0.57333,-1.23009,3.25636,-5.03226,1.22951,1.67131,28.59508,20.70472,0.82757,0.18089,-0.53141,-0.00152,-96.58199,29.48520,-93.46695
-0.53297,1.68245,-0.30065,0.79353,1.38644,-0.52939,0.17229,-1.87173,-2.80859,-8.94074,28.90582,27.11071,0.80534,0.05299,-0.58988,-0.02560,-67.55025,142.40920,-164.24280
-0.51538,1.75126,-0.28618,0.69061,1.84099,-0.10532,-1.59243,0.00153,-5.30941,-3.45939,28.32516,25.52555,0.78220,-0.07744,-0.61519,-0.06086,-62.93235,133.24900,-175.29190
-0.51240,1.80059,-0.26756,0.69683,2.22611,0.22428,-3.03981,1.54125,-7.06405,6.99190,26.96450,22.45899,0.73886,-0.18733,-0.64287,-0.07557,-62.90504,122.87480,-151.28680
-0.50052,1.85151,-0.24975,0.81811,2.53392,0.46171,-4.17188,2.61180,-8.39878,14.70858,23.74984,17.43147,0.68807,-0.29434,-0.65749,-0.08738,-54.57353,114.80490,-135.65910
-0.47153,1.90856,-0.22854,1.11848,2.85345,0.68442,-5.04439,4.25821,-9.19725,28.26695,20.39408,14.84153,0.61093,-0.39284,-0.68129,-0.09102,-34.91726,98.44784,-96.54276
-0.42186,1.96777,-0.20711,1.63330,3.14791,0.85714,-4.99787,6.29011,-10.25088,37.20898,15.74943,8.46688,0.50350,-0.47911,-0.70987,-0.11415,37.28854,86.08179,-106.51340
-0.36707,2.02225,-0.19030,2.11657,3.31036,0.92678,-4.66886,7.69788,-11.52837,45.05164,11.29822,2.92808,0.38554,-0.55890,-0.71875,-0.14962,36.64530,51.25868,-142.36550
-0.29142,2.07376,-0.17773,2.79867,3.39159,0.91969,-4.93033,9.10961,-13.08547,52.39252,0.35462,-6.07104,0.24021,-0.64602,-0.70247,-0.17746,-21.16724,52.90561,-148.83550
-0.19798,2.11153,-0.17599,3.60632,3.26482,0.75575,-5.88703,10.67604,-13.96339,62.84370,-17.84412,-20.55465,0.08292,-0.72421,-0.66297,-0.17063,-12.92372,100.26690,-93.86038
-0.09776,2.13248,-0.18645,4.33982,2.91889,0.44870,-6.89487,12.46650,-14.05650,58.47852,-38.64995,-31.73676,-0.07962,-0.77909,-0.60757,-0.13241,24.65106,141.39370,-86.82666
0.01799,2.11274,-0.22264,5.16370,2.04646,-0.14776,-6.91439,15.10279,-13.28615,42.45559,-70.17671,-39.64740,-0.25499,-0.78700,-0.55875,-0.05840,107.94500,116.86270,-92.90662
0.11337,2.06524,-0.26868,5.57172,0.93495,-0.75686,-4.71825,16.33869,-13.18967,17.54832,-88.54122,-42.00056,-0.41502,-0.73754,-0.53195,-0.02862,86.20519,-40.59849,-154.86890
0.18967,2.00369,-0.31519,5.60985,-0.15339,-1.26881,-2.48306,16.58307,-13.29963,-8.31084,-92.61959,-39.98869,-0.55251,-0.66473,-0.50268,-0.01335,11.97492,-104.31910,-159.83760
0.23961,1.90386,-0.37540,5.23137,-1.56907,-1.86263,-0.31584,15.55819,-13.93576,-36.54858,-84.83852,-32.18125,-0.66639,-0.57290,-0.47632,-0.02900,-39.85836,-119.71820,-106.78930
0.26373,1.80996,-0.42981,4.55821,-2.63408,-2.25806,0.07286,13.72813,-14.69466,-57.10347,-70.27008,-22.72591,-0.75163,-0.50122,-0.42296,-0.07030,-121.38140,-78.78101,-23.04231
0.27273,1.72275,-0.47641,3.80291,-3.38281,-2.47165,-0.12515,12.35984,-14.91331,-67.78750,-55.36102,-12.57282,-0.81955,-0.43561,-0.35781,-0.10276,-127.91090,-37.29779,45.87393
0.23791,1.61798,-0.51460,2.52220,-4.22227,-2.51996,0.35551,10.77997,-14.73174,-74.79081,-38.37111,6.56001,-0.86856,-0.35851,-0.31765,-0.12716,-38.96657,-75.47341,18.07339
0.21198,1.53373,-0.54074,1.61861,-4.59345,-2.38317,0.12753,9.25871,-14.97936,-75.33103,-24.57534,16.69994,-0.90812,-0.27681,-0.26483,-0.16899,-103.31630,-53.65780,25.44346
0.16367,1.45472,-0.55425,0.58859,-4.80864,-2.09411,-0.64447,7.56841,-15.17439,-72.42556,-7.21878,24.68413,-0.92905,-0.19883,-0.21255,-0.22836,-126.73760,-25.69679,33.74678
0.10056,1.39217,-0.55519,-0.47176,-4.73240,-1.67940,-2.83327,6.68530,-14.85455,-60.58843,17.39239,26.89110,-0.93154,-0.15144,-0.12764,-0.30496,-115.78740,89.89671,71.70759
0.04577,1.34840,-0.55292,-1.19798,-4.38433,-1.29647,-3.26427,6.25288,-14.08536,-43.36295,35.29086,26.29007,-0.93406,-0.09774,-0.06170,-0.33788,-20.25009,38.76669,76.20583
-0.00136,1.32329,-0.54721,-1.65176,-3.83618,-0.94269,-2.34214,5.68775,-12.82340,-20.51363,44.26823,23.45068,-0.94096,-0.04838,-0.02549,-0.33406,42.37363,-50.67139,72.87976
-0.03403,1.31142,-0.53851,-1.80199,-3.21068,-0.62131,-1.33614,4.43641,-11.36823,-1.86896,46.01363,22.01180,-0.94476,-0.00559,-0.02017,-0.32709,23.30922,-126.30760,91.29233
-0.05194,1.30764,-0.52779,-1.69676,-2.59212,-0.33552,-0.90405,2.74039,-9.96391,17.09869,40.84207,18.12392,-0.94161,0.03242,-0.03383,-0.33344,-16.54721,-101.03640,97.36179
-0.05454,1.30535,-0.51603,-1.38405,-2.08494,-0.09175,-1.46609,0.64028,-8.12117,26.50233,30.45975,16.62961,-0.92620,0.04996,-0.07382,-0.36633,-79.41889,-123.37220,139.56380
-0.04829,1.29934,-0.50637,-1.01515,-1.74794,0.07009,-2.42695,-0.25707,-5.58740,32.78455,23.58216,11.47022,-0.90794,0.02402,-0.10104,-0.40604,-122.65600,-30.29367,169.39120
-0.02566,1.29814,-0.49754,-0.48327,-1.40573,0.18612,-2.74054,-0.30816,-1.75405,31.96819,19.98211,6.03898,-0.89526,-0.06451,-0.13294,-0.42033,-9.87332,33.72678,255.24360
-0.00285,1.29686,-0.49151,-0.04824,-1.13157,0.23816,-3.23965,0.75264,1.33141,28.50439,20.15372,2.41579,-0.87550,-0.16499,-0.13017,-0.43512,-36.40041,109.78180,208.13010
0.01773,1.29624,-0.48742,0.25766,-0.90886,0.25163,-3.34549,1.44174,3.34551,22.96504,19.57737,-0.46186,-0.85290,-0.24903,-0.12787,-0.44069,-25.74550,118.41500,171.74450
0.03928,1.30089,-0.48403,0.50972,-0.65709,0.25234,-3.14672,1.70176,4.97821,13.91684,18.58705,-0.19768,-0.82663,-0.32809,-0.13673,-0.43628,11.02813,55.30428,117.16940
0.05687,1.30979,-0.48022,0.65689,-0.39220,0.25850,-3.00619,2.05622,5.85563,5.73487,15.78816,0.83151,-0.79968,-0.39402,-0.13598,-0.43218,4.07996,36.85712,53.69841
0.06990,1.31827,-0.47539,0.70644,-0.18340,0.27874,-2.83674,2.23583,6.38956,0.79820,15.01239,1.94841,-0.77175,-0.45138,-0.13648,-0.42666,14.79438,32.27243,37.25453
0.07928,1.32774,-0.46972,0.69264,-0.00663,0.30658,-3.21719,2.35615,6.35427,-3.98213,14.63384,2.80151,-0.73888,-0.49670,-0.12668,-0.43738,-12.61907,10.47325,14.87335
0.08286,1.34334,-0.46295,0.59404,0.22577,0.34347,-3.74503,2.12812,5.78312,-6.73439,11.76196,0.49651,-0.70741,-0.52313,-0.11506,-0.46116,-35.97850,-31.89999,-23.13943
0.08499,1.35539,-0.45760,0.49170,0.36210,0.35143,-3.46940,1.53825,5.26325,-8.21698,9.07591,-0.50502,-0.68672,-0.54000,-0.12146,-0.47123,21.82767,-39.96080,-26.73908
0.08679,1.36582,-0.45301,0.41113,0.44123,0.34668,-3.04254,1.03451,4.81385,-8.38192,7.70805,-1.27082,-0.66986,-0.55374,-0.13124,-0.47690,43.44381,-41.45848,-34.74216
0.08414,1.37924,-0.44935,0.28249,0.54678,0.32756,-1.87164,0.03991,4.15127,-7.89527,6.14601,-1.91684,-0.67022,-0.54770,-0.16463,-0.47299,83.92471,-44.61230,-36.57339
0.08160,1.39213,-0.44626,0.17918,0.62407,0.30296,-0.77163,-0.68608,3.71522,-7.23955,4.75450,-1.33051,-0.67072,-0.54326,-0.20019,-0.46360,98.54299,-35.88565,-26.74141
0.07859,1.40574,-0.44368,0.09100,0.69514,0.27586,-0.25609,-0.88792,3.41214,-6.36991,4.83961,-0.89907,-0.66595,-0.54647,-0.22168,-0.45688,60.87942,-14.10062,-20.85253
0.07487,1.42068,-0.44198,0.01307,0.77203,0.24157,-0.51338,-0.56353,3.23442,-5.25640,5.02536,-2.31244,-0.65213,-0.56210,-0.22104,-0.45817,-11.14489,14.06286,-15.48015
0.07124,1.43642,-0.44134,-0.04876,0.84457,0.19787,-0.76759,-0.29283,3.20958,-3.59207,5.41502,-4.31234,-0.63500,-0.58072,-0.22028,-0.45936,-32.08817,18.44393,-9.26451
0.06738,1.45318,-0.44219,-0.09975,0.91577,0.14169,-0.57414,-0.24332,3.39511,-3.47005,4.89852,-4.85609,-0.61852,-0.59868,-0.23355,-0.45218,5.12872,7.88561,11.21913
0.06341,1.46952,-0.44382,-0.14114,0.96737,0.08617,-0.23825,-0.23487,3.57433,-3.76144,3.93343,-5.00784,-0.60366,-0.61500,-0.25149,-0.44058,23.82990,6.74299,15.62875
0.05815,1.48605,-0.44714,-0.19271,1.01065,0.01794,0.09971,-0.11356,3.68961,-4.08662,2.15404,-4.68926,-0.59086,-0.63134,-0.26781,-0.42494,25.44097,12.90663,11.49500
0.05223,1.50147,-0.45137,-0.24126,1.02812,-0.04829,0.28835,0.12738,3.65601,-3.39518,0.44277,-4.49662,-0.57999,-0.64747,-0.27738,-0.40921,9.80899,18.75719,0.89499
0.04608,1.51579,-0.45598,-0.28253,1.02803,-0.10601,0.44803,0.44515,3.54679,-3.00829,-0.39601,-3.62676,-0.57184,-0.66316,-0.28311,-0.39123,6.82025,23.56788,-7.19031
0.03975,1.52926,-0.46042,-0.31861,1.01595,-0.15022,0.32982,0.78894,3.39549,-2.30152,-1.49419,-2.38116,-0.56206,-0.68051,-0.28085,-0.37700,-8.87501,24.81326,-8.86571
0.03313,1.54152,-0.46435,-0.35168,0.98776,-0.17823,0.25492,1.03549,3.25586,-1.93341,-2.07203,-1.25230,-0.55237,-0.69659,-0.27919,-0.36291,-12.71035,15.53522,-8.85063
0.02645,1.55284,-0.46700,-0.37947,0.95254,-0.18178,0.18911,1.11159,3.11656,-1.97907,-2.92837,0.69173,-0.54217,-0.71012,-0.27981,-0.35141,-2.73152,8.04928,-8.32143
0.01950,1.56328,-0.46837,-0.40553,0.91204,-0.16599,0.05587,1.00539,2.97075,-1.63211,-2.86232,1.37053,-0.53016,-0.72132,-0.28135,-0.34565,-12.52110,-6.59560,-10.40374
0.01232,1.57312,-0.46880,-0.42859,0.87000,-0.13877,0.19642,0.77416,2.89762,-1.48294,-2.94666,1.92419,-0.51885,-0.72902,-0.29180,-0.33789,6.98254,-14.04545,-7.66032
