posX, posY, posZ, velX, velY, velZ, angVelX, angVelY, angVelZ, accX, accY, accZ, rotX, rotY, rotZ, rotW, angAccX, angAccY, angAccZ
0.01323,1.22504,-0.47069,-0.11887,-0.13337,-0.06407,-0.88949,0.12614,0.13803,0.97923,-0.10507,0.46844,0.12507,-0.91757,0.13931,-0.35074,-1.05265,-3.78374,-0.13522
0.01249,1.22326,-0.47110,-0.10298,-0.13218,-0.05568,-0.81166,0.06753,0.05258,1.26241,0.05112,0.60786,0.12496,-0.91688,0.14356,-0.35086,4.06610,-4.63967,-4.45669
0.01218,1.22160,-0.47126,-0.08318,-0.12956,-0.04473,-0.67473,-0.02264,-0.06634,1.23288,0.16332,0.70602,0.12246,-0.91625,0.14648,-0.35220,8.64101,-5.66551,-7.81869
0.01168,1.21993,-0.47148,-0.07177,-0.12768,-0.03783,-0.59133,-0.07973,-0.14776,1.08764,0.16196,0.68664,0.12038,-0.91559,0.14976,-0.35323,8.63438,-6.47214,-6.85982
0.01159,1.21835,-0.47137,-0.05652,-0.12482,-0.02720,-0.47783,-0.16744,-0.26274,0.88977,0.29846,0.70033,0.11604,-0.91487,0.15234,-0.35544,7.69564,-5.78148,-7.57058
0.01147,1.21696,-0.47123,-0.04490,-0.11957,-0.01860,-0.40536,-0.25632,-0.30408,0.80385,0.58189,0.55935,0.11311,-0.91368,0.15494,-0.35832,5.19970,-6.39307,-3.71514
0.01127,1.21573,-0.47117,-0.03789,-0.11269,-0.01357,-0.32956,-0.29077,-0.33389,0.66337,0.73325,0.33358,0.11010,-0.91290,0.15681,-0.36042,6.11807,-5.96382,-2.12662
0.01127,1.21518,-0.47103,-0.02918,-0.09673,-0.00858,-0.16336,-0.27770,-0.40843,0.34436,0.94236,0.16768,0.10467,-0.91321,0.15607,-0.36158,9.62383,0.41932,-4.00498
0.01103,1.21469,-0.47103,-0.02635,-0.08291,-0.00683,-0.05796,-0.25340,-0.43369,0.12783,1.13107,0.05587,0.10046,-0.91344,0.15566,-0.36236,8.28184,1.38850,-2.67855
0.01067,1.21446,-0.47111,-0.02609,-0.06791,-0.00673,0.02504,-0.21875,-0.42091,-0.05909,1.14626,-0.09246,0.09716,-0.91375,0.15478,-0.36284,6.72977,2.39630,0.02107
0.01028,1.21444,-0.47126,-0.02652,-0.05293,-0.00814,0.08992,-0.19032,-0.39879,0.01013,1.10195,-0.13776,0.09421,-0.91405,0.15374,-0.36333,4.48892,2.06719,2.02957
0.00992,1.21470,-0.47148,-0.02631,-0.03677,-0.01033,0.18327,-0.14379,-0.38889,0.00096,1.09619,-0.27626,0.09076,-0.91479,0.15154,-0.36327,5.55968,2.03052,1.64841
0.00954,1.21501,-0.47177,-0.02650,-0.02351,-0.01287,0.28990,-0.06545,-0.42440,0.00235,1.03203,-0.30422,0.08589,-0.91627,0.14866,-0.36190,8.85966,5.22341,-1.85234
0.00929,1.21565,-0.47227,-0.02445,-0.00851,-0.01883,0.33846,-0.02967,-0.40937,0.15041,0.96170,-0.59128,0.08240,-0.91724,0.14625,-0.36124,3.28412,2.55151,1.62978
0.00899,1.21629,-0.47297,-0.02384,0.00339,-0.02662,0.40572,0.06626,-0.44148,-0.04943,0.61672,-0.67525,0.07781,-0.91909,0.14341,-0.35869,3.34132,4.76304,-0.65667
0.00854,1.21698,-0.47364,-0.02589,0.01358,-0.03169,0.49867,0.19273,-0.50795,-0.15846,0.86842,-0.05080,0.07172,-0.92178,0.13970,-0.35448,7.97129,10.42693,-6.09998
0.00809,1.21783,-0.47409,-0.02740,0.02408,-0.03220,0.44395,0.16761,-0.39366,-0.01484,0.85237,0.36343,0.07083,-0.92234,0.13792,-0.35390,-0.86707,0.76655,4.82479
0.00783,1.21874,-0.47437,-0.02520,0.03338,-0.02964,0.30268,0.03039,-0.19475,0.34632,0.75712,0.18461,0.07351,-0.92100,0.13798,-0.35681,-9.76701,-8.99156,13.40098
0.00787,1.21994,-0.47470,-0.01836,0.04552,-0.02847,0.22927,-0.06856,-0.06443,0.44261,0.75526,-0.30919,0.07545,-0.91983,0.13738,-0.35966,-7.91884,-9.74638,12.77136
0.00784,1.22127,-0.47511,-0.01478,0.05633,-0.02927,0.24210,-0.04989,-0.03307,0.16468,0.77360,-0.16049,0.07519,-0.92008,0.13540,-0.35983,-0.19275,-0.85263,3.14506
0.00770,1.22275,-0.47563,-0.01385,0.06686,-0.03182,0.22097,-0.02387,0.00708,0.03215,0.74754,-0.24693,0.07574,-0.92030,0.13404,-0.35964,-0.57862,2.05094,2.34876
0.00752,1.22437,-0.47638,-0.01361,0.07768,-0.03754,0.18708,0.01373,0.05374,0.00469,0.59318,-0.45812,0.07702,-0.92059,0.13296,-0.35903,-2.67573,1.71799,3.67325
0.00734,1.22597,-0.47715,-0.01346,0.08562,-0.04223,0.18950,0.06212,0.04611,0.02223,0.59488,-0.39461,0.07689,-0.92130,0.13153,-0.35775,-0.74965,3.86527,0.51854
0.00722,1.22776,-0.47795,-0.01213,0.09456,-0.04643,0.20600,0.10337,0.03302,0.14764,0.60939,-0.20979,0.07641,-0.92216,0.12973,-0.35631,1.41939,4.04630,-0.87017
0.00733,1.22972,-0.47878,-0.00734,0.10488,-0.04973,0.22835,0.11487,0.00823,0.33776,0.67263,-0.08555,0.07535,-0.92285,0.12790,-0.35540,1.34456,0.92387,-1.47757
0.00753,1.23171,-0.47948,-0.00233,0.11330,-0.05019,0.25622,0.09549,-0.02220,0.46652,0.74610,0.07170,0.07373,-0.92331,0.12596,-0.35523,1.83293,-0.22863,-2.46651
0.00800,1.23410,-0.48007,0.00620,0.12637,-0.04871,0.31131,0.03998,-0.03959,0.55366,0.87227,0.09563,0.07179,-0.92344,0.12315,-0.35629,2.65407,-3.45352,-0.74995
0.00854,1.23673,-0.48067,0.01392,0.14018,-0.04784,0.38010,0.00272,-0.06665,0.48713,1.05703,0.02431,0.06924,-0.92373,0.11974,-0.35720,4.57960,-2.85394,-1.51858
0.00900,1.23953,-0.48125,0.01836,0.15326,-0.04720,0.43820,-0.02667,-0.06820,0.28633,1.16803,0.05638,0.06708,-0.92397,0.11596,-0.35823,5.32044,-2.65956,-1.71611
0.00939,1.24267,-0.48179,0.02048,0.16849,-0.04593,0.52461,-0.04706,-0.03892,0.06451,1.00516,0.07020,0.06535,-0.92428,0.11066,-0.35943,5.36137,-2.58897,2.02076
0.00967,1.24598,-0.48224,0.02023,0.18319,-0.04351,0.64711,-0.02283,-0.04810,-0.07401,0.78306,0.15753,0.06229,-0.92523,0.10407,-0.35951,8.08133,1.07402,0.27781
0.00988,1.24923,-0.48268,0.01879,0.19361,-0.04121,0.73923,0.01165,-0.05703,-0.14494,0.67960,0.19659,0.05923,-0.92629,0.09753,-0.35911,7.45192,2.35512,-1.19375
0.01001,1.25242,-0.48307,0.01646,0.20125,-0.03856,0.80780,0.03090,-0.04576,-0.17789,0.43730,0.21725,0.05666,-0.92720,0.09089,-0.35894,5.00518,1.63681,0.62207
0.01010,1.25554,-0.48334,0.01404,0.20551,-0.03456,0.87038,0.06404,-0.06475,-0.18577,0.15444,0.33172,0.05330,-0.92832,0.08418,-0.35817,4.81919,1.88127,-0.76525
0.01018,1.25857,-0.48347,0.01197,0.20695,-0.02920,0.90117,0.08655,-0.07994,-0.13514,0.11642,0.53068,0.05005,-0.92935,0.07795,-0.35740,3.14397,2.64196,-1.71301
0.01026,1.26149,-0.48343,0.01036,0.20671,-0.02211,0.86736,0.05312,-0.03581,-0.09015,0.00805,0.67168,0.04875,-0.92958,0.07279,-0.35805,-1.52556,-1.28978,1.39744
0.01034,1.26433,-0.48317,0.00893,0.20487,-0.01316,0.79883,-0.01530,0.04117,-0.11615,-0.21391,0.72605,0.04901,-0.92918,0.06840,-0.35993,-4.30942,-4.48561,5.31732
0.01038,1.26696,-0.48274,0.00715,0.19986,-0.00350,0.70236,-0.10320,0.13478,-0.17154,-0.42881,0.74562,0.05061,-0.92822,0.06492,-0.36280,-6.28257,-6.72119,5.88864
0.01030,1.26928,-0.48219,0.00392,0.19136,0.00651,0.56457,-0.21976,0.24254,-0.29060,-0.69042,0.72279,0.05378,-0.92654,0.06288,-0.36700,-9.17890,-8.17776,7.19564
0.01017,1.27141,-0.48163,0.00029,0.18203,0.01441,0.48012,-0.28829,0.33139,-0.31541,-0.97310,0.46850,0.05705,-0.92503,0.06020,-0.37073,-8.97464,-8.34008,7.96344
0.00994,1.27302,-0.48094,-0.00425,0.16619,0.02259,0.44221,-0.29671,0.35935,-0.27487,-1.24939,0.35781,0.05908,-0.92410,0.05716,-0.37320,-3.30744,-1.59113,3.02629
0.00973,1.27435,-0.48032,-0.00696,0.14934,0.02756,0.44260,-0.26553,0.32118,-0.18890,-1.31217,0.26792,0.05917,-0.92376,0.05385,-0.37452,-0.18593,2.14531,-1.69890
0.00955,1.27552,-0.47973,-0.00875,0.13380,0.03059,0.44885,-0.22369,0.26087,-0.14481,-1.36857,0.20665,0.05831,-0.92369,0.05069,-0.37526,0.73752,3.13022,-4.53305
0.00935,1.27623,-0.47917,-0.01054,0.11445,0.03227,0.46167,-0.16858,0.18921,-0.13371,-1.42035,0.01574,0.05669,-0.92394,0.04755,-0.37531,0.44056,4.01790,-4.65211
0.00912,1.27650,-0.47873,-0.01222,0.09201,0.03157,0.45576,-0.10515,0.10290,-0.13445,-1.39065,-0.07847,0.05443,-0.92444,0.04517,-0.37471,0.21044,4.10996,-5.27759
0.00881,1.27655,-0.47834,-0.01528,0.06976,0.02976,0.42312,-0.06787,0.05987,-0.27290,-1.39435,-0.09055,0.05310,-0.92471,0.04326,-0.37446,-1.50876,2.78423,-3.03000
0.00847,1.27672,-0.47799,-0.01774,0.05565,0.02814,0.39076,-0.05403,0.04233,-0.21899,-1.42537,-0.18493,0.05226,-0.92478,0.04147,-0.37460,-3.26868,1.77672,-1.95729
0.00814,1.27611,-0.47780,-0.01937,0.03138,0.02374,0.33724,-0.02774,0.00072,0.01241,-1.30904,-0.32048,0.05103,-0.92503,0.04076,-0.37424,-2.58334,1.59978,-2.17031
0.00798,1.27568,-0.47763,-0.01825,0.01485,0.01949,0.31551,0.00679,-0.06211,0.08587,-1.16838,-0.27939,0.04877,-0.92550,0.03977,-0.37349,-1.63944,2.57505,-4.32114
0.00783,1.27530,-0.47747,-0.01699,0.00407,0.01670,0.28189,0.00632,-0.09517,0.12302,-0.95474,-0.22596,0.04699,-0.92563,0.03918,-0.37345,-1.95176,1.53137,-4.71330
0.00775,1.27469,-0.47755,-0.01492,-0.00788,0.01082,0.25121,0.02221,-0.16971,0.00262,-0.43219,-0.43503,0.04396,-0.92598,0.03929,-0.37295,-2.07361,0.48661,-4.21148
0.00747,1.27441,-0.47762,-0.01677,-0.01142,0.00644,0.25814,0.05999,-0.21150,-0.23857,-0.03800,-0.23847,0.04104,-0.92662,0.03832,-0.37178,0.23201,3.32082,-3.90483
0.00700,1.27433,-0.47772,-0.02126,-0.01059,0.00277,0.27959,0.09089,-0.22353,-0.37931,0.20084,-0.32530,0.03851,-0.92726,0.03672,-0.37062,1.08538,1.44907,-1.05453
0.00640,1.27446,-0.47785,-0.02694,-0.00660,-0.00095,0.32740,0.12419,-0.22415,-0.42528,0.36179,-0.25178,0.03586,-0.92802,0.03414,-0.36921,3.61524,2.90640,-0.41865
0.00577,1.27470,-0.47800,-0.03182,-0.00190,-0.00397,0.36255,0.13516,-0.21172,-0.41592,0.44801,-0.21455,0.03355,-0.92862,0.03145,-0.36818,3.18680,1.90659,0.36154
0.00500,1.27510,-0.47833,-0.03767,0.00468,-0.00942,0.34533,0.10235,-0.15891,-0.34208,0.45486,-0.34811,0.03284,-0.92867,0.02954,-0.36826,-0.50739,-1.74624,2.55292
0.00426,1.27558,-0.47873,-0.04167,0.01056,-0.01526,0.30101,0.04309,-0.10384,-0.26624,0.44119,-0.44389,0.03284,-0.92832,0.02836,-0.36925,-3.42916,-3.93043,3.68161
0.00347,1.27622,-0.47927,-0.04555,0.01801,-0.02200,0.28468,0.01058,-0.06326,-0.32797,0.59831,-0.67672,0.03267,-0.92809,0.02674,-0.36995,-2.29638,-3.63998,3.56704
0.00252,1.27706,-0.47997,-0.05101,0.02753,-0.02934,0.31705,0.03486,-0.03340,-0.54899,0.88612,-0.71665,0.03202,-0.92843,0.02385,-0.36935,1.28203,0.62126,2.39008
0.00122,1.27832,-0.48089,-0.06129,0.04132,-0.03830,0.37294,0.08958,0.02324,-0.87923,1.11055,-0.67444,0.03197,-0.92916,0.01964,-0.36777,4.04886,3.44409,3.16464
-0.00067,1.28020,-0.48210,-0.07974,0.06295,-0.05073,0.44357,0.17570,0.14580,-1.12078,1.33842,-0.71655,0.03373,-0.93025,0.01386,-0.36512,4.01485,4.69700,6.22477
-0.00259,1.28190,-0.48331,-0.09399,0.07690,-0.05968,0.44061,0.21065,0.26976,-1.19808,1.14837,-0.68025,0.03688,-0.93093,0.00930,-0.36322,1.98937,4.29452,9.43255
-0.00478,1.28384,-0.48471,-0.10967,0.09069,-0.07036,0.39023,0.22553,0.40863,-1.09369,0.84125,-0.73950,0.04183,-0.93138,0.00556,-0.36160,-2.99211,0.79542,10.54732
-0.00702,1.28578,-0.48624,-0.12241,0.10104,-0.08047,0.30285,0.21263,0.52455,-0.81948,0.63645,-0.57907,0.04756,-0.93152,0.00304,-0.36057,-4.80047,-0.61301,8.57887
-0.00922,1.28763,-0.48783,-0.13109,0.10787,-0.08905,0.18950,0.15923,0.61836,-0.51051,0.29699,-0.59822,0.05394,-0.93113,0.00182,-0.36066,-8.12378,-4.05459,7.53609
-0.01133,1.28937,-0.48948,-0.13618,0.11041,-0.09700,0.07775,0.11796,0.66367,-0.27598,-0.03979,-0.59367,0.05990,-0.93075,0.00159,-0.36072,-7.81246,-3.71499,4.17688
-0.01334,1.29092,-0.49121,-0.13822,0.10940,-0.10432,-0.02094,0.10772,0.65101,-0.04698,-0.24225,-0.54555,0.06473,-0.93064,0.00222,-0.36015,-7.69610,-1.89506,0.32504
-0.01523,1.29232,-0.49292,-0.13747,0.10589,-0.10994,-0.08752,0.11324,0.61923,0.13723,-0.36147,-0.36163,0.06887,-0.93071,0.00282,-0.35921,-5.15301,0.08218,-2.06806
-0.01700,1.29357,-0.49453,-0.13489,0.10064,-0.11268,-0.15232,0.09548,0.57921,0.21009,-0.38697,0.04985,0.07267,-0.93058,0.00397,-0.35878,-3.98129,-0.11977,-3.02985
-0.01870,1.29468,-0.49595,-0.13186,0.09460,-0.11103,-0.21445,-0.00026,0.58902,0.21106,-0.43960,0.23835,0.07770,-0.92947,0.00523,-0.36058,-5.18032,-6.25541,-0.03007
-0.02037,1.29577,-0.49715,-0.12871,0.08881,-0.10671,-0.22947,-0.07578,0.58067,0.24790,-0.42701,0.26781,0.08201,-0.92834,0.00581,-0.36253,-2.03702,-5.99385,0.46349
-0.02201,1.29684,-0.49810,-0.12573,0.08378,-0.09923,-0.13466,-0.07788,0.51227,0.16096,-0.50114,0.49999,0.08357,-0.92794,0.00408,-0.36321,3.44986,-2.16143,-2.62038
-0.02361,1.29783,-0.49884,-0.12300,0.07918,-0.08941,0.04944,-0.05428,0.38106,0.05484,-0.45424,0.71319,0.08173,-0.92805,0.00002,-0.36338,12.79682,2.55005,-8.09829
-0.02534,1.29889,-0.49951,-0.12313,0.07736,-0.08066,0.24972,-0.01324,0.22967,0.01560,0.24740,0.46217,0.07779,-0.92849,-0.00518,-0.36309,14.01037,2.33556,-11.44228
-0.02698,1.30057,-0.50025,-0.12148,0.08656,-0.07511,0.43155,-0.00894,0.09491,0.27102,1.03194,0.47573,0.07300,-0.92866,-0.01094,-0.36352,13.76696,2.85462,-9.79598
-0.02826,1.30325,-0.50102,-0.11420,0.11168,-0.07077,0.63782,-0.02631,-0.10770,0.50812,2.30516,0.04551,0.06499,-0.92868,-0.01733,-0.36473,11.74546,-2.52967,-10.97465
-0.02969,1.30746,-0.50165,-0.11101,0.15511,-0.06698,0.89412,0.03574,-0.28519,0.03637,4.95969,0.26481,0.05515,-0.92938,-0.02626,-0.36403,16.79493,4.06351,-16.95325
-0.03185,1.31565,-0.50183,-0.12146,0.25642,-0.05714,1.42628,0.09024,-0.36316,-1.35247,7.68361,0.91700,0.04319,-0.92951,-0.04485,-0.36350,32.71938,5.15376,-6.50983
-0.03517,1.32576,-0.50160,-0.14982,0.36866,-0.04096,1.79599,-0.04971,-0.50743,-2.95952,8.81881,1.98078,0.02982,-0.92750,-0.06156,-0.36751,33.58713,-2.96550,1.13130
-0.03977,1.33782,-0.50085,-0.19296,0.48617,-0.01972,2.41180,-0.17138,-0.20698,-4.10512,10.82581,1.28624,0.02353,-0.92344,-0.09127,-0.37199,35.46885,-13.91917,-1.20778
-0.04646,1.35524,-0.49999,-0.26153,0.66736,-0.00250,3.23524,0.14803,0.15855,-4.64111,11.30764,0.43270,0.01695,-0.92131,-0.13263,-0.36511,51.25022,8.83110,30.64298
-0.05407,1.37385,-0.49950,-0.33075,0.82884,0.00569,3.94780,0.66041,0.33007,-5.27583,11.48347,0.40972,0.00560,-0.92010,-0.17482,-0.35045,52.11846,31.55272,16.36932
-0.06244,1.39324,-0.49904,-0.39452,0.96164,0.01132,4.36302,1.05228,0.53359,-5.31628,11.17982,0.99194,-0.00279,-0.91771,-0.21444,-0.33438,43.84740,34.95336,21.60206
-0.07252,1.41546,-0.49845,-0.47123,1.10816,0.01743,4.44998,1.21642,0.95951,-5.82242,10.40162,1.07292,-0.00114,-0.91363,-0.25047,-0.32022,16.32553,12.16335,29.16883
-0.08513,1.43994,-0.49757,-0.57472,1.26114,0.02727,4.21941,1.16199,1.66599,-7.05185,9.34106,0.89236,0.01439,-0.90831,-0.28179,-0.30882,-8.91275,-15.35232,41.37073
-0.09840,1.46380,-0.49636,-0.66420,1.36700,0.04059,3.99027,1.16512,2.26991,-7.85452,8.49557,1.28383,0.03205,-0.90262,-0.31179,-0.29501,-13.83572,-17.33307,47.44494
-0.11457,1.48933,-0.49425,-0.78001,1.47441,0.06542,3.74871,1.17243,2.98464,-8.69022,7.09331,2.11462,0.05736,-0.89576,-0.34179,-0.27841,-13.27913,-14.41265,50.17352
-0.13351,1.51573,-0.49055,-0.91753,1.57227,0.11259,3.55448,1.19712,3.76730,-8.52212,4.98656,3.71636,0.08841,-0.88681,-0.37278,-0.25842,-8.39493,-11.95929,49.71745
-0.15296,1.54086,-0.48535,-1.03230,1.62556,0.17414,3.47276,1.13192,4.37163,-8.12528,2.45940,5.07881,0.11904,-0.87459,-0.40443,-0.23948,-2.83428,-12.17054,43.48013
-0.17211,1.56453,-0.47969,-1.11166,1.64128,0.22719,3.45619,1.03757,4.75238,-7.94511,0.51709,5.67979,0.14770,-0.85981,-0.43565,-0.22164,3.23434,-17.08112,37.85139
-0.19675,1.58617,-0.46922,-1.26702,1.61755,0.35086,3.51335,0.79573,5.46685,-7.70902,-3.10174,6.78080,0.18788,-0.83837,-0.46973,-0.20294,8.76986,-16.62818,32.67525
-0.21959,1.60605,-0.45952,-1.35774,1.56910,0.43409,3.59674,0.58854,5.85800,-7.52927,-5.06811,7.36342,0.22309,-0.81475,-0.50195,-0.18562,13.19313,-18.80375,29.19164
-0.24378,1.62371,-0.44817,-1.44639,1.49604,0.52268,3.75705,0.33554,6.25206,-7.19213,-7.31881,7.48645,0.26081,-0.78560,-0.53500,-0.16908,19.38961,-21.33551,26.86389
-0.26945,1.63723,-0.43496,-1.53812,1.37337,0.62077,3.96665,-0.03531,6.66428,-5.83811,-10.37745,6.66867,0.30221,-0.74992,-0.56767,-0.15504,25.96925,-23.00863,25.71462
-0.29538,1.64555,-0.42101,-1.61345,1.18970,0.71025,4.16942,-0.56925,6.96498,-3.48892,-12.96024,4.74409,0.34524,-0.70917,-0.59702,-0.14645,24.92134,-28.00000,13.81212
-0.31988,1.65126,-0.40814,-1.64778,1.00291,0.76136,4.29174,-1.04666,7.08130,-1.39361,-14.03968,2.71200,0.38577,-0.66699,-0.62184,-0.14007,24.49654,-30.15352,3.44053
-0.34326,1.65374,-0.39603,-1.65418,0.80713,0.78856,4.39523,-1.44312,7.10483,0.57126,-14.32659,1.01759,0.42413,-0.62271,-0.64357,-0.13479,19.73975,-23.67566,-4.19091
-0.36517,1.65322,-0.38484,-1.63390,0.60735,0.79449,4.47355,-1.71907,7.06596,2.11929,-14.45750,-0.45642,0.45966,-0.57697,-0.66266,-0.12925,16.79016,-17.29433,-6.84157
-0.38573,1.64950,-0.37458,-1.59565,0.39959,0.78256,4.42307,-1.75263,7.13643,3.59632,-15.34366,-1.84670,0.49323,-0.53094,-0.67912,-0.11671,1.02450,-5.64557,0.56313
-0.40405,1.64213,-0.36587,-1.52797,0.18115,0.74746,4.36477,-1.79526,7.24115,6.14944,-15.70983,-3.10673,0.52625,-0.48257,-0.69257,-0.10261,-4.66429,-6.09043,7.95205
-0.42034,1.63379,-0.35829,-1.44353,0.00126,0.70235,4.38792,-1.90883,7.20402,8.23563,-14.60313,-3.93799,0.55653,-0.43237,-0.70340,-0.09252,1.77603,-7.00015,0.36447
-0.43200,1.62126,-0.35295,-1.30150,-0.20696,0.63015,4.59076,-2.11917,6.90378,10.04478,-12.00142,-4.90261,0.58226,-0.38058,-0.71251,-0.09192,17.59213,-2.75030,-16.10045
-0.44164,1.60969,-0.34853,-1.15566,-0.35429,0.55688,4.75331,-2.24267,6.52510,11.16941,-9.30118,-5.63262,0.60372,-0.33015,-0.71957,-0.09348,17.22306,4.19270,-24.61427
-0.44859,1.59842,-0.34537,-0.99907,-0.46110,0.47961,4.90608,-2.32427,6.02537,11.53148,-6.15673,-5.49368,0.62091,-0.28185,-0.72468,-0.09939,16.52226,7.64153,-31.00039
-0.45211,1.58798,-0.34343,-0.81873,-0.52955,0.39844,5.08211,-2.26909,5.32339,11.45216,-2.62505,-4.86093,0.63119,-0.23763,-0.72993,-0.11105,13.94597,18.26751,-38.81577
-0.45465,1.57951,-0.34134,-0.66212,-0.54831,0.33787,5.09718,-2.01178,4.60404,11.23166,-0.17594,-4.36676,0.63556,-0.19935,-0.73579,-0.12221,4.91688,30.64745,-42.79676
-0.45645,1.57196,-0.33935,-0.53354,-0.54666,0.29125,4.89450,-1.68469,4.09736,10.30302,0.81220,-4.16458,0.63787,-0.16563,-0.74114,-0.12808,-12.22628,36.50869,-39.69469
-0.45447,1.56517,-0.33907,-0.37089,-0.53178,0.22532,4.26466,-1.30336,3.69559,9.60006,1.74748,-4.87141,0.63926,-0.14285,-0.74512,-0.12543,-37.53904,25.57937,-25.43376
-0.45178,1.55920,-0.33966,-0.23338,-0.50607,0.15891,3.32458,-1.19097,3.57198,9.76491,2.60662,-5.12463,0.64738,-0.12578,-0.74328,-0.11234,-61.48722,1.18496,-13.45804
-0.44797,1.55407,-0.34083,-0.11172,-0.47250,0.09983,2.54051,-1.16962,3.45176,10.66394,2.89901,-4.71164,0.65661,-0.11090,-0.73952,-0.09835,-71.35349,-12.15640,-14.59951
-0.43942,1.55080,-0.34421,0.06258,-0.41459,0.01642,1.85628,-1.12075,3.39105,11.07241,4.18221,-5.58404,0.66501,-0.09751,-0.73591,-0.08177,-43.35959,-3.64198,-9.50356
-0.43071,1.54843,-0.34800,0.19723,-0.35507,-0.05390,1.34871,-1.21246,3.41411,11.10761,5.96123,-6.12091,0.67568,-0.08186,-0.72980,-0.06434,-39.61134,-11.43887,-1.61740
-0.41909,1.54901,-0.35362,0.34665,-0.26027,-0.13753,0.89367,-1.41990,3.53455,10.72398,8.12090,-5.63371,0.68921,-0.06547,-0.72028,-0.04359,-34.02065,-22.13932,2.84813
-0.40573,1.55396,-0.36014,0.49076,-0.11369,-0.21595,0.43709,-1.66448,2.90909,10.05226,12.28679,-5.48867,0.70244,-0.06511,-0.70781,-0.03654,-22.67192,-19.62045,-41.51293
-0.39009,1.56514,-0.36717,0.64085,0.10813,-0.28598,-0.11616,-1.83665,2.28676,9.58957,16.62577,-3.39497,0.71528,-0.07162,-0.69459,-0.02806,-25.92595,-18.93736,-35.13050
-0.37617,1.57685,-0.37256,0.72447,0.28131,-0.31036,-0.66676,-1.87448,1.67383,8.02147,19.10434,-2.09655,0.72561,-0.08443,-0.68263,-0.01951,-34.45789,-10.54424,-57.46577
-0.35979,1.60031,-0.37768,0.82804,0.60713,-0.32418,-1.72660,-1.92627,0.27949,5.30879,21.91034,-0.36863,0.73397,-0.13035,-0.66634,-0.01711,-56.87088,-12.19938,-91.17015
-0.34441,1.62743,-0.38229,0.89341,0.92268,-0.32660,-2.30061,-1.92779,-1.36840,5.67654,22.76366,0.68370,0.73750,-0.18271,-0.64944,-0.03052,-43.31406,-17.21951,-110.51700
-0.32632,1.66142,-0.38679,0.99154,1.28480,-0.32647,-1.99776,-1.63662,-3.43411,7.67496,21.57055,0.53509,0.72859,-0.23667,-0.63854,-0.07356,25.25529,-2.61950,-131.41330
-0.30506,1.69605,-0.39096,1.12311,1.57567,-0.31987,-1.31026,-1.40856,-5.10284,11.43507,19.57388,1.36736,0.71470,-0.28245,-0.62726,-0.12642,56.87654,-8.14212,-117.09150
-0.27852,1.73240,-0.39318,1.31481,1.82507,-0.28042,-0.68881,-1.14993,-6.55765,15.98209,16.25025,4.10758,0.69312,-0.32915,-0.61444,-0.18361,61.01004,-10.95506,-106.78960
-0.24548,1.76891,-0.39188,1.57232,2.01640,-0.18893,-0.67084,-0.68662,-7.73027,20.97676,12.09421,7.73192,0.66248,-0.38487,-0.60022,-0.22962,25.73809,11.79259,-88.68292
-0.20512,1.80483,-0.38704,1.89187,2.14903,-0.05903,-0.61748,0.07609,-8.85724,25.01607,7.24734,10.80090,0.61713,-0.44375,-0.58881,-0.27486,18.40301,42.59325,-77.47932
-0.15760,1.83889,-0.37868,2.25694,2.21702,0.10028,-0.27116,0.99932,-10.09758,28.33392,2.45779,12.76194,0.55383,-0.50222,-0.57829,-0.32654,50.18209,40.18740,-88.77907
-0.10222,1.87014,-0.36589,2.67094,2.22113,0.29836,0.45903,2.06434,-11.67293,32.71490,-3.08769,15.81198,0.46538,-0.55939,-0.56547,-0.38826,67.06676,33.05376,-110.35990
-0.04078,1.89660,-0.35049,3.08055,2.14016,0.48776,1.08051,3.14454,-13.24047,37.72497,-11.81278,15.80516,0.35650,-0.61431,-0.54409,-0.44664,83.76579,27.43230,-139.64580
0.03880,1.90661,-0.32918,3.69900,1.79478,0.73110,1.48591,5.63608,-14.53759,39.15529,-30.12729,11.57885,0.20761,-0.67125,-0.53247,-0.47201,123.43660,75.95757,-100.58300
0.11974,1.89931,-0.31002,4.20370,1.23193,0.88453,1.49041,8.71855,-14.68745,33.42887,-48.84162,7.54309,0.05170,-0.72196,-0.52449,-0.44834,131.08410,152.56240,-59.43970
0.20006,1.87610,-0.29492,4.57374,0.54405,0.93125,2.59662,11.66479,-14.13134,27.30825,-65.19534,-0.71099,-0.11574,-0.73775,-0.53028,-0.40141,219.74370,107.05780,-48.59233
0.28177,1.81610,-0.29029,4.87466,-0.60664,0.78501,5.40520,14.74461,-13.15077,8.66318,-76.69875,-16.54404,-0.30575,-0.70096,-0.55611,-0.32545,247.34170,27.27233,-113.23410
0.34858,1.74454,-0.29870,4.85298,-1.69467,0.45062,8.51060,16.01147,-12.28393,-12.42288,-77.87347,-29.19398,-0.47233,-0.62056,-0.57222,-0.25374,200.93770,-38.39140,-149.78010
0.40061,1.66814,-0.31721,4.59123,-2.58723,0.03479,11.12177,15.89187,-11.94666,-31.39812,-70.80272,-37.40497,-0.61308,-0.51071,-0.57095,-0.19318,117.14790,-71.55497,-190.88180
0.42917,1.57973,-0.35089,4.00377,-3.45683,-0.53116,13.47870,14.64192,-11.97741,-51.69657,-53.25501,-40.80276,-0.72371,-0.37139,-0.56305,-0.14590,14.81297,-67.19007,-187.19290
0.42804,1.49365,-0.39562,3.04054,-4.09097,-1.16036,14.48717,12.35087,-12.32881,-66.81599,-27.09667,-34.86094,-0.79544,-0.23274,-0.54548,-0.12473,-72.58369,-62.19897,-135.60240
0.41458,1.42476,-0.43578,2.08342,-4.29036,-1.57057,13.66475,10.27188,-12.68818,-68.84657,-3.91447,-22.21297,-0.84278,-0.12215,-0.50959,-0.12296,-148.06070,-26.67488,-53.16080
0.38996,1.36906,-0.46994,1.16622,-4.21761,-1.77964,11.92617,8.56676,-12.61451,-61.87503,12.78966,-7.79510,-0.87246,-0.03723,-0.46899,-0.13218,-173.73110,-6.87697,20.26289
0.35496,1.32564,-0.49547,0.27807,-3.94867,-1.78623,10.36790,6.65194,-11.93093,-49.46879,20.98001,5.85978,-0.88336,0.03565,-0.44592,-0.13989,-150.53090,-41.94091,46.58520
0.32692,1.28509,-0.51395,-0.27560,-3.69811,-1.67166,9.59590,5.03243,-11.65701,-42.95415,22.69780,13.46474,-0.88557,0.12298,-0.42544,-0.14019,-139.87960,-63.02535,10.04500
0.29444,1.25059,-0.52519,-0.75563,-3.41286,-1.46632,8.70458,3.35769,-11.83598,-36.77046,25.45522,21.04658,-0.87286,0.21600,-0.40998,-0.15290,-142.40740,-47.16743,-34.81694
0.25366,1.23186,-0.51922,-1.26371,-2.91949,-1.01095,6.01237,1.63352,-12.39762,-19.35748,28.01461,29.14682,-0.84194,0.29101,-0.39984,-0.21583,-167.98500,37.24922,-34.44379
0.22764,1.21062,-0.51232,-1.40555,-2.58270,-0.64547,3.55565,0.98184,-12.33522,-4.63924,26.88066,31.38964,-0.81265,0.34556,-0.37898,-0.27670,-185.25210,90.40160,-3.86118
0.21165,1.19430,-0.49631,-1.33870,-2.25004,-0.21905,0.51251,0.71068,-10.72608,11.51056,20.14492,28.87094,-0.78768,0.34620,-0.37344,-0.34678,-190.62570,103.98720,105.23020
0.20735,1.17619,-0.47815,-1.09014,-2.02639,0.14049,-2.18061,1.61336,-8.37828,22.56842,13.19507,23.24809,-0.77823,0.30821,-0.35541,-0.41599,-137.23540,158.46250,143.82340
0.21418,1.15578,-0.46020,-0.71195,-1.89465,0.41041,-4.00813,2.05520,-4.90557,32.19231,7.66080,16.22939,-0.77736,0.23520,-0.36044,-0.45877,-81.06068,156.16770,226.49830
0.22901,1.13402,-0.44442,-0.28986,-1.81646,0.57916,-5.12911,1.72019,-1.49106,29.65473,6.02334,8.89457,-0.77022,0.15320,-0.39008,-0.48076,-66.07289,65.47155,258.87420
0.24428,1.11291,-0.43153,0.03326,-1.74541,0.65803,-5.55433,1.97230,0.97975,23.58449,7.71969,4.79566,-0.76637,0.07328,-0.40394,-0.49411,-25.92523,72.62747,212.57230
0.26318,1.09668,-0.41947,0.33928,-1.60780,0.70300,-5.59742,2.72538,3.21673,14.61744,10.54084,1.05529,-0.76760,-0.01910,-0.40569,-0.49582,2.49363,102.36050,134.81380
0.27657,1.08303,-0.40967,0.48554,-1.45929,0.70150,-5.34839,3.08392,4.21360,8.05813,11.16719,-1.21453,-0.76327,-0.08671,-0.40271,-0.49772,13.88619,65.39070,60.93367
0.28661,1.07019,-0.40097,0.54034,-1.33434,0.68231,-5.01143,3.00792,4.55861,2.59468,10.26740,-1.93154,-0.75441,-0.13792,-0.40290,-0.49952,29.56098,24.84042,38.50843
0.29373,1.06195,-0.39329,0.53323,-1.15975,0.65032,-4.56367,2.89856,4.46116,-2.69964,9.63783,-1.49482,-0.74667,-0.17708,-0.39982,-0.50127,26.10586,-3.09788,-8.86950
0.29823,1.05364,-0.38519,0.48200,-1.02226,0.63309,-4.43925,2.97811,4.13548,-4.60352,9.73166,-0.31974,-0.73651,-0.21542,-0.38885,-0.50984,12.48361,2.80262,-21.84189
0.30145,1.04623,-0.37655,0.42250,-0.90478,0.62889,-4.59843,3.06737,3.75837,-5.38823,9.23427,-0.23720,-0.72178,-0.25367,-0.37384,-0.52434,-13.01760,-6.21714,-27.04203
0.30269,1.04164,-0.36821,0.34375,-0.76754,0.62003,-4.90351,3.39867,3.34270,-4.78175,8.21014,-0.89073,-0.70581,-0.29429,-0.34901,-0.54168,-27.64566,7.65344,-26.49647
0.30389,1.03723,-0.36068,0.28163,-0.65804,0.60002,-5.21828,3.76945,3.09379,-4.26217,7.42550,-2.02507,-0.68738,-0.33813,-0.32090,-0.55695,-28.86330,12.32466,-20.35655
0.30508,1.03277,-0.35398,0.23504,-0.57791,0.57173,-5.56290,4.22476,2.83894,-4.54754,5.61257,-2.39331,-0.66694,-0.38329,-0.28584,-0.57147,-33.89479,21.85061,-15.90330
0.30488,1.02898,-0.34831,0.17694,-0.50622,0.53310,-5.94643,4.64288,2.42602,-3.77075,5.00418,-3.23596,-0.64413,-0.42484,-0.24299,-0.58785,-48.26581,18.03934,-32.41391
0.30380,1.02560,-0.34322,0.11748,-0.44492,0.49406,-6.17677,4.66009,2.14611,-4.00574,4.22863,-3.01229,-0.61786,-0.46054,-0.20692,-0.60277,-24.72617,-1.59302,-16.67691
0.30181,1.02248,-0.33895,0.05641,-0.39377,0.44956,-6.25166,4.55185,1.85364,-4.74838,3.41039,-3.69885,-0.59172,-0.49067,-0.17253,-0.61590,-10.99943,-15.49294,-10.66662
0.29921,1.01916,-0.33526,0.00043,-0.35836,0.40679,-6.16148,4.36368,1.56328,-4.57383,3.00873,-4.05610,-0.56744,-0.51544,-0.14017,-0.62665,-3.93577,-18.74386,-19.13697
0.29455,1.01676,-0.33317,-0.07690,-0.31610,0.34663,-5.67950,3.87341,1.35776,-4.81890,2.44925,-4.23307,-0.54866,-0.53171,-0.12004,-0.63391,26.32336,-32.19598,-8.94043
0.28962,1.01387,-0.33146,-0.14182,-0.29177,0.29240,-5.09448,3.42985,1.18838,-4.49291,1.13378,-3.94190,-0.53362,-0.54537,-0.10370,-0.63802,40.67006,-32.19128,-8.64079
0.28518,1.01023,-0.32954,-0.18200,-0.28558,0.25639,-4.62337,3.14499,1.02113,-3.82322,0.28737,-3.53594,-0.51986,-0.55847,-0.08617,-0.64065,43.54735,-31.96570,-14.46185
0.27929,1.00619,-0.32918,-0.23620,-0.28736,0.20384,-3.72765,2.67531,0.69474,-2.41312,-0.17082,-2.50646,-0.51916,-0.56151,-0.07763,-0.63966,47.63105,-28.71227,-20.06646
0.27443,1.00227,-0.32789,-0.26217,-0.28645,0.17818,-3.10768,2.34262,0.53758,-1.76926,0.31217,-1.95105,-0.51529,-0.56725,-0.06903,-0.63871,48.88524,-28.11409,-18.09535
0.26935,0.99903,-0.32686,-0.28546,-0.27467,0.15435,-2.44007,1.98744,0.47285,-1.30909,1.26963,-1.37316,-0.51431,-0.57141,-0.06658,-0.63603,50.02029,-26.97692,-9.28765
0.26429,0.99694,-0.32604,-0.30326,-0.24646,0.13155,-1.91935,1.72991,0.44462,-0.88042,2.09528,-0.96262,-0.51293,-0.57636,-0.06440,-0.63290,37.00043,-18.19209,-2.81693
0.25955,0.99534,-0.32521,-0.31197,-0.21683,0.11329,-1.68300,1.71343,0.27726,0.37963,2.55066,-0.25379,-0.51098,-0.58277,-0.05346,-0.62963,22.14508,-1.38498,-17.69620
0.25548,0.99551,-0.32422,-0.30743,-0.16354,0.10183,-1.92427,1.65648,0.44248,0.07484,3.72255,-0.74920,-0.49549,-0.59377,-0.04208,-0.63257,-11.91757,-7.17860,18.87964
0.25169,0.99585,-0.32341,-0.29960,-0.11995,0.09063,-2.17747,1.73554,0.46148,0.89601,3.64096,-0.79705,-0.48046,-0.60510,-0.02525,-0.63433,-19.83278,6.00085,2.80539
0.24841,0.99726,-0.32276,-0.28543,-0.06970,0.07938,-2.47284,1.79828,0.47532,0.96263,3.59587,-1.06216,-0.46297,-0.61620,-0.00646,-0.63711,-22.59133,5.30002,3.91342
0.24535,0.99993,-0.32284,-0.27050,-0.00879,0.05822,-2.62371,1.82802,0.59718,1.11325,3.89525,-1.93251,-0.44480,-0.62796,0.00874,-0.63854,-10.99119,2.29053,6.03112
0.24244,1.00254,-0.32335,-0.25639,0.03657,0.03523,-2.65554,1.86851,0.73337,1.30055,3.55756,-2.05242,-0.42726,-0.64025,0.02178,-0.63801,-1.58137,4.28319,11.57516
0.24011,1.00570,-0.32464,-0.23645,0.07976,0.00498,-2.73022,1.94420,0.79898,1.29294,2.73742,-2.31081,-0.40904,-0.65241,0.03704,-0.63693,-4.41760,5.97085,6.91958
0.23815,1.00919,-0.32678,-0.21447,0.11920,-0.03278,-2.76977,2.06267,0.81020,1.35701,2.36280,-2.50993,-0.39160,-0.66460,0.05358,-0.63410,-3.79050,7.04808,-0.51088
0.23628,1.01278,-0.32923,-0.19627,0.15172,-0.06786,-2.78922,2.17351,0.82260,1.23894,2.25302,-2.54448,-0.37403,-0.67673,0.06998,-0.63027,-1.71695,8.16621,0.21119
0.23454,1.01642,-0.33181,-0.18032,0.17680,-0.09595,-2.81898,2.24387,0.80731,1.38988,2.03165,-2.16127,-0.35635,-0.68784,0.08689,-0.62637,-2.31312,7.27211,-1.07987
