posX, posY, posZ, velX, velY, velZ, angVelX, angVelY, angVelZ, accX, accY, accZ, rotX, rotY, rotZ, rotW, angAccX, angAccY, angAccZ
-0.12711,1.58800,-0.52828,-0.21798,-0.00426,-0.13689,-0.41874,0.04873,1.02556,-0.16696,2.13907,1.25429,-0.21276,-0.90604,-0.28102,-0.23421,11.87208,0.30238,-1.60314
-0.13066,1.59033,-0.52841,-0.22488,0.03006,-0.11236,-0.11388,0.04384,1.07206,-0.55623,2.14054,1.73188,-0.20681,-0.90580,-0.28987,-0.22963,19.97095,2.40729,2.77518
-0.13428,1.59222,-0.52885,-0.23118,0.05071,-0.09689,0.01214,-0.01489,1.10675,-0.58030,1.94936,1.65084,-0.19931,-0.90612,-0.29555,-0.22777,16.96188,-1.19243,3.46015
-0.13834,1.59532,-0.52863,-0.24234,0.08457,-0.07501,0.19206,-0.09543,1.14459,-0.66711,1.67096,0.81232,-0.19173,-0.90530,-0.30402,-0.22636,10.05985,-5.36077,2.30843
-0.14222,1.59774,-0.52907,-0.24897,0.10258,-0.06648,0.32796,-0.07341,1.12740,-0.41592,1.41066,0.47903,-0.18648,-0.90490,-0.31107,-0.22273,10.83515,1.92834,-0.12855
-0.14640,1.60154,-0.52973,-0.25865,0.13915,-0.06388,0.53287,0.07814,1.02962,-0.41970,1.13466,-0.04484,-0.18544,-0.90399,-0.31928,-0.21560,7.00849,8.04899,-3.40652
-0.15444,1.60697,-0.53158,-0.27035,0.16127,-0.06638,0.57414,0.15332,0.99379,-0.88214,1.32634,-0.15176,-0.17669,-0.90428,-0.32931,-0.20644,1.99148,4.18228,-2.51535
-0.15918,1.61035,-0.53258,-0.28433,0.17774,-0.06797,0.55609,0.18295,1.01869,-1.36006,1.47613,-0.00902,-0.17104,-0.90493,-0.33359,-0.20141,-0.22602,3.96632,0.88425
-0.16479,1.61423,-0.53346,-0.30785,0.19776,-0.06858,0.49545,0.18756,1.09933,-1.74617,1.40974,0.00124,-0.16293,-0.90623,-0.33699,-0.19658,-3.25245,0.03758,5.37097
-0.17067,1.61834,-0.53427,-0.33058,0.21713,-0.06821,0.42214,0.17796,1.16084,-1.53348,1.33487,0.04124,-0.15453,-0.90762,-0.33963,-0.19235,-5.30469,-1.54359,5.48378
-0.17664,1.62266,-0.53487,-0.34972,0.23558,-0.06423,0.42941,0.24942,1.16513,-1.39596,1.25322,0.31705,-0.14881,-0.90852,-0.34343,-0.18575,-2.30621,2.65200,1.44630
-0.18275,1.62703,-0.53492,-0.36719,0.25103,-0.05306,0.53171,0.37576,1.12828,-1.20389,0.97179,1.06848,-0.14585,-0.90847,-0.34950,-0.17680,5.38671,9.49115,-1.98653
-0.18883,1.63136,-0.53450,-0.38081,0.26295,-0.03750,0.62534,0.44822,1.08544,-1.02125,1.01825,1.64595,-0.14314,-0.90788,-0.35609,-0.16874,8.20472,9.26507,-3.15186
-0.19549,1.63621,-0.53309,-0.40004,0.27975,-0.01082,0.65268,0.37444,1.05788,-1.34513,1.09857,1.90600,-0.13840,-0.90696,-0.36200,-0.16500,2.53999,-2.29724,-2.98393
-0.20238,1.64112,-0.53169,-0.41843,0.29400,0.01034,0.63097,0.28463,1.06318,-1.58248,1.30936,1.77019,-0.13204,-0.90646,-0.36685,-0.16224,-0.02914,-8.07551,-0.39248
-0.21138,1.64800,-0.52794,-0.46866,0.33816,0.06590,0.52164,0.06588,1.11312,-1.89498,1.53504,1.98527,-0.12231,-0.90639,-0.36981,-0.16352,-3.75129,-7.81772,1.78666
-0.22607,1.65863,-0.52422,-0.49181,0.35528,0.09203,0.57201,0.06541,1.12793,-2.07723,1.52477,2.01714,-0.10958,-0.90502,-0.38040,-0.15568,1.51917,-3.42896,1.55611
-0.23494,1.66504,-0.52048,-0.52038,0.37573,0.12570,0.79634,0.27897,1.15208,-2.28142,1.50310,2.17228,-0.10651,-0.90270,-0.39134,-0.14367,11.67981,10.96375,1.65079
-0.24438,1.67149,-0.51617,-0.55080,0.39255,0.16097,1.06416,0.57706,1.20277,-2.05154,0.97313,2.77946,-0.10458,-0.89962,-0.40466,-0.12652,18.68374,24.71805,4.74466
-0.25378,1.67768,-0.51157,-0.57468,0.40268,0.19283,1.20352,0.68835,1.23351,-1.79059,0.60630,3.00726,-0.10089,-0.89652,-0.41604,-0.11394,13.51896,16.02886,4.03287
-0.26388,1.68391,-0.50563,-0.60300,0.41113,0.23638,1.26724,0.66390,1.26031,-1.54980,0.34884,2.90233,-0.09526,-0.89335,-0.42637,-0.10522,5.07266,0.14062,1.59309
-0.27379,1.68998,-0.49955,-0.62424,0.41613,0.27494,1.26301,0.55547,1.25739,-1.52691,0.29355,2.77446,-0.08891,-0.89043,-0.43500,-0.10005,0.59402,-6.78524,-0.71289
-0.28438,1.69595,-0.49243,-0.65084,0.41839,0.32006,1.29007,0.48969,1.29059,-1.79705,-0.04222,2.88087,-0.08181,-0.88708,-0.44457,-0.09355,1.90482,-4.79675,1.02217
-0.29498,1.70147,-0.48552,-0.67271,0.41434,0.35397,1.28901,0.37929,1.32640,-1.69568,-0.56902,2.93875,-0.07350,-0.88374,-0.45357,-0.08872,1.62537,-4.84299,2.52182
-0.30610,1.70667,-0.47791,-0.69693,0.40637,0.39078,1.28848,0.22386,1.37380,-1.86325,-0.44202,2.32963,-0.06345,-0.88002,-0.46278,-0.08588,-0.23532,-14.50558,1.28637
-0.31875,1.71054,-0.46786,-0.74238,0.37838,0.46131,1.63641,0.71652,1.47728,-0.74738,-1.35465,2.15616,-0.06093,-0.87295,-0.47978,-0.06368,12.04943,23.27085,5.93071
-0.33961,1.71994,-0.45301,-0.74636,0.36310,0.48878,1.73050,0.93984,1.40251,0.00430,-1.17122,2.02053,-0.05524,-0.86225,-0.50205,-0.03763,6.12072,19.05965,-2.23381
-0.34973,1.72374,-0.44438,-0.74442,0.34633,0.51327,1.72344,0.96780,1.29565,0.47291,-1.39236,1.95742,-0.05433,-0.85689,-0.51192,-0.02709,1.73014,9.69217,-5.59372
-0.35956,1.72750,-0.43572,-0.73883,0.33236,0.53404,1.60670,0.75994,1.13660,0.36967,-0.71181,1.45065,-0.05159,-0.85291,-0.51888,-0.02534,-7.48068,-13.59537,-12.00340
-0.36952,1.73135,-0.42684,-0.73483,0.32160,0.55386,1.55944,0.71438,1.03803,0.08691,-0.73117,1.16817,-0.04998,-0.84824,-0.52690,-0.01939,-4.80807,-6.81095,-9.08571
-0.37931,1.73508,-0.41782,-0.72951,0.31150,0.57200,1.54880,0.79065,0.92432,0.33951,-0.51364,1.16969,-0.05138,-0.84304,-0.53529,-0.01050,-1.98025,4.38654,-6.78654
-0.38915,1.73894,-0.40858,-0.72611,0.30510,0.59021,1.62045,1.07174,0.86644,-0.13638,-0.20572,1.01508,-0.05573,-0.83634,-0.54534,0.00558,1.64153,14.70039,-4.81102
-0.39935,1.74294,-0.39943,-0.72689,0.30168,0.60741,1.73551,1.53146,0.88829,-0.34677,0.01032,1.27644,-0.06227,-0.82811,-0.55628,0.03010,6.03096,30.59835,3.05173
-0.40993,1.74711,-0.38983,-0.73321,0.30131,0.62793,1.84147,1.98077,0.99330,-0.45696,-0.07094,1.87345,-0.06778,-0.81885,-0.56696,0.05876,7.46795,36.20949,10.62834
-0.42099,1.75136,-0.37948,-0.74573,0.30223,0.65446,1.81720,2.05822,1.11132,-0.56181,-0.09588,2.22832,-0.06727,-0.81149,-0.57501,0.07950,0.74712,10.77755,9.13998
-0.43254,1.75556,-0.36900,-0.76152,0.30168,0.67936,1.67031,1.72247,1.18653,-0.99313,-0.16690,2.14432,-0.06010,-0.80717,-0.58061,0.08809,-6.54397,-19.66735,4.30738
-0.44410,1.75972,-0.35848,-0.77433,0.30082,0.69801,1.53320,1.36539,1.24235,-1.26740,-0.10559,2.10025,-0.05107,-0.80351,-0.58566,0.09362,-8.98858,-33.29463,2.48031
-0.45664,1.76361,-0.34653,-0.79865,0.29614,0.73338,1.39015,0.90944,1.38677,-1.92290,-0.41731,2.38682,-0.03566,-0.80110,-0.58975,0.09574,-7.20571,-33.36549,4.24518
-0.46962,1.76692,-0.33380,-0.82366,0.28392,0.77245,1.39678,0.70743,1.58450,-1.93829,-1.06151,3.00167,-0.02098,-0.79553,-0.59640,0.10486,0.85596,-18.17428,11.89844
-0.48271,1.76961,-0.32067,-0.84558,0.26576,0.80845,1.46426,0.57409,1.76515,-1.79323,-1.79281,2.98394,-0.00599,-0.78828,-0.60437,0.11540,6.43768,-12.01177,13.64401
-0.49621,1.77105,-0.30657,-0.86910,0.23364,0.85094,1.53922,0.39239,1.97461,-1.05948,-2.37201,2.31910,0.01247,-0.78042,-0.61247,0.12517,7.50824,-11.22123,12.93736
-0.50920,1.77198,-0.29328,-0.87984,0.19990,0.87358,1.51426,0.18108,2.09176,-0.21746,-2.63957,1.04040,0.03050,-0.77428,-0.61817,0.13201,3.24811,-14.55003,8.13746
-0.52132,1.77281,-0.28093,-0.87666,0.17193,0.87835,1.40188,-0.07370,2.10947,0.94486,-2.54307,-0.15145,0.04795,-0.77037,-0.62137,0.13469,-3.31460,-21.35541,2.55752
-0.53145,1.77252,-0.26989,-0.84667,0.13411,0.86338,1.18716,-0.39766,1.98640,2.95284,-2.59339,-1.59779,0.06359,-0.76972,-0.62152,0.13118,-10.55009,-20.58644,-7.49047
-0.53973,1.77206,-0.26007,-0.79536,0.10095,0.83324,1.00553,-0.62922,1.73310,4.32244,-2.31149,-2.76786,0.07432,-0.76928,-0.62207,0.12533,-8.68899,-19.52297,-18.88763
-0.54671,1.77179,-0.25097,-0.73730,0.07748,0.79956,0.84745,-0.71028,1.47377,5.03178,-1.79243,-3.12612,0.08109,-0.76898,-0.62244,0.12112,-11.78130,-12.33962,-22.38132
-0.54979,1.77075,-0.24370,-0.63549,0.04752,0.74566,0.71064,-0.21002,1.24889,5.56720,-1.10025,-3.61778,0.07542,-0.76697,-0.62344,0.13189,-8.63583,23.11887,-12.91834
-0.55352,1.77081,-0.23601,-0.56168,0.03876,0.70683,0.57450,0.41437,1.19767,6.31590,-0.46094,-3.27968,0.06838,-0.76390,-0.62346,0.15195,-13.53925,48.95082,-2.70384
-0.55415,1.77108,-0.22963,-0.45867,0.03483,0.65757,0.36908,0.97380,0.97960,7.21954,-0.40255,-2.63271,0.05466,-0.76263,-0.62161,0.17031,-16.72180,41.09258,-7.52408
-0.55323,1.77143,-0.22330,-0.35114,0.03297,0.61653,0.21854,1.09806,0.50539,6.77815,-0.13392,-2.00285,0.04033,-0.76310,-0.62129,0.17332,-13.25001,8.60163,-27.74271
-0.55292,1.77173,-0.21612,-0.27464,0.03059,0.59558,0.17409,1.15988,0.14827,6.04156,-0.06339,-1.41798,0.02763,-0.76193,-0.62282,0.17546,-8.02445,4.42065,-30.79848
-0.55073,1.77187,-0.20889,-0.18654,0.02647,0.58026,0.17050,1.38603,-0.16992,4.85013,-0.23464,-0.66205,0.01044,-0.75891,-0.62539,0.18122,-2.97248,11.88144,-21.98692
-0.54901,1.77173,-0.20108,-0.12226,0.01900,0.57678,0.21134,1.73950,-0.30213,4.08249,-0.50740,0.14558,-0.00686,-0.75338,-0.62832,0.19386,1.30535,23.02942,-12.08448
-0.54765,1.77131,-0.19251,-0.07726,0.00909,0.58447,0.31932,2.03968,-0.34711,3.48484,-0.87769,1.17332,-0.02280,-0.74558,-0.63259,0.20837,5.94310,28.74054,-4.87034
-0.54593,1.77052,-0.18336,-0.03695,-0.00392,0.59907,0.45352,2.16893,-0.40499,2.86367,-0.76833,1.18814,-0.03672,-0.73709,-0.63807,0.21956,10.24911,13.28145,-4.91505
-0.54408,1.77004,-0.17406,-0.00265,-0.00950,0.61296,0.53984,2.21081,-0.45405,2.23705,-0.06567,0.97578,-0.04939,-0.72930,-0.64287,0.22890,6.53970,2.61554,-5.95523
-0.54215,1.76989,-0.16450,0.02582,-0.00934,0.62736,0.58657,2.11520,-0.49598,2.21689,-0.01963,1.24887,-0.05949,-0.72280,-0.64713,0.23504,3.54061,-1.22814,-1.84726
-0.54021,1.76976,-0.15467,0.04872,-0.00904,0.64306,0.61998,1.79652,-0.60506,1.47719,0.00052,1.30110,-0.06618,-0.71828,-0.65215,0.23322,0.49789,-20.07896,-8.61162
-0.53851,1.76955,-0.14453,0.06327,-0.00988,0.65980,0.66378,1.51913,-0.65895,0.94691,-0.02437,1.48565,-0.07121,-0.71358,-0.65742,0.23137,0.72043,-24.57279,-7.78918
-0.53663,1.76931,-0.13361,0.07740,-0.01089,0.68369,0.75263,1.22813,-0.65988,0.58388,0.21325,1.38865,-0.07317,-0.70819,-0.66392,0.22875,4.44370,-20.08279,-2.97878
-0.53497,1.76935,-0.12283,0.08586,-0.00807,0.70138,0.84225,1.14469,-0.57687,0.48957,0.36517,1.42202,-0.07618,-0.70118,-0.66988,0.23196,6.47239,-11.78336,3.08959
-0.53312,1.76950,-0.11163,0.09574,-0.00353,0.72122,0.95859,1.06821,-0.47000,0.72232,0.49383,1.41560,-0.07747,-0.69318,-0.67662,0.23600,8.75641,-6.19414,7.47014
-0.53118,1.76985,-0.09998,0.10491,0.00289,0.74295,1.14274,1.08004,-0.28607,0.63265,0.50078,1.62005,-0.07730,-0.68244,-0.68455,0.24434,12.46438,-1.02430,10.10071
-0.52905,1.77033,-0.08796,0.11500,0.00974,0.76610,1.32725,0.81895,-0.22825,0.88840,0.43961,1.46514,-0.07285,-0.67280,-0.69457,0.24412,12.30666,-14.04005,3.69338
-0.52687,1.77086,-0.07588,0.12415,0.01607,0.78576,1.51429,0.56298,-0.19651,0.64785,0.51214,1.37825,-0.06736,-0.66256,-0.70552,0.24230,11.43444,-20.33652,-1.12155
-0.52441,1.77150,-0.06371,0.13555,0.02288,0.80323,1.71682,0.35977,-0.18249,0.80305,0.60254,1.04381,-0.06165,-0.65077,-0.71758,0.24037,14.72896,-16.17142,-1.59816
-0.52143,1.77244,-0.05126,0.15165,0.03216,0.82085,1.95560,0.22098,-0.15732,1.26435,0.41136,0.98099,-0.05552,-0.63665,-0.73088,0.23959,15.08544,-8.39132,2.23094
-0.51842,1.77341,-0.03918,0.16492,0.04022,0.83020,2.11020,-0.01141,-0.24604,0.66859,0.61765,0.39682,-0.04936,-0.62402,-0.74414,0.23330,11.55803,-15.25539,-8.46936
-0.51576,1.77438,-0.02716,0.17020,0.04658,0.83677,2.30131,-0.14789,-0.19700,-0.24060,0.13737,0.48520,-0.04113,-0.60936,-0.75741,0.23092,10.66728,-10.02272,-0.24823
-0.51373,1.77460,-0.01495,0.16488,0.03972,0.84474,2.53281,-0.26684,-0.10068,-0.51898,-0.98725,0.71627,-0.03077,-0.59253,-0.77143,0.22990,15.12981,-8.23797,6.46465
-0.51206,1.77400,-0.00272,0.15558,0.02240,0.85177,2.75043,-0.44791,-0.06810,-0.76657,-1.89732,0.52019,-0.01883,-0.57496,-0.78616,0.22590,17.91666,-13.62877,2.61945
-0.51093,1.77221,0.00930,0.14035,-0.00840,0.85447,2.98598,-0.74094,-0.12029,-1.14546,-2.59945,-0.17320,-0.00416,-0.55619,-0.80230,0.21668,17.68555,-18.23435,-4.10506
-0.51039,1.76976,0.02052,0.11951,-0.04258,0.84385,3.15426,-1.03758,-0.20469,-1.87113,-2.34884,-1.46438,0.01125,-0.53779,-0.81777,0.20469,13.84791,-21.91091,-12.42968
-0.51035,1.76696,0.03053,0.09566,-0.07491,0.81832,3.26456,-1.16830,-0.18291,-1.94950,-2.40804,-2.30848,0.02562,-0.51900,-0.83134,0.19712,8.27054,-12.45465,-2.21669
-0.51086,1.76362,0.03932,0.06869,-0.10853,0.78034,3.30745,-1.33588,-0.26926,-1.70857,-2.49522,-3.31864,0.03930,-0.50140,-0.84414,0.18569,5.95947,-8.53734,-1.72011
-0.51200,1.76039,0.04669,0.03800,-0.13334,0.72866,3.25345,-1.45025,-0.36657,-2.88431,-1.16893,-4.24772,0.05131,-0.48584,-0.85514,0.17339,-1.85261,-9.39112,-16.15470
-0.51399,1.75753,0.05268,0.00107,-0.14786,0.66786,3.18400,-1.40960,-0.22326,-3.15218,-0.73702,-4.73102,0.06372,-0.46999,-0.86384,0.16979,-5.21198,-0.40504,6.84835
-0.51705,1.75488,0.05734,-0.04396,-0.15650,0.60040,3.10483,-1.32858,0.11720,-3.67972,-0.30083,-4.98916,0.07856,-0.45420,-0.87030,0.17352,-7.53135,1.93387,21.12137
-0.52130,1.75252,0.06099,-0.09710,-0.15901,0.53156,2.98887,-1.38623,0.43464,-3.66506,-0.18957,-4.98130,0.09725,-0.44020,-0.87497,0.17659,-9.94248,-6.11119,25.35571
-0.52701,1.75039,0.06283,-0.16137,-0.15763,0.44929,2.83757,-1.68598,0.50096,-3.86870,-0.01350,-5.21642,0.11938,-0.42937,-0.87890,0.17009,-9.53663,-18.81298,1.88285
-0.53313,1.74820,0.06396,-0.21945,-0.15759,0.37219,2.76295,-2.08397,0.29934,-4.05406,0.02933,-5.75086,0.14206,-0.41825,-0.88388,0.15374,-5.04975,-23.82455,-14.75585
-0.54003,1.74667,0.06336,-0.27694,-0.14730,0.28570,2.66516,-2.47009,0.09290,-4.01531,1.61858,-6.69865,0.16577,-0.40842,-0.88743,0.13482,-0.79918,-25.56525,-23.12516
-0.54666,1.74663,0.06196,-0.31765,-0.11737,0.20638,2.47972,-2.73418,-0.07453,-2.87066,3.25402,-6.98130,0.18780,-0.40139,-0.88881,0.11678,-9.02030,-21.48090,-18.45995
-0.55345,1.74941,0.05766,-0.35240,-0.05201,0.10100,2.11124,-2.94531,-0.25682,-1.70738,5.04750,-6.74210,0.20795,-0.40100,-0.88675,0.09815,-16.85311,-11.80855,-20.25149
-0.55923,1.75278,0.05409,-0.36488,0.00829,0.02775,1.76612,-2.98032,-0.19666,-0.78566,4.97545,-5.94149,0.22713,-0.40069,-0.88324,0.08801,-29.44543,-5.84166,-10.76890
-0.56427,1.75756,0.04904,-0.36400,0.07573,-0.05087,1.41575,-2.92705,-0.20887,0.75745,4.64211,-5.46449,0.24269,-0.40265,-0.87913,0.07810,-26.00062,3.26076,-0.77972
-0.56809,1.76361,0.04279,-0.34558,0.14914,-0.13216,1.09163,-2.84952,-0.44018,1.77678,4.38460,-4.63421,0.25384,-0.40688,-0.87527,0.06261,-19.09638,6.62131,-14.71996
-0.57145,1.76889,0.03725,-0.32399,0.19597,-0.18635,0.93299,-2.79645,-0.57124,1.90551,3.58498,-4.37914,0.26635,-0.40769,-0.87211,0.04772,-11.75994,6.67274,-19.58357
-0.57391,1.77430,0.03103,-0.29459,0.23409,-0.23800,0.85850,-2.75196,-0.77209,3.12199,2.93763,-4.03081,0.27741,-0.40755,-0.86952,0.02966,-7.21900,5.24769,-12.02036
-0.57301,1.78137,0.02265,-0.22164,0.28946,-0.31122,0.64396,-2.43574,-0.35315,4.19654,4.45598,-4.54060,0.28793,-0.40721,-0.86613,0.03322,-8.49151,15.21532,11.45576
-0.57125,1.78910,0.01514,-0.15034,0.34386,-0.35760,0.28954,-2.12296,0.20338,7.53985,4.88549,-3.71283,0.29977,-0.41030,-0.85999,0.04702,-37.33656,25.24465,54.85309
-0.56793,1.79796,0.00764,-0.07422,0.40108,-0.39294,0.02942,-1.88532,0.32882,8.92413,5.81856,-3.33981,0.30712,-0.41547,-0.85465,0.05136,-33.69665,24.01150,24.74070
-0.55774,1.81134,-0.00146,0.08162,0.50955,-0.44308,-0.39063,-1.47034,0.28124,11.46561,7.42573,-2.81313,0.30488,-0.42815,-0.84883,0.05676,-27.54005,24.96225,0.40111
-0.54485,1.82674,-0.01027,0.24645,0.62574,-0.47976,-0.75201,-1.12541,-0.22951,13.00542,8.64013,-2.54467,0.29530,-0.44578,-0.84368,0.04782,-23.02777,23.30257,-33.49938
-0.52627,1.84559,-0.01971,0.46186,0.76965,-0.51889,-1.20009,-0.69358,-0.91845,14.18421,9.17023,-2.68898,0.27644,-0.47003,-0.83754,0.03424,-23.41316,23.68204,-48.24543
-0.50511,1.86460,-0.02961,0.67435,0.88916,-0.55780,-1.68445,-0.19843,-1.18844,16.13865,8.43414,-3.23941,0.25721,-0.49453,-0.82959,0.03266,-29.33563,30.34509,-31.83821
-0.47654,1.88522,-0.04076,0.95413,1.00844,-0.60680,-2.18949,0.56988,-1.38417,18.73124,6.83721,-3.28738,0.22724,-0.52093,-0.82188,0.03886,-29.82143,48.01380,-16.18476
-0.44744,1.90464,-0.05221,1.18470,1.08666,-0.65076,-2.52983,1.20513,-1.54962,20.28110,6.25199,-4.31459,0.19628,-0.54475,-0.81408,0.04467,-22.48909,50.82249,-22.10184
-0.41017,1.92483,-0.06593,1.48397,1.15938,-0.71816,-2.95304,2.01219,-1.83082,23.35409,3.90558,-5.57651,0.15308,-0.57230,-0.80390,0.05277,-26.72466,57.94075,-22.09352
-0.36559,1.94389,-0.08251,1.82684,1.19995,-0.81268,-3.27355,2.79114,-2.54208,26.76650,1.31418,-8.14836,0.09693,-0.60068,-0.79209,0.04884,-24.81977,46.00957,-54.69712
-0.30781,1.95948,-0.10379,2.29603,1.18085,-0.95714,-3.67951,4.06595,-3.40181,32.81291,-4.45777,-10.34099,0.01629,-0.62908,-0.77559,0.04946,-25.06818,68.56037,-60.47255
-0.23737,1.96780,-0.12930,2.87425,1.05782,-1.14059,-4.16269,5.77990,-4.67334,40.19156,-12.44837,-14.63667,-0.09299,-0.65420,-0.74909,0.04729,-32.92170,75.62366,-93.12669
-0.16383,1.96803,-0.15801,3.37485,0.83937,-1.33305,-4.25469,7.87764,-5.65330,42.48057,-24.59224,-18.91471,-0.22036,-0.65909,-0.71660,0.05935,-16.89715,139.36350,-111.20980
-0.08461,1.95486,-0.19368,3.85472,0.47108,-1.58613,-3.95123,9.61900,-7.22621,38.37229,-38.70280,-22.96591,-0.36226,-0.64049,-0.67519,0.05154,-11.82796,128.67480,-153.50060
-0.00225,1.91117,-0.24731,4.30754,-0.29372,-2.06613,-3.58454,11.39398,-10.01267,18.29780,-58.23742,-34.59386,-0.53251,-0.58873,-0.60802,0.01203,-55.11390,78.22490,-180.08090
0.06248,1.85784,-0.30357,4.39047,-1.03661,-2.47971,-3.84424,11.96236,-12.20407,-3.53438,-66.46991,-33.71180,-0.66661,-0.53491,-0.51736,-0.04284,-109.78880,69.38804,-164.04160
0.10639,1.77643,-0.36755,4.13818,-2.00288,-2.90219,-3.82696,12.59671,-13.61778,-33.26637,-68.78038,-24.95736,-0.77978,-0.46099,-0.41574,-0.08116,-73.00733,63.17661,-97.78515
0.11141,1.67471,-0.42612,3.36328,-3.07060,-3.15707,-2.91544,12.46699,-14.48305,-61.14828,-59.61241,-5.01608,-0.86012,-0.36592,-0.33785,-0.11024,-31.90658,-17.81706,-64.13921
0.11195,1.59423,-0.46936,2.69764,-3.60365,-3.14055,-2.13170,11.79516,-14.69567,-70.27428,-45.81786,8.88429,-0.91221,-0.27594,-0.27150,-0.13421,-42.30959,-75.91377,-50.88269
0.06021,1.50432,-0.49002,1.41668,-4.15526,-2.80363,-2.75585,9.69847,-14.33160,-69.52206,-19.01913,28.39651,-0.92802,-0.22384,-0.22338,-0.19692,-83.67593,-47.14631,74.26815
0.01858,1.43731,-0.49753,0.50607,-4.27737,-2.33702,-4.12994,8.10070,-13.33775,-60.83374,-0.58329,38.26020,-0.92971,-0.19909,-0.16353,-0.26319,-86.99480,16.27289,136.15570
-0.02023,1.38095,-0.49756,-0.16122,-4.21596,-1.86243,-5.50792,7.08245,-12.12805,-51.83636,10.84551,41.01965,-0.92163,-0.18556,-0.09705,-0.32672,-65.73572,49.73995,160.19700
-0.10039,1.35725,-0.45141,-1.40011,-3.61030,-0.72660,-7.14045,6.01307,-9.69161,-33.04991,31.73352,32.12843,-0.89413,-0.20971,-0.04613,-0.39296,-25.36279,39.83395,86.89517
-0.16792,1.29266,-0.44055,-1.82297,-3.06290,-0.27397,-6.24116,5.73180,-9.27494,-20.10654,40.31864,24.03807,-0.88428,-0.12927,0.08018,-0.44149,45.01397,-32.06534,22.89323
-0.20461,1.28348,-0.42693,-1.98778,-2.56596,-0.01931,-5.13483,5.07557,-9.35105,-5.66951,43.59495,17.79125,-0.88415,-0.07252,0.11993,-0.44570,49.25167,-78.09470,-1.12062
-0.22891,1.29041,-0.41298,-1.93468,-1.94340,0.18270,-3.98684,3.02558,-9.39507,17.05643,45.52935,7.84518,-0.88420,0.00077,0.11196,-0.45348,-6.16510,-131.93450,15.45297
-0.22635,1.31166,-0.40647,-1.49154,-1.22896,0.23399,-3.13862,-0.40979,-8.39228,36.70433,41.40905,-0.95858,-0.87868,0.06486,0.03728,-0.47151,-73.71366,-219.70980,114.66050
-0.20679,1.32005,-0.40719,-0.89158,-0.85625,0.17072,-3.46200,-1.74989,-4.72103,60.58430,13.62139,-8.92193,-0.86055,0.02592,-0.02649,-0.50802,-92.99907,-98.21822,97.36534
-0.16350,1.32802,-0.42081,-0.08208,-0.56691,-0.06570,-1.02901,-0.59040,0.52887,59.81923,18.49807,-17.95541,-0.88352,-0.11826,-0.07053,-0.44769,197.50300,114.69140,448.56330
-0.10758,1.34368,-0.43849,0.75407,-0.21914,-0.31262,0.21805,0.96182,5.68895,45.54866,24.19838,-13.40873,-0.86425,-0.29533,-0.10410,-0.39373,47.98238,139.41950,335.90140
-0.06847,1.36107,-0.44912,1.17388,0.08061,-0.40600,1.00373,1.69683,8.37056,26.69172,27.93131,-4.49102,-0.83145,-0.41634,-0.13207,-0.34337,66.79240,82.50926,267.67660
-0.03478,1.38767,-0.45510,1.42423,0.44877,-0.41200,1.16833,2.26494,10.14913,10.04388,27.76535,2.33064,-0.78304,-0.52232,-0.15137,-0.30186,30.67963,61.48888,158.73270
-0.01314,1.42669,-0.45364,1.44695,0.93598,-0.30449,-0.52508,1.34072,10.16001,-2.09742,27.17033,4.72347,-0.72628,-0.57521,-0.17459,-0.33343,-72.15582,-132.51520,-24.60715
0.00156,1.46009,-0.45249,1.36289,1.24573,-0.22416,-0.25630,0.28716,10.34902,-9.56771,19.91454,5.57290,-0.68035,-0.62008,-0.22287,-0.32086,73.36902,-34.69283,29.74818
0.01149,1.49192,-0.45219,1.22751,1.46436,-0.17457,-0.10727,-0.12045,10.35966,-14.04020,16.42607,3.90325,-0.63368,-0.66305,-0.25604,-0.30538,41.08981,-27.32927,3.63372
0.01409,1.52493,-0.45178,1.01268,1.65186,-0.13365,0.02895,-0.22110,10.15911,-17.27631,10.78625,2.73558,-0.58969,-0.70093,-0.28033,-0.28701,16.65675,-2.06994,-9.83369
0.01142,1.55573,-0.45128,0.76345,1.76687,-0.09925,0.29860,-0.29205,9.81579,-18.60962,6.09690,2.06018,-0.54928,-0.73165,-0.30423,-0.26537,12.13713,6.65114,-23.30072
0.00451,1.58314,-0.45047,0.50344,1.80809,-0.06735,0.52948,-0.27225,9.39852,-18.92639,-0.03104,2.72672,-0.51145,-0.75767,-0.32482,-0.24258,20.82098,14.11560,-27.10941
-0.00351,1.60656,-0.44947,0.28445,1.78357,-0.03899,0.40938,-0.16042,8.97419,-18.16144,-4.65810,3.00184,-0.47243,-0.78321,-0.33546,-0.22551,-3.18779,7.30760,-33.13778
-0.01583,1.62489,-0.44771,0.05098,1.69014,-0.00550,-0.20209,-0.08281,8.38449,-15.32622,-8.84555,2.46992,-0.43382,-0.80754,-0.33210,-0.22223,-35.32822,-13.97006,-40.49703
-0.02852,1.63829,-0.44567,-0.14102,1.54561,0.02529,-0.55196,-0.20863,7.72603,-12.63714,-11.45604,1.40760,-0.39947,-0.82473,-0.33316,-0.22192,-27.26040,-27.61652,-44.21254
-0.04113,1.64720,-0.44371,-0.29302,1.36579,0.04920,-0.44434,-0.33356,6.96682,-9.56313,-13.63024,1.13707,-0.37517,-0.83388,-0.34188,-0.21683,7.93486,-9.88434,-53.15681
-0.05323,1.65233,-0.44188,-0.40698,1.16738,0.06688,-0.16473,-0.35605,6.22466,-6.82352,-14.63238,1.08915,-0.35701,-0.83953,-0.35295,-0.20773,19.04580,5.13713,-53.95789
-0.06588,1.64129,-0.44002,-0.51144,0.72910,0.08283,0.17545,-0.23196,4.76822,-0.42875,-14.40397,0.17420,-0.36182,-0.83580,-0.35997,-0.20235,7.84142,7.99036,-47.31805
-0.07995,1.65007,-0.43815,-0.50832,0.56256,0.07748,-0.09764,-0.22658,4.25592,1.21418,-14.01842,-0.17642,-0.31799,-0.85402,-0.36520,-0.19017,-10.04414,0.36839,-43.32591
-0.08522,1.64504,-0.43802,-0.48174,0.37952,0.06482,-0.59978,-0.26387,3.67633,2.49024,-12.49229,-1.16029,-0.30478,-0.86233,-0.35326,-0.19674,-34.84717,-16.03175,-41.99596
-0.08887,1.63735,-0.43802,-0.43717,0.19252,0.05225,-0.94486,-0.22208,3.07225,2.92961,-10.71577,-0.69789,-0.29695,-0.86887,-0.34087,-0.20173,-22.89777,-5.54848,-39.15130
-0.09252,1.63051,-0.43750,-0.40092,0.05328,0.04974,-1.06961,-0.14401,2.67024,2.59007,-9.28263,0.14687,-0.28822,-0.87488,-0.33271,-0.20205,-11.32740,0.93236,-31.49001
-0.09563,1.62300,-0.43628,-0.36426,-0.06728,0.05788,-1.07632,-0.08752,2.32603,2.78001,-7.88151,0.58538,-0.28083,-0.87952,-0.32703,-0.20159,-4.88344,0.45757,-25.49301
-0.09779,1.61505,-0.43452,-0.32118,-0.16967,0.07207,-0.98174,-0.00494,2.00985,3.37388,-6.82304,1.31328,-0.27600,-0.88284,-0.32365,-0.19919,7.10319,7.33903,-23.95869
-0.09933,1.60672,-0.43224,-0.27752,-0.25663,0.09076,-0.99385,-0.03765,1.72787,2.99134,-5.73670,1.70260,-0.27026,-0.88606,-0.31859,-0.20088,2.02025,-0.04405,-21.24426
