posX, posY, posZ, velX, velY, velZ, angVelX, angVelY, angVelZ, accX, accY, accZ, rotX, rotY, rotZ, rotW, angAccX, angAccY, angAccZ
-0.36592,1.60917,-0.41359,-0.19949,-0.01437,0.18735,0.71584,1.01181,-0.79197,0.73183,-0.53376,-0.47767,-0.01969,-0.90741,-0.41888,0.02763,4.89770,5.26295,-3.03025
-0.36809,1.60861,-0.41190,-0.19005,-0.01918,0.17586,0.67624,1.08857,-0.85126,0.64134,-0.35878,-1.07509,-0.03051,-0.90539,-0.42216,0.03345,-1.03496,6.68499,-4.43116
-0.37034,1.60802,-0.41089,-0.18366,-0.02348,0.15657,0.56693,1.10497,-0.87525,0.46741,-0.28328,-1.50735,-0.04004,-0.90447,-0.42294,0.03819,-6.44513,3.19843,-2.09605
-0.37264,1.60724,-0.41237,-0.17833,-0.03013,0.09965,0.09543,0.83122,-0.86564,0.14429,-0.12495,-1.87387,-0.04534,-0.90863,-0.41362,0.03531,-17.77716,-10.08146,1.49052
-0.37764,1.60633,-0.41145,-0.17773,-0.03068,0.07358,-0.18275,0.69833,-0.88742,-0.22334,0.02763,-1.38820,-0.06006,-0.91105,-0.40629,0.03622,-18.98018,-9.60184,-0.68632
-0.38045,1.60585,-0.41119,-0.18207,-0.03116,0.06334,-0.31836,0.69195,-0.89379,-0.71446,0.08437,-0.58487,-0.06794,-0.91284,-0.40087,0.03758,-14.23059,-2.07280,-0.19318
-0.38399,1.60540,-0.41031,-0.19662,-0.03117,0.06416,-0.36964,0.84396,-0.86229,-1.17837,0.23967,0.46979,-0.07676,-0.91360,-0.39684,0.04426,-3.97866,8.49319,1.58981
-0.38798,1.60518,-0.40859,-0.21504,-0.02775,0.07721,-0.33057,0.95077,-0.80369,-1.35849,0.43765,1.44044,-0.08435,-0.91328,-0.39520,0.05116,2.76485,10.00056,3.49800
-0.39216,1.60523,-0.40619,-0.23217,-0.02123,0.09732,-0.26022,0.97842,-0.74818,-1.27269,0.68267,2.03249,-0.09078,-0.91249,-0.39486,0.05658,5.10797,4.25461,4.52021
-0.39653,1.60567,-0.40287,-0.24857,-0.01011,0.12626,-0.19635,0.88082,-0.72359,-0.82350,0.80495,2.29258,-0.09611,-0.91174,-0.39511,0.05810,5.48382,-3.99557,2.95345
-0.40080,1.60666,-0.39878,-0.25972,0.00715,0.16023,-0.17686,0.67273,-0.78372,-0.51870,1.18133,2.05005,-0.10219,-0.91144,-0.39479,0.05445,0.71737,-13.51705,-2.62787
-0.40473,1.60765,-0.39519,-0.26409,0.02045,0.17997,-0.18651,0.55481,-0.85508,-0.46523,1.35487,1.91667,-0.10970,-0.91124,-0.39361,0.05174,-0.98007,-13.21985,-6.01344
-0.40902,1.60945,-0.39049,-0.27216,0.04303,0.21185,-0.14093,0.51782,-1.00058,-0.97240,1.63466,1.79799,-0.12060,-0.90982,-0.39399,0.04950,0.21672,-7.41060,-8.77592
-0.41402,1.61160,-0.38514,-0.28852,0.06708,0.24819,0.08122,0.91353,-1.13715,-1.59365,1.56331,2.15744,-0.13745,-0.90475,-0.39856,0.06067,12.83219,19.64667,-9.62160
-0.41912,1.61341,-0.38005,-0.30327,0.08039,0.27245,0.27566,1.25423,-1.19310,-1.45636,1.40657,2.44819,-0.15311,-0.89908,-0.40342,0.07385,19.99025,32.66779,-8.31033
-0.42504,1.61592,-0.37367,-0.32768,0.10070,0.30935,0.54783,1.64810,-1.25466,-1.42066,1.21920,2.36173,-0.17077,-0.89071,-0.41125,0.09132,19.65959,25.58006,-5.54920
-0.43109,1.61839,-0.36721,-0.34923,0.11644,0.34002,0.75739,1.88154,-1.26828,-1.37782,1.04936,2.19063,-0.18607,-0.88243,-0.41874,0.10654,16.68191,17.23405,-2.86125
-0.43751,1.62117,-0.36028,-0.37234,0.13409,0.37214,0.94420,1.98700,-1.20833,-0.87878,0.89296,1.53021,-0.19800,-0.87418,-0.42676,0.12032,12.34572,5.96582,1.51222
-0.44343,1.62372,-0.35415,-0.38310,0.14463,0.38567,0.98347,1.94311,-1.11939,-0.65958,0.77444,0.97272,-0.20723,-0.86804,-0.43196,0.13028,6.33067,-2.36071,5.42936
-0.44928,1.62632,-0.34812,-0.39058,0.15393,0.39466,0.96036,1.82794,-0.96794,-0.15592,0.47088,0.48475,-0.21302,-0.86342,-0.43577,0.13871,0.81886,-6.95986,9.17514
-0.45474,1.62875,-0.34252,-0.39144,0.15889,0.39642,0.87604,1.60623,-0.82405,0.32943,0.19129,0.00352,-0.21632,-0.86062,-0.43825,0.14311,-4.42580,-14.42811,11.42066
-0.45960,1.63094,-0.33755,-0.38269,0.15899,0.38785,0.64662,1.19404,-0.62479,1.05123,-0.29877,-0.92995,-0.21438,-0.86198,-0.43728,0.14079,-13.57763,-25.89650,12.98066
-0.46369,1.63285,-0.33295,-0.36420,0.15495,0.37545,0.49518,0.99447,-0.53610,1.58254,-0.33739,-1.29723,-0.21621,-0.86180,-0.43654,0.14135,-15.44663,-23.34513,9.96586
-0.46670,1.63430,-0.32871,-0.33423,0.14499,0.36097,0.48657,1.05416,-0.49501,2.02837,-0.75882,-1.24915,-0.22154,-0.85866,-0.43763,0.14865,-4.01858,-1.31288,4.32847
-0.46827,1.63519,-0.32511,-0.28826,0.12840,0.33937,0.62474,1.33132,-0.47748,2.73232,-0.94933,-1.38735,-0.22999,-0.85188,-0.44127,0.16336,8.35515,15.59923,0.41654
-0.47018,1.63611,-0.32161,-0.25632,0.11530,0.32060,0.66382,1.40388,-0.45093,3.04730,-1.35599,-1.55334,-0.23633,-0.84677,-0.44384,0.17360,7.21196,12.68332,1.40710
-0.47118,1.63653,-0.31899,-0.21810,0.09783,0.29297,0.58543,1.21958,-0.39307,3.05937,-1.41710,-2.05410,-0.23864,-0.84493,-0.44490,0.17666,-3.31298,-8.96707,3.39630
-0.47194,1.63679,-0.31678,-0.18473,0.08176,0.26537,0.44450,0.91078,-0.33189,2.95023,-1.52673,-2.35534,-0.23843,-0.84547,-0.44484,0.17449,-9.84454,-21.20028,5.28107
-0.47172,1.63639,-0.31595,-0.14383,0.05949,0.22283,0.21153,0.40421,-0.28822,2.32241,-1.18675,-2.99869,-0.23507,-0.84934,-0.44336,0.16366,-15.43545,-32.66184,3.19417
-0.47211,1.63615,-0.31620,-0.11274,0.04603,0.18038,0.10264,0.22587,-0.28268,1.71225,-0.56118,-3.27027,-0.23550,-0.85048,-0.44254,0.15934,-11.83679,-20.54659,0.69935
-0.47316,1.63598,-0.31732,-0.09084,0.03841,0.14195,0.11308,0.26958,-0.29284,1.76769,-0.33442,-3.27044,-0.23863,-0.84892,-0.44326,0.16095,-1.38813,-0.21097,0.28707
-0.47396,1.63611,-0.31943,-0.06826,0.03744,0.09970,0.26228,0.56535,-0.31235,1.32157,0.49260,-2.81746,-0.24530,-0.84358,-0.44603,0.17107,6.83386,14.88308,-2.17673
-0.47357,1.63701,-0.32111,-0.04435,0.04435,0.05794,0.39035,0.80783,-0.30223,2.14665,0.35944,-2.41463,-0.25131,-0.83797,-0.44875,0.18240,12.84339,22.29501,1.28422
-0.47276,1.63850,-0.32257,-0.02247,0.05797,0.02237,0.30117,0.70101,-0.30406,1.71458,1.20502,-2.44080,-0.25408,-0.83718,-0.44839,0.18309,-4.53906,-5.73868,-0.22032
-0.47168,1.64078,-0.32429,-0.00124,0.08032,-0.00952,0.11379,0.46989,-0.30460,1.55976,1.82122,-1.99762,-0.25532,-0.83906,-0.44593,0.17869,-11.92754,-13.81641,0.03221
-0.47039,1.64413,-0.32599,0.01828,0.11423,-0.03351,-0.05450,0.21281,-0.29630,0.91644,2.55532,-1.05210,-0.25533,-0.84176,-0.44343,0.17210,-12.66904,-17.72116,0.47802
-0.46938,1.64777,-0.32673,0.02965,0.14519,-0.03854,-0.07363,0.11515,-0.27651,0.73012,2.94482,0.03650,-0.25590,-0.84219,-0.44321,0.16967,-5.63973,-10.58738,1.18399
-0.46836,1.65205,-0.32656,0.03848,0.17854,-0.02906,0.02205,0.08131,-0.25077,0.53300,3.10560,1.33881,-0.25613,-0.84079,-0.44578,0.16955,3.59500,-5.08227,2.14237
-0.46724,1.65772,-0.32456,0.04669,0.22499,0.00585,0.33205,0.11224,-0.20466,0.41194,3.14411,2.81089,-0.25511,-0.83565,-0.45443,0.17348,17.37918,0.84533,3.12260
-0.46612,1.66364,-0.32131,0.05324,0.26647,0.05226,0.71533,0.23702,-0.17954,0.22369,3.09305,3.66569,-0.25511,-0.82760,-0.46601,0.18119,25.86439,6.11312,1.73833
-0.46503,1.67013,-0.31692,0.05824,0.30752,0.10571,1.08921,0.29046,-0.11931,0.78289,2.74744,4.03818,-0.25285,-0.81870,-0.47966,0.18898,30.06806,9.05088,3.98126
-0.46387,1.67708,-0.31186,0.06309,0.34659,0.15820,1.27118,0.07260,-0.04742,0.46835,2.46740,3.71650,-0.24655,-0.81331,-0.49206,0.18872,16.57943,-11.70372,3.34669
-0.46268,1.68441,-0.30651,0.06731,0.38331,0.20406,1.32759,-0.21227,0.01855,0.11941,2.49000,2.94260,-0.23862,-0.81007,-0.50278,0.18455,5.67087,-22.53310,2.81079
-0.46157,1.69206,-0.30110,0.06951,0.41678,0.24134,1.34602,-0.37768,0.06669,-0.12101,2.20221,2.35587,-0.23186,-0.80675,-0.51220,0.18181,1.81631,-14.69251,2.43120
-0.46058,1.69956,-0.29585,0.06932,0.44052,0.26807,1.37234,-0.40775,0.10490,-0.16643,1.82974,2.08265,-0.22664,-0.80253,-0.52100,0.18203,1.35922,-6.23969,2.22674
-0.45957,1.70751,-0.28968,0.06922,0.46594,0.30290,1.48316,-0.35011,0.11811,-0.34354,1.34305,2.23911,-0.22267,-0.79602,-0.53157,0.18492,4.82841,1.37675,1.30203
-0.45879,1.71486,-0.28326,0.06605,0.47779,0.33469,1.71191,-0.17169,0.10823,-0.42870,0.80267,2.15026,-0.22057,-0.78576,-0.54494,0.19227,14.65257,10.91354,1.53931
-0.45819,1.72233,-0.27630,0.05985,0.48813,0.36724,1.98828,0.07406,0.12978,-0.36592,0.26251,1.84648,-0.21881,-0.77302,-0.55959,0.20353,18.77627,16.68959,3.18278
-0.45772,1.72966,-0.26967,0.05313,0.49493,0.38873,2.09987,0.08675,0.14644,-0.14928,0.29427,0.92669,-0.21462,-0.76313,-0.57261,0.20903,9.60902,3.47665,1.77843
-0.45719,1.73702,-0.26363,0.04866,0.50132,0.39723,2.06588,0.01724,0.17324,-0.43469,0.41314,0.61708,-0.20945,-0.75607,-0.58285,0.21161,-1.21710,-5.15903,0.44437
-0.45672,1.74450,-0.25733,0.04215,0.50617,0.40549,2.01481,-0.09590,0.22063,-0.47251,0.18345,0.48893,-0.20261,-0.74991,-0.59265,0.21295,-3.51142,-7.88924,2.20313
-0.45636,1.75175,-0.25106,0.03613,0.50765,0.41233,1.96106,-0.21619,0.26045,-0.63637,-0.02418,0.62869,-0.19516,-0.74418,-0.60215,0.21337,-4.57981,-9.96026,1.63211
-0.45652,1.75860,-0.24438,0.02444,0.50273,0.42447,1.94277,-0.37472,0.35265,-0.88131,-0.56801,0.72424,-0.18467,-0.73864,-0.61218,0.21341,-1.37348,-11.22714,3.73066
-0.45683,1.76503,-0.23788,0.01239,0.49280,0.43172,1.94216,-0.46381,0.46706,-0.90484,-0.76065,0.19563,-0.17373,-0.73262,-0.62186,0.21533,0.41037,-7.69961,6.14984
-0.45708,1.77141,-0.23185,0.00436,0.48462,0.43063,1.89535,-0.56539,0.56405,-0.39187,-0.86180,-0.44005,-0.16223,-0.72767,-0.63039,0.21632,-1.68307,-8.30883,8.11843
-0.45693,1.77749,-0.22667,0.00429,0.47414,0.41768,1.74662,-0.68290,0.62328,0.39105,-0.70623,-1.18495,-0.15114,-0.72514,-0.63639,0.21529,-8.64519,-9.69171,3.44618
-0.45600,1.78351,-0.22197,0.01552,0.46419,0.39963,1.56836,-0.74599,0.56895,1.01402,-0.94565,-1.41651,-0.14366,-0.72294,-0.64145,0.21274,-12.22662,-4.78602,-3.07060
-0.45477,1.78918,-0.21751,0.02889,0.45166,0.38239,1.43886,-0.75240,0.48746,1.07799,-1.16215,-1.52685,-0.13803,-0.72001,-0.64671,0.21048,-11.58505,-2.50540,-7.68271
-0.45309,1.79419,-0.21344,0.04579,0.43214,0.36330,1.33963,-0.70451,0.39413,1.07287,-1.61081,-1.22975,-0.13423,-0.71648,-0.65190,0.20895,-8.35494,3.50099,-6.89135
-0.45137,1.79816,-0.20965,0.05948,0.40128,0.34363,1.27129,-0.68265,0.31231,0.64109,-2.07710,-1.30267,-0.13020,-0.71270,-0.65748,0.20695,-3.87896,2.53478,-5.72552
-0.45009,1.80234,-0.20577,0.06475,0.38054,0.32992,1.23563,-0.68594,0.29407,0.41084,-2.09855,-1.43438,-0.12435,-0.70885,-0.66322,0.20546,-3.61427,-0.19547,-3.99153
-0.44955,1.80528,-0.20296,0.06925,0.34505,0.30850,1.21859,-0.64033,0.29818,0.36039,-2.45250,-1.29599,-0.11903,-0.70450,-0.66873,0.20567,-1.95186,2.47239,0.80992
-0.44940,1.80740,-0.20094,0.07530,0.30144,0.28193,1.20133,-0.58207,0.23642,0.63653,-2.49470,-1.65063,-0.11566,-0.69968,-0.67458,0.20500,-0.51741,2.38076,-3.33443
-0.44828,1.80988,-0.19858,0.08363,0.27420,0.26133,1.17474,-0.51247,0.16888,0.87795,-2.26584,-1.77795,-0.11334,-0.69487,-0.68011,0.20435,-1.58443,5.69004,-4.51831
-0.44658,1.81180,-0.19664,0.09389,0.24406,0.23638,1.12004,-0.43608,0.08030,0.67751,-2.18622,-1.91468,-0.11268,-0.69051,-0.68497,0.20327,-3.13750,6.91564,-6.38769
-0.44506,1.81346,-0.19522,0.09973,0.21597,0.20846,1.05153,-0.36413,0.02844,0.26748,-1.95015,-2.17721,-0.11199,-0.68669,-0.68909,0.20267,-4.50214,5.17279,-5.01805
-0.44366,1.81487,-0.19430,0.10159,0.19076,0.17922,0.96265,-0.29323,0.03005,-0.00348,-1.74454,-1.99971,-0.11085,-0.68376,-0.69201,0.20325,-6.23348,5.52585,-0.54816
-0.44245,1.81591,-0.19356,0.09849,0.16703,0.15346,0.86534,-0.26092,0.05792,-0.36845,-1.68869,-1.70201,-0.10872,-0.68173,-0.69420,0.20374,-6.59596,2.73169,1.72872
-0.44152,1.81670,-0.19295,0.09185,0.14431,0.13085,0.76715,-0.26344,0.10334,-0.48499,-1.54211,-1.53389,-0.10551,-0.68044,-0.69587,0.20405,-6.51795,-0.00515,3.26615
-0.44072,1.81732,-0.19268,0.08483,0.12365,0.10759,0.63176,-0.30256,0.14606,-0.28194,-1.19579,-1.39672,-0.10171,-0.68071,-0.69634,0.20344,-7.95361,-2.03124,2.60581
-0.43967,1.81821,-0.19225,0.08287,0.11118,0.09174,0.50936,-0.35082,0.13797,0.08961,-0.97598,-1.22908,-0.09858,-0.68131,-0.69679,0.20145,-9.74705,-3.29950,1.07548
-0.43834,1.81910,-0.19186,0.08552,0.10173,0.07875,0.37059,-0.40011,0.10418,0.36627,-0.72363,-0.88816,-0.09609,-0.68295,-0.69643,0.19833,-11.04381,-4.93507,-2.48668
-0.43677,1.81980,-0.19109,0.09104,0.09137,0.07450,0.24520,-0.44247,0.05879,0.28462,-0.71288,0.46184,-0.09410,-0.68498,-0.69577,0.19455,-10.66540,-3.86250,-4.68198
-0.43521,1.81993,-0.18893,0.09587,0.07546,0.09159,0.25973,-0.39897,0.04442,0.21269,-1.22112,2.01762,-0.09263,-0.68378,-0.69741,0.19362,-1.66651,1.92817,-1.17007
-0.43380,1.81976,-0.18565,0.09735,0.05851,0.12045,0.35239,-0.36226,0.04093,0.02495,-1.35164,2.86881,-0.09046,-0.68053,-0.70097,0.19325,6.20522,3.91879,-0.39102
-0.43267,1.81916,-0.18048,0.09465,0.03900,0.17027,0.48438,-0.36478,0.05370,-0.23451,-1.03302,3.41910,-0.08673,-0.67607,-0.70590,0.19267,8.08530,0.01329,0.59491
-0.43167,1.81886,-0.17481,0.09104,0.02733,0.21826,0.58049,-0.38284,0.07321,-0.21125,-0.64728,3.51227,-0.08245,-0.67199,-0.71050,0.19186,7.13928,-1.47145,1.43200
-0.43055,1.81875,-0.16827,0.09000,0.02056,0.26917,0.63900,-0.37575,0.09554,0.08115,-0.46502,3.87588,-0.07864,-0.66824,-0.71453,0.19164,4.74661,-0.24366,1.94457
-0.42899,1.81849,-0.16003,0.09469,0.01274,0.33469,0.70927,-0.36368,0.06401,0.50616,-0.59382,4.42383,-0.07600,-0.66367,-0.71936,0.19051,4.86680,1.39655,-0.67899
-0.42730,1.81711,-0.14705,0.10025,-0.01302,0.46945,0.98890,-0.28307,0.01318,-0.16510,-1.17496,5.79534,-0.07413,-0.65404,-0.72834,0.19040,12.50006,3.41267,-0.90891
-0.42451,1.81542,-0.12755,0.10019,-0.03215,0.56191,1.24737,-0.13171,0.06040,0.13136,-1.17166,5.83065,-0.06940,-0.63720,-0.74256,0.19434,16.80135,9.85750,4.94274
-0.42300,1.81408,-0.11499,0.10178,-0.04495,0.63017,1.42207,-0.04974,0.05842,0.26693,-1.04036,5.65685,-0.06765,-0.62582,-0.75165,0.19695,15.32270,7.65016,1.88011
-0.42127,1.81266,-0.10074,0.10636,-0.05613,0.70815,1.58193,0.00480,0.02755,0.49875,-0.69064,5.61563,-0.06619,-0.61371,-0.76128,0.19858,12.37771,4.98476,-1.22003
-0.41927,1.81120,-0.08466,0.11377,-0.06594,0.79730,1.78701,0.08760,0.02641,0.43952,-0.56998,5.61002,-0.06465,-0.59921,-0.77207,0.20168,12.72682,5.28026,-0.86295
-0.41735,1.80983,-0.06896,0.11862,-0.07233,0.86334,1.92485,0.08298,0.00600,0.52695,-0.62051,5.57282,-0.06189,-0.58563,-0.78237,0.20272,13.06773,4.21558,1.69944
-0.41568,1.80834,-0.05236,0.11886,-0.07919,0.92777,2.03557,-0.02894,-0.03288,-0.23032,-0.58862,5.37500,-0.05671,-0.57256,-0.79293,0.20057,8.96528,-6.23417,-5.36939
-0.41466,1.80645,-0.03308,0.10958,-0.09032,1.01711,2.19465,-0.21366,0.03720,-0.71020,-0.62860,4.59327,-0.04628,-0.55819,-0.80414,0.19912,9.56128,-10.33286,1.68786
-0.41383,1.80450,-0.01488,0.09955,-0.10032,1.07556,2.27238,-0.38328,0.12959,-0.61366,-0.88092,3.84721,-0.03496,-0.54525,-0.81375,0.19825,6.69304,-11.80635,5.32538
-0.41287,1.80234,0.00306,0.09356,-0.11145,1.11859,2.29696,-0.57382,0.16335,-0.10931,-1.19293,3.39568,-0.02310,-0.53350,-0.82267,0.19510,3.07963,-15.47953,3.10933
-0.41146,1.79934,0.02221,0.09524,-0.13208,1.16819,2.28809,-0.87467,0.02656,0.56876,-1.53249,2.89261,-0.01055,-0.52299,-0.83209,0.18438,-0.02147,-17.36496,-9.83880
-0.40917,1.79569,0.04130,0.10964,-0.15894,1.21027,2.31546,-1.07007,-0.15564,1.11528,-1.91259,2.38162,-0.00044,-0.51097,-0.84207,0.17269,1.77106,-12.45405,-13.83053
-0.40635,1.79127,0.06010,0.12906,-0.19213,1.23945,2.41087,-1.11756,-0.25455,1.42753,-2.70000,1.75447,0.00812,-0.49609,-0.85253,0.16439,5.60610,-4.23454,-8.71744
-0.40320,1.78611,0.07855,0.14895,-0.22877,1.25697,2.53478,-1.06916,-0.30915,1.63164,-3.30019,1.14834,0.01507,-0.47908,-0.86326,0.15824,9.12374,1.58586,-4.85467
-0.39922,1.77890,0.09668,0.17691,-0.28799,1.26580,2.79561,-0.85700,-0.27397,1.55082,-3.93260,-0.11021,0.01953,-0.45613,-0.87569,0.15727,15.68147,10.73333,3.68944
-0.39520,1.77102,0.11374,0.20014,-0.34589,1.25787,3.07108,-0.57086,-0.13757,1.50354,-4.17452,-1.03735,0.02286,-0.43034,-0.88786,0.16120,18.95378,16.88198,13.07097
-0.39130,1.76286,0.13021,0.21636,-0.39474,1.24174,3.31020,-0.34039,0.02289,1.10888,-3.93291,-1.69333,0.02688,-0.40328,-0.89939,0.16655,19.44401,16.95685,16.74019
-0.38728,1.75334,0.14505,0.23095,-0.45371,1.20632,3.56148,-0.09076,0.31269,0.78976,-3.53549,-2.61086,0.03174,-0.37352,-0.90992,0.17754,16.56541,12.73448,23.44842
-0.38374,1.74442,0.15954,0.23556,-0.49144,1.17176,3.68616,-0.01786,0.45033,0.32969,-3.02114,-3.11356,0.03823,-0.34636,-0.91916,0.18360,12.58368,6.30123,16.28639
-0.38055,1.73507,0.17258,0.23414,-0.52748,1.12460,3.74258,-0.07709,0.50044,-0.12848,-2.48737,-3.71976,0.04702,-0.32100,-0.92744,0.18604,6.21216,-3.09256,5.79258
-0.37785,1.72561,0.18452,0.22604,-0.55804,1.07140,3.71998,-0.25733,0.32677,-0.55014,-2.24754,-4.05155,0.05643,-0.29867,-0.93552,0.18006,0.25009,-8.71977,-9.20053
-0.37604,1.71585,0.19468,0.20637,-0.58714,1.00195,3.63066,-0.57169,-0.11686,-1.52289,-1.68580,-4.64023,0.06667,-0.27971,-0.94388,0.16249,-4.13986,-11.58462,-30.90971
-0.37434,1.70657,0.20540,0.18937,-0.60268,0.95487,3.57835,-0.76013,-0.37323,-2.02111,-1.33690,-4.85467,0.07663,-0.25953,-0.95119,0.14838,-4.92780,-11.56110,-33.83480
-0.37376,1.69691,0.21384,0.16048,-0.62043,0.88718,3.50897,-1.01800,-0.61523,-2.39351,-1.12737,-4.89056,0.08960,-0.24094,-0.95742,0.13142,-4.65923,-12.02004,-24.63185
-0.37415,1.68677,0.22051,0.12349,-0.64194,0.80697,3.50533,-1.32198,-0.77340,-2.31819,-1.48520,-4.98725,0.10652,-0.22094,-0.96265,0.11463,-1.83296,-15.71827,-13.95520
-0.37436,1.67654,0.22750,0.09614,-0.65993,0.74659,3.55608,-1.56297,-0.97952,-2.02239,-1.63089,-5.15270,0.12292,-0.19883,-0.96763,0.09513,3.83468,-16.40940,-17.96576
-0.37490,1.66620,0.23318,0.07030,-0.67568,0.68172,3.61767,-1.78491,-1.31830,-1.90332,-1.14579,-5.66639,0.13864,-0.17631,-0.97207,0.06911,6.94695,-12.22329,-27.08469
-0.37622,1.65621,0.23420,0.03837,-0.68372,0.56193,3.72840,-1.99936,-2.11563,-1.35991,0.46958,-6.57050,0.15085,-0.15310,-0.97630,0.02518,10.23630,-0.80489,-42.84962
-0.37667,1.64797,0.23529,0.02386,-0.66393,0.46233,3.79191,-2.13888,-2.23512,-1.75003,3.25531,-7.54918,0.16621,-0.12876,-0.97765,-0.00099,10.90170,-1.43276,-24.92725
-0.37679,1.64114,0.23653,0.01751,-0.62928,0.38804,3.71704,-2.30683,-2.00865,-0.41401,4.57337,-7.83313,0.18589,-0.10762,-0.97653,-0.01589,-5.69815,-18.97719,9.04390
-0.37621,1.63930,0.23270,0.02265,-0.52993,0.25647,3.38921,-2.47915,-1.63091,0.79220,6.55288,-6.99908,0.20753,-0.09464,-0.97337,-0.02296,-22.11723,-11.43302,15.02933
-0.37482,1.63857,0.23020,0.03867,-0.43176,0.16742,3.00365,-2.49073,-1.57540,2.18313,7.29832,-6.41389,0.22326,-0.08617,-0.97025,-0.03665,-27.98899,-6.22871,7.52758
-0.37228,1.64010,0.22732,0.06824,-0.32088,0.09120,2.57701,-2.23259,-1.72984,2.46462,8.49198,-4.84287,0.22888,-0.08260,-0.96839,-0.05489,-25.67215,21.90498,-14.55172
-0.36840,1.64391,0.22525,0.11155,-0.19936,0.04276,2.06011,-1.84633,-1.78814,3.78005,9.26907,-2.47731,0.22912,-0.08464,-0.96726,-0.06892,-29.73803,27.68808,-5.24880
-0.36304,1.64976,0.22468,0.16742,-0.07286,0.02608,1.42498,-1.29972,-1.76703,4.18553,9.17763,-0.50241,0.22206,-0.09395,-0.96733,-0.07830,-39.46597,42.67475,-0.24720
-0.35662,1.65719,0.22545,0.22723,0.05062,0.03245,0.76356,-0.70980,-1.61458,3.93230,8.93013,1.23148,0.21067,-0.10792,-0.96815,-0.08154,-41.43935,48.21686,5.30813
-0.34989,1.66561,0.22713,0.27938,0.16324,0.05052,0.07205,-0.27919,-1.22083,3.14561,7.41536,1.42922,0.20204,-0.12570,-0.96841,-0.07458,-47.97566,37.55808,26.87393
-0.34358,1.67407,0.22875,0.31423,0.25318,0.06359,-0.46344,0.05333,-0.87226,1.74004,5.21346,0.75009,0.19396,-0.14283,-0.96827,-0.06651,-40.87640,29.98670,25.43337
-0.33819,1.68185,0.22962,0.32875,0.31493,0.06325,-0.75614,0.35361,-0.77631,0.53177,3.00815,-0.20407,0.18384,-0.15679,-0.96819,-0.06502,-24.61093,23.03945,13.18499
-0.33386,1.68848,0.23001,0.32506,0.34696,0.05610,-0.83173,0.57155,-0.78461,-0.98287,2.12312,-0.62019,0.17360,-0.16606,-0.96835,-0.06768,-9.43359,21.35385,-3.45035
-0.33096,1.69517,0.22980,0.30133,0.37345,0.04189,-0.86476,0.76754,-0.66761,-2.13174,1.23160,-0.84639,0.16319,-0.17357,-0.96895,-0.06623,-0.88211,13.29667,6.19175
-0.32982,1.70120,0.22981,0.25578,0.38568,0.03356,-0.87085,0.88126,-0.50845,-3.54197,0.32585,-0.22916,0.15459,-0.17991,-0.96941,-0.06300,0.41335,8.92052,9.18249
-0.32950,1.70646,0.23011,0.20765,0.38357,0.03102,-0.88087,0.89254,-0.34870,-5.06690,-0.26756,-0.01189,0.14878,-0.18614,-0.96939,-0.05919,0.80645,4.30142,6.25475
-0.33164,1.71029,0.23035,0.13420,0.36135,0.02824,-0.91852,0.61010,0.29998,-6.02136,-2.28225,0.02494,0.15567,-0.18976,-0.96862,-0.03919,-2.86469,-12.15547,44.93801
-0.33678,1.71220,0.23037,0.03048,0.31507,0.02265,-0.77198,0.28810,0.77186,-6.85520,-4.05934,-0.56995,0.16524,-0.18777,-0.96796,-0.02224,7.55569,-18.90093,35.63633
-0.34345,1.71291,0.22945,-0.07583,0.25970,0.00397,-0.41353,0.02704,0.69414,-7.65090,-5.09451,-1.64997,0.17206,-0.18060,-0.96816,-0.02137,23.58540,-18.39362,10.84888
-0.35137,1.71275,0.22769,-0.17693,0.20414,-0.02284,0.02872,-0.32457,0.72085,-9.48438,-3.86941,-2.00726,0.18372,-0.16728,-0.96843,-0.02025,40.04810,-18.26045,-21.78673
-0.36342,1.71104,0.22488,-0.31842,0.13756,-0.05980,0.44792,-1.04847,1.12590,-9.35755,-3.63234,-2.46673,0.21202,-0.14874,-0.96584,-0.00910,29.22393,-40.98261,26.84254
-0.37642,1.70990,0.22147,-0.44592,0.09206,-0.09828,0.78900,-1.80628,1.23211,-8.41325,-3.45506,-3.05599,0.24483,-0.13119,-0.96063,-0.00581,25.86739,-54.55526,17.71308
-0.38861,1.70944,0.21769,-0.53248,0.06695,-0.13332,1.06505,-2.31257,1.05960,-8.54214,-2.27146,-4.13127,0.27336,-0.11499,-0.95495,-0.01096,31.94561,-47.39376,-9.11798
-0.40532,1.70847,0.20988,-0.66514,0.04030,-0.21903,1.49876,-3.29260,0.76998,-7.46648,-1.67618,-6.47024,0.31980,-0.09190,-0.94267,-0.02547,30.07289,-61.06088,-7.54693
-0.42226,1.70872,0.19827,-0.77679,0.03615,-0.34519,2.24148,-4.00357,-0.45831,-5.06231,-0.21903,-9.29201,0.35761,-0.06430,-0.92867,-0.07455,56.78492,-40.97717,-60.40852
-0.43676,1.71032,0.18532,-0.83027,0.05253,-0.46479,3.04873,-4.34241,-1.65980,-2.83731,2.23107,-10.69758,0.38534,-0.03232,-0.91271,-0.13203,87.08408,-20.79960,-78.81927
-0.44963,1.71506,0.16835,-0.84875,0.11117,-0.61661,4.12108,-4.50194,-3.18824,0.59879,6.11598,-11.43888,0.40394,0.00772,-0.88992,-0.21171,106.42100,-8.00699,-83.81240
-0.45887,1.72386,0.14859,-0.81021,0.21653,-0.77758,5.05411,-4.61131,-4.21583,4.85131,10.23885,-11.86875,0.41969,0.05106,-0.86026,-0.28498,95.14919,-6.40044,-62.05834
-0.46428,1.73612,0.12871,-0.72618,0.34836,-0.90584,5.43271,-4.74292,-4.38007,7.73484,14.43450,-9.96251,0.43863,0.08932,-0.83011,-0.33249,63.47882,-9.21528,-23.69393
-0.46308,1.75667,0.10782,-0.56526,0.57218,-1.02215,4.84252,-5.23264,-3.80097,11.84435,16.00282,-4.78613,0.47650,0.10978,-0.80049,-0.34657,-48.05282,-33.15835,8.67676
-0.45928,1.77950,0.09187,-0.39687,0.78564,-1.04500,3.72740,-5.67977,-2.63791,14.29088,18.77265,0.89401,0.52083,0.12155,-0.77736,-0.33118,-78.88288,-33.35942,26.36587
-0.45009,1.80845,0.08112,-0.18223,1.04753,-0.98858,0.55535,-5.92716,-2.17556,14.15590,12.64818,5.43633,0.58062,0.05897,-0.75584,-0.29683,-211.67580,17.09453,-70.65501
-0.44152,1.83378,0.07263,-0.02025,1.20416,-0.91201,-0.36028,-5.18490,-2.29089,15.33861,9.93799,6.65299,0.59985,0.03027,-0.74162,-0.29877,-113.89880,46.25476,-34.10462
-0.42803,1.86068,0.06610,0.17735,1.34826,-0.82324,-0.78988,-4.12767,-2.49465,14.09669,8.81713,6.24639,0.60341,0.00424,-0.73502,-0.30924,-10.83327,83.92380,-31.94535
-0.41134,1.88723,0.06063,0.38121,1.45936,-0.73722,-1.13477,-3.22158,-2.45082,14.29644,7.76084,6.39039,0.60537,-0.01879,-0.73152,-0.31313,-7.96210,67.74657,-9.50520
-0.39275,1.91414,0.05664,0.57146,1.55440,-0.64770,-1.97727,-2.51455,-2.38642,13.06970,7.17055,6.32931,0.61242,-0.05676,-0.72722,-0.30473,-37.61056,62.92706,-9.41918
-0.37188,1.94221,0.05393,0.75609,1.64565,-0.55707,-2.90143,-1.82190,-2.45910,13.29083,6.23257,6.58488,0.61772,-0.10521,-0.72201,-0.29333,-59.26978,56.99953,-20.74364
-0.34848,1.97118,0.05236,0.94021,1.73201,-0.46865,-3.62731,-1.02981,-2.72859,14.03470,5.95229,6.08732,0.61506,-0.15931,-0.71718,-0.28631,-41.75080,56.14720,-37.10700
-0.32176,2.00147,0.05106,1.13509,1.82071,-0.39441,-4.11042,-0.21144,-3.16402,14.20198,6.21377,4.69331,0.60444,-0.21650,-0.71179,-0.28484,-30.18153,59.34095,-42.31192
-0.29356,2.03274,0.04875,1.31043,1.90499,-0.35012,-3.99353,0.41813,-3.87684,15.74115,6.23217,3.25897,0.58693,-0.26717,-0.70206,-0.30207,1.20183,38.42905,-64.32629
-0.27000,2.05975,0.05008,1.55036,2.00754,-0.31889,-3.19075,0.98117,-4.98423,19.12695,6.56297,2.28625,0.55584,-0.31035,-0.68890,-0.34661,47.37032,7.62423,-83.91961
-0.23718,2.09323,0.05579,1.90332,2.13232,-0.27728,-1.62671,1.58706,-6.67005,26.21460,8.30898,3.54868,0.50121,-0.34510,-0.66993,-0.42530,89.25581,-24.37287,-112.78550
-0.19618,2.12857,0.06308,2.24076,2.22914,-0.22662,-0.95132,2.06850,-7.99188,30.83983,9.11011,4.33602,0.44623,-0.39127,-0.64136,-0.48625,75.99501,-15.33605,-130.22130
-0.11484,2.17104,0.06962,2.85012,2.33345,-0.09513,-0.72736,3.98368,-9.97608,46.90011,5.51269,9.27737,0.33782,-0.47319,-0.60993,-0.53848,47.68892,61.00522,-113.80670
-0.00081,2.21145,0.06988,3.56560,2.36205,0.03952,-1.50451,6.48716,-12.64819,58.61844,-1.65601,6.36262,0.19234,-0.59159,-0.54106,-0.56594,27.46070,145.49660,-195.08040
0.13073,2.23195,0.07108,4.48368,2.16968,0.08154,-3.61188,10.53856,-15.56671,75.01523,-28.86043,-6.37299,-0.00511,-0.74146,-0.42248,-0.52127,-3.43877,261.79820,-255.39420
0.28994,2.19226,0.04978,5.68785,1.17538,-0.23144,-2.84931,17.65132,-17.15642,67.66932,-94.04209,-36.08578,-0.30731,-0.80839,-0.33163,-0.37695,174.38100,198.20780,-354.46050
0.41807,2.09247,-0.00067,6.30830,-0.49035,-0.90648,0.64259,22.89111,-17.11840,17.49548,-142.62030,-62.31177,-0.57446,-0.74776,-0.26514,-0.20139,133.55450,129.01170,-410.27730
0.49017,1.93627,-0.08571,6.02982,-2.61637,-1.93844,7.06243,25.77478,-17.05706,-59.49615,-150.37250,-78.62331,-0.80049,-0.55415,-0.22683,-0.02605,-38.19650,61.22466,-500.82120
0.48287,1.77392,-0.19263,4.69086,-4.37148,-3.06512,10.58885,23.94263,-19.20078,-128.01610,-96.39456,-67.07116,-0.93046,-0.33472,-0.14430,0.03725,-267.25170,104.47520,-292.87690
0.41962,1.67164,-0.27258,2.95313,-5.07884,-3.69720,9.50602,20.56591,-20.38626,-150.85320,-23.10640,-27.58849,-0.97901,-0.19685,-0.04230,0.03154,-225.65200,140.88800,117.30330
0.32028,1.61159,-0.32885,0.96487,-4.90570,-3.75000,7.71945,17.01701,-19.35549,-120.42430,44.57771,15.89809,-0.99307,-0.11551,0.01639,0.01396,-204.97770,-12.97058,259.64940
0.25110,1.59404,-0.34691,-0.19989,-4.17931,-3.26687,7.63521,12.72622,-15.83479,-42.79672,53.77342,44.87557,-0.99593,-0.08246,-0.02570,0.02574,-142.96300,-227.86070,153.44840
0.21696,1.58194,-0.34491,-0.64808,-3.51857,-2.59600,6.61336,7.76590,-12.86217,-24.86493,42.63270,51.08305,-0.99241,-0.06575,-0.10365,-0.00811,-313.03560,-346.20890,181.55710
0.19494,1.56540,-0.33138,-0.83206,-3.05622,-1.89441,4.40041,3.64208,-11.30537,-10.31480,23.09656,51.47399,-0.98243,-0.03398,-0.16351,-0.08335,-316.31040,-185.29850,64.46523
0.18141,1.55103,-0.30640,-0.85916,-2.65236,-1.16227,-1.28639,2.16755,-8.64375,4.98329,28.39386,43.02571,-0.95798,-0.09098,-0.13403,-0.23670,-312.83140,158.43470,230.57300
0.17659,1.53910,-0.28945,-0.75855,-2.29528,-0.69264,-3.68734,0.91428,-7.05007,16.16955,34.54908,31.72372,-0.92970,-0.10352,-0.12933,-0.32897,-280.13410,95.19368,153.07760
0.18685,1.54349,-0.27379,-0.46351,-1.77926,-0.33873,-4.88453,-0.78471,-4.84004,17.75533,36.39666,12.28724,-0.89233,-0.13444,-0.16572,-0.39776,-136.97790,-26.14144,191.96570
0.19985,1.55158,-0.27375,-0.18473,-1.31013,-0.27084,-2.92039,-1.77497,-2.62654,19.38600,34.58655,-0.80949,-0.88816,-0.15727,-0.22120,-0.37082,46.01094,-55.95109,141.68850
0.21683,1.56726,-0.28081,0.09721,-0.82083,-0.31682,-1.20458,-1.75705,-0.74807,16.56072,28.98682,-3.20929,-0.88960,-0.18853,-0.25399,-0.32947,92.64590,14.25781,133.21660
0.23087,1.57977,-0.28511,0.28328,-0.46833,-0.31268,0.15801,-2.27476,0.52940,9.68109,21.69709,4.26642,-0.88458,-0.20545,-0.29972,-0.29236,106.25010,-42.40432,112.53340
0.24237,1.59078,-0.28465,0.39121,-0.21625,-0.24041,0.48021,-2.31851,1.87092,5.91964,17.90002,8.62845,-0.87063,-0.24127,-0.33142,-0.27195,35.04390,-13.97988,106.33830
0.25224,1.60544,-0.27886,0.45233,0.03401,-0.10692,-1.03974,-1.41438,2.79122,2.44364,16.89048,11.28403,-0.84836,-0.29770,-0.31928,-0.29952,-88.39449,45.47922,64.21784
0.26036,1.62275,-0.27084,0.47711,0.27326,0.02895,-2.36754,-1.12038,3.59446,2.53253,17.22185,7.33708,-0.81536,-0.35223,-0.31735,-0.33226,-132.40090,13.41637,40.90427
0.26847,1.64326,-0.26444,0.49662,0.51009,0.11296,-2.96843,-1.26314,4.35951,0.94160,17.92940,3.36986,-0.77886,-0.40084,-0.33105,-0.35087,-54.63790,-15.14115,52.14206
0.27618,1.66488,-0.26198,0.50716,0.71276,0.12398,-3.20126,-1.06519,4.98916,0.09958,16.84321,-1.16548,-0.74564,-0.44990,-0.33727,-0.35758,-34.15455,4.19987,53.33966
0.28277,1.69223,-0.26201,0.49967,0.95702,0.09634,-2.76543,-1.17743,5.57018,-1.48032,14.66943,-2.33779,-0.71411,-0.49096,-0.35834,-0.34728,15.83571,15.70930,39.63011
0.28623,1.71951,-0.26265,0.44798,1.15522,0.06268,-2.47986,-1.27710,5.88557,-5.24440,10.09686,-1.81882,-0.68185,-0.52630,-0.37745,-0.34002,23.30651,2.94449,25.94025
0.28852,1.74249,-0.26288,0.39204,1.25268,0.04435,-2.56308,-1.22068,5.91353,-6.40751,9.20167,-1.63708,-0.64951,-0.55930,-0.38543,-0.34170,-0.17661,7.72654,9.41628
0.28623,1.76947,-0.26485,0.28250,1.38543,0.00720,-2.15626,-1.50800,5.90563,-6.83541,7.78172,-3.82630,-0.61816,-0.58165,-0.40823,-0.33603,17.38663,-8.02244,2.04336
0.28332,1.79440,-0.26819,0.18502,1.46491,-0.04187,-1.27123,-1.74765,5.92415,-7.15240,4.47509,-3.45279,-0.59218,-0.59644,-0.44038,-0.31567,64.44040,7.11523,9.06932
0.27772,1.81798,-0.27228,0.06656,1.51005,-0.09218,-0.66274,-1.69896,5.94508,-7.82740,0.43194,-2.21813,-0.56660,-0.61380,-0.46468,-0.29375,40.04707,19.24791,8.53306
0.27123,1.83848,-0.27450,-0.03925,1.49925,-0.11028,-0.16208,-1.71261,5.88015,-7.14209,-1.91771,-0.36171,-0.54058,-0.62756,-0.48878,-0.27393,26.49849,15.96599,-1.32726
0.26352,1.85661,-0.27496,-0.14046,1.45693,-0.09954,0.22590,-1.84625,5.88564,-6.88790,-4.47215,1.75904,-0.51028,-0.63941,-0.51536,-0.25530,37.12982,5.76231,3.71378
0.25511,1.87233,-0.27440,-0.23250,1.38951,-0.07419,0.16281,-1.92956,5.94570,-6.25455,-6.04592,2.44348,-0.47416,-0.65655,-0.53384,-0.24316,4.34823,-4.71253,3.94970
0.24517,1.88482,-0.27302,-0.33146,1.28619,-0.03711,0.00411,-2.09713,6.06364,-6.49060,-7.42477,2.10678,-0.43251,-0.67414,-0.55134,-0.23345,-5.18230,-14.67074,6.32433
0.23561,1.89608,-0.27235,-0.40436,1.18671,-0.01878,-0.41407,-2.13693,6.06437,-5.82389,-10.47022,1.61186,-0.39090,-0.69445,-0.55935,-0.22818,-13.44411,-13.57782,4.35445
0.22553,1.90195,-0.27195,-0.46910,1.03030,-0.00850,-1.31361,-2.17364,5.71277,-4.00489,-12.97408,0.57563,-0.35140,-0.71796,-0.55132,-0.23896,-54.49205,-27.44660,-24.40635
0.21616,1.90328,-0.27173,-0.51015,0.83869,-0.00087,-2.00240,-2.31617,5.11809,-2.17698,-14.13788,0.37712,-0.31712,-0.73480,-0.54193,-0.25653,-41.23484,-32.51773,-46.98895
0.20768,1.90102,-0.27169,-0.53006,0.63460,0.00240,-2.47721,-2.52437,4.48312,-0.71184,-15.04056,-0.08049,-0.28548,-0.74664,-0.53319,-0.27703,-17.98950,-30.39973,-43.57901
0.20039,1.89612,-0.27261,-0.52867,0.43412,-0.01025,-2.85404,-2.71296,3.80382,0.71003,-13.19814,-2.18397,-0.25743,-0.75545,-0.52202,-0.30085,-17.65729,-35.57574,-52.04560
0.19460,1.88983,-0.27516,-0.50499,0.25368,-0.04324,-2.74544,-2.58729,3.39982,2.59854,-12.18513,-3.34483,-0.23506,-0.76197,-0.51780,-0.30988,7.60555,-2.37266,-31.71431
0.19106,1.88189,-0.27911,-0.45320,0.08603,-0.08970,-2.60008,-2.23793,2.96937,4.41260,-11.69954,-3.47249,-0.22056,-0.76907,-0.51118,-0.31397,11.69023,17.74277,-30.06702
0.19022,1.87136,-0.28321,-0.37202,-0.08728,-0.13038,-2.15601,-1.56733,2.54270,5.06573,-9.94946,-2.41228,-0.21860,-0.77457,-0.50805,-0.30683,18.13403,36.42910,-32.69178
0.18894,1.86223,-0.28611,-0.31359,-0.20414,-0.14554,-1.59620,-0.89041,2.38138,4.73691,-9.09355,-0.57366,-0.21680,-0.77966,-0.51065,-0.29044,34.67085,57.64008,-22.64483
0.18815,1.85052,-0.28765,-0.26143,-0.33341,-0.13740,-1.05532,-0.29033,2.21079,2.98954,-9.82886,2.32950,-0.21853,-0.78303,-0.51513,-0.27156,36.86567,59.09576,-12.10592
0.18638,1.83676,-0.28724,-0.23357,-0.46642,-0.10277,-0.92066,-0.27952,1.82722,1.68002,-10.30446,4.15153,-0.21533,-0.78443,-0.51415,-0.27193,16.92636,15.19357,-22.23115
0.18414,1.82113,-0.28524,-0.21712,-0.59913,-0.05232,-1.18005,-0.87361,1.19022,1.28295,-9.67339,4.41106,-0.20632,-0.78320,-0.50561,-0.29732,-6.78122,-37.53652,-39.42251
0.18204,1.80543,-0.28282,-0.20272,-0.70430,-0.00692,-1.47879,-1.57963,0.56360,1.35082,-8.08084,3.58739,-0.19513,-0.77927,-0.49434,-0.33210,-18.91382,-63.66761,-48.58164
0.18090,1.78716,-0.27904,-0.17639,-0.82683,0.05010,-1.50023,-2.20381,-0.00525,1.44991,-5.08449,1.80066,-0.18663,-0.76955,-0.48755,-0.36777,-0.43204,-44.31188,-31.03140
0.17920,1.77116,-0.27649,-0.16284,-0.89351,0.07899,-1.07585,-2.10420,-0.03144,0.49757,-3.33942,0.73172,-0.18222,-0.76313,-0.49238,-0.37681,23.22665,-4.07626,-6.54952
0.17686,1.75643,-0.27480,-0.16241,-0.92675,0.08843,-0.53279,-1.69738,0.21978,-0.09601,-2.17971,-0.39337,-0.17913,-0.75926,-0.50396,-0.37076,41.82373,25.00139,15.20746
0.17470,1.74115,-0.27446,-0.15848,-0.96221,0.07678,0.16549,-0.75772,0.83419,0.72921,-2.38028,-0.46546,-0.17915,-0.76087,-0.52358,-0.33887,41.17627,59.98797,42.49584
0.17448,1.72464,-0.27644,-0.12055,-1.01490,0.03004,-0.75180,-0.85152,0.47627,2.52459,-2.50568,-1.41864,-0.17028,-0.77054,-0.50438,-0.35053,-43.45311,-14.56747,-22.63719
0.17415,1.69417,-0.27803,-0.07447,-1.04950,-0.00266,-1.86984,-1.35703,-0.20235,3.09049,-2.40456,-2.04585,-0.15112,-0.78008,-0.46577,-0.38947,-66.01064,-36.03629,-43.03699
0.17582,1.67756,-0.27995,-0.03268,-1.08047,-0.02682,-2.59479,-1.60882,-0.73130,2.85731,-1.74389,-2.17139,-0.14309,-0.78616,-0.43150,-0.41867,-59.21226,-31.36721,-44.70465
0.17741,1.66053,-0.28158,-0.00164,-1.11091,-0.04305,-2.74754,-1.52688,-0.96716,1.95046,-1.71371,-1.63317,-0.14010,-0.79007,-0.40878,-0.43482,-19.22279,-2.89106,-24.35276
0.17857,1.64374,-0.28293,0.01734,-1.13149,-0.05229,-2.53660,-1.25260,-1.00069,1.45577,-0.89778,-0.93848,-0.14092,-0.79288,-0.39613,-0.44110,11.02974,14.13041,-9.48001
0.17928,1.62760,-0.28412,0.02583,-1.13722,-0.05655,-2.09693,-0.81108,-0.86723,-0.11592,0.48733,0.08365,-0.14482,-0.79613,-0.39201,-0.43764,29.82321,28.97836,4.02312
0.17897,1.61269,-0.28504,0.01743,-1.12362,-0.05775,-1.84137,-0.58555,-0.74701,-0.77334,1.71512,0.35078,-0.14487,-0.79895,-0.38617,-0.43767,23.44336,19.45430,8.49008
0.17798,1.59889,-0.28571,0.00370,-1.09745,-0.05728,-1.82944,-0.55981,-0.53540,-1.23617,2.32136,0.44630,-0.13678,-0.80278,-0.37748,-0.44084,5.65860,10.47906,13.36191
0.17616,1.58585,-0.28642,-0.01861,-1.06522,-0.05762,-2.00097,-0.69355,-0.40395,-1.80354,2.19026,0.23426,-0.12462,-0.80622,-0.36391,-0.44950,-9.00626,-5.56192,12.27574
0.17322,1.57379,-0.28720,-0.05480,-1.02457,-0.05935,-2.29983,-0.95785,-0.25757,-2.16215,2.28138,-0.56404,-0.10683,-0.80899,-0.34693,-0.46235,-18.86355,-15.00410,8.59860
0.17013,1.56162,-0.28848,-0.08748,-0.99308,-0.06912,-2.37293,-0.92019,-0.03877,-2.15096,2.51624,-1.59685,-0.09223,-0.81345,-0.33474,-0.46663,-9.69460,-2.05975,12.28035
0.16718,1.54968,-0.29038,-0.11094,-0.96386,-0.08515,-2.38859,-0.68107,0.18840,-1.58700,2.45524,-1.54167,-0.07929,-0.82063,-0.32364,-0.46426,-1.11567,19.39981,16.91234
