posX, posY, posZ, velX, velY, velZ, angVelX, angVelY, angVelZ, accX, accY, accZ, rotX, rotY, rotZ, rotW, angAccX, angAccY, angAccZ
-0.00650,1.28459,-0.39518,-0.03792,0.16039,-0.12601,-0.56415,-0.72114,1.33917,-0.34544,0.46992,0.81933,0.09797,-0.90692,0.05747,-0.40571,-22.74505,-29.95586,23.88879
-0.00731,1.28741,-0.39591,-0.04246,0.16849,-0.11102,-0.68318,-1.04668,1.45954,-0.46430,0.25486,0.96912,0.11200,-0.89889,0.06030,-0.41931,-10.26069,-25.55225,11.55559
-0.00836,1.29017,-0.39659,-0.04988,0.17408,-0.09872,-0.71230,-1.20609,1.49977,-0.64421,0.32739,0.45655,0.12392,-0.89194,0.06184,-0.43042,-3.04394,-19.63662,6.30175
-0.00975,1.29336,-0.39753,-0.06083,0.18564,-0.09324,-0.59756,-1.12185,1.43426,-0.57542,0.78993,-0.39959,0.13182,-0.88822,0.06025,-0.43596,5.13928,2.76216,-2.26042
-0.01128,1.29682,-0.39899,-0.07171,0.19879,-0.09709,-0.39740,-0.89012,1.27704,-0.94771,0.71622,-0.46038,0.13564,-0.88736,0.05638,-0.43705,13.41634,16.77835,-10.07804
-0.01318,1.30003,-0.40078,-0.08580,0.20476,-0.10550,-0.14650,-0.64669,1.11221,-1.01384,-0.19443,-1.01391,0.13720,-0.88768,0.05027,-0.43666,14.07122,16.79240,-9.28823
-0.01522,1.30277,-0.40314,-0.09934,0.20209,-0.12080,0.34423,-0.18238,0.72700,-0.83321,-0.67383,-1.98371,0.12839,-0.89307,0.03840,-0.42950,28.25703,28.06658,-20.71527
-0.01755,1.30569,-0.40640,-0.11418,0.20332,-0.14736,0.95997,0.58998,0.11313,-1.21525,0.41516,-2.25527,0.10817,-0.90488,0.02246,-0.41108,43.64058,54.09778,-39.55608
-0.02069,1.30955,-0.41025,-0.13929,0.21997,-0.17745,1.31201,1.14760,-0.20330,-2.01753,2.56873,-0.46757,0.09322,-0.91480,0.00800,-0.39291,26.68548,46.85019,-28.42970
-0.02434,1.31398,-0.41325,-0.16758,0.24272,-0.18638,1.26326,1.04380,0.03602,-1.95479,1.76276,0.22294,0.09516,-0.91624,-0.00193,-0.38916,2.26852,-0.04973,11.87846
-0.02764,1.31838,-0.41623,-0.18283,0.25932,-0.19386,1.14116,0.86271,0.23090,-0.30057,0.48186,-1.34499,0.09876,-0.91623,-0.00930,-0.38819,-9.09566,-18.66332,20.22246
-0.02982,1.32239,-0.42021,-0.17600,0.26552,-0.21636,1.10978,0.90213,-0.05264,1.00223,-0.59396,-2.41978,0.09009,-0.91956,-0.01374,-0.38225,-4.00853,-0.82799,-9.38422
-0.03120,1.32607,-0.42534,-0.15718,0.26360,-0.25358,1.09630,1.14235,-0.62678,1.44563,-0.06386,-3.08635,0.07132,-0.92605,-0.01484,-0.37030,-2.17133,17.82688,-38.98575
-0.03246,1.33031,-0.43107,-0.14034,0.27018,-0.29343,1.06722,1.26583,-1.05740,0.90866,1.27978,-2.44752,0.05275,-0.93144,-0.01529,-0.35972,-4.80435,15.69145,-35.61482
-0.03426,1.33526,-0.43660,-0.13702,0.28720,-0.31978,1.13209,1.30941,-1.27028,-0.10622,1.79818,-2.09862,0.03634,-0.93553,-0.01939,-0.35083,0.07275,4.04261,-20.54035
-0.03656,1.34121,-0.44242,-0.14311,0.31838,-0.34252,1.26289,1.34722,-1.43032,-0.62644,2.90223,-1.06554,0.01897,-0.93925,-0.02594,-0.34173,8.76508,6.07655,-13.67966
-0.03957,1.34894,-0.44801,-0.16036,0.37285,-0.35605,1.46637,1.31375,-1.51608,-1.65713,3.99617,-0.99493,0.00167,-0.94169,-0.03552,-0.33460,8.82066,-5.48480,-7.04981
-0.04375,1.35794,-0.45344,-0.19306,0.43656,-0.36395,1.87747,1.54608,-1.60262,-2.86025,4.94452,-0.87716,-0.01892,-0.94570,-0.05231,-0.32023,24.63204,9.38317,-6.35611
-0.04892,1.36783,-0.45874,-0.23391,0.49889,-0.36765,2.33691,1.86201,-1.66084,-3.81423,5.48478,-0.18760,-0.04106,-0.94979,-0.07358,-0.30133,39.37566,22.11843,-7.69192
-0.05574,1.37936,-0.46373,-0.29132,0.57245,-0.36562,2.60957,2.01694,-1.59942,-4.50894,4.50465,1.19156,-0.05931,-0.95231,-0.09398,-0.28419,35.49059,16.26095,1.69916
-0.06367,1.39343,-0.46820,-0.35442,0.67289,-0.35534,2.91523,1.96142,-1.14360,-3.58170,6.75855,1.42754,-0.06664,-0.95263,-0.12002,-0.27140,17.86223,-4.00337,19.23397
-0.07101,1.40735,-0.47237,-0.39265,0.74486,-0.34423,2.93424,1.79412,-0.82882,-3.04975,5.36509,1.29632,-0.07210,-0.95205,-0.14006,-0.26226,13.07964,-19.92424,28.24983
-0.07914,1.42203,-0.47561,-0.43432,0.81103,-0.32151,2.84674,1.50474,-0.53126,-3.12047,4.02589,2.10568,-0.07440,-0.95037,-0.15766,-0.25768,-4.14114,-21.14060,17.98992
-0.08843,1.43738,-0.47799,-0.48729,0.87600,-0.28904,2.71123,1.20767,-0.23965,-2.91916,3.43683,1.63367,-0.07419,-0.94829,-0.17394,-0.25491,-6.41584,-19.76801,13.35136
-0.09743,1.45192,-0.48070,-0.52447,0.91541,-0.26694,2.60079,1.05151,-0.03966,-3.26745,3.24685,2.13176,-0.07497,-0.94661,-0.18957,-0.24975,-8.71730,-14.93334,13.21725
-0.10780,1.46729,-0.48246,-0.57533,0.95888,-0.23467,2.48940,0.85577,0.25526,-4.08587,3.14030,2.11916,-0.07095,-0.94449,-0.20562,-0.24624,-9.05176,-19.12149,18.26627
-0.11971,1.48315,-0.48339,-0.64064,1.00049,-0.19550,2.46186,0.78249,0.61554,-3.80428,2.14446,2.69264,-0.06402,-0.94248,-0.22423,-0.23949,0.87168,-7.86308,21.70717
-0.13087,1.49841,-0.48403,-0.67730,1.02147,-0.16168,2.37170,0.61904,0.84097,-2.29098,1.40394,3.50189,-0.05743,-0.93979,-0.24061,-0.23579,-3.28238,-8.87175,19.48639
-0.14167,1.51371,-0.48346,-0.69911,1.03783,-0.11642,2.22160,0.20605,1.01697,-1.09985,0.55630,3.28250,-0.04826,-0.93529,-0.25506,-0.24052,-9.99781,-31.42875,11.34687
-0.15205,1.52855,-0.48181,-0.70924,1.04276,-0.06316,2.38208,0.15765,0.89970,-0.74801,-0.34541,2.10007,-0.04949,-0.93011,-0.27456,-0.23889,3.85565,-14.36072,-4.36356
-0.16217,1.54299,-0.48039,-0.71265,1.03955,-0.02670,2.75385,0.62329,0.64198,-0.06819,-0.70180,2.74364,-0.06089,-0.92582,-0.29895,-0.22313,26.54579,35.49216,-14.90432
-0.17163,1.55687,-0.47858,-0.70402,1.02781,0.00638,2.97758,0.93563,0.35369,1.36999,-1.09528,2.33036,-0.07447,-0.92071,-0.32105,-0.20896,21.35677,34.87522,-16.40402
-0.18015,1.57018,-0.47740,-0.68208,1.00961,0.02192,2.93300,1.09244,0.07362,1.82074,-1.75307,0.56770,-0.08748,-0.91634,-0.33661,-0.19841,-1.33274,13.68964,-17.56537
-0.18853,1.58321,-0.47665,-0.66280,0.99020,0.02498,2.94586,1.50975,-0.21688,0.64089,-1.04219,-0.76985,-0.10528,-0.91248,-0.35190,-0.18017,-6.11871,23.49199,-16.84588
-0.19764,1.59645,-0.47610,-0.66022,0.97952,0.02463,3.09099,2.16671,-0.38855,-0.25785,-0.53046,0.05174,-0.12572,-0.90798,-0.37011,-0.15098,10.72526,52.34572,-8.50888
-0.20834,1.60980,-0.47502,-0.68457,0.97361,0.03427,3.05098,2.57024,-0.34137,-2.27295,-0.01236,2.14219,-0.13957,-0.90393,-0.38511,-0.12300,2.54681,35.87580,4.57958
-0.22102,1.62344,-0.47320,-0.73572,0.97362,0.05324,2.71184,2.23701,-0.00625,-4.18880,0.44226,1.90348,-0.13696,-0.90132,-0.39543,-0.11182,-15.42590,-17.93880,18.93241
-0.23509,1.63744,-0.47111,-0.79700,0.97988,0.07264,2.33171,1.88292,0.42868,-5.50746,0.89965,1.23772,-0.12731,-0.90036,-0.40335,-0.10221,-28.48226,-39.62157,30.78299
-0.25196,1.65159,-0.46842,-0.89037,0.98719,0.09746,1.76805,1.46798,1.10553,-4.70908,0.14179,1.37427,-0.10561,-0.90297,-0.40594,-0.09327,-25.12570,-28.97291,38.81760
-0.26805,1.66540,-0.46512,-0.95206,0.98718,0.12872,1.48772,1.28610,1.55149,-4.38849,-0.20819,2.99104,-0.08866,-0.90354,-0.41140,-0.08067,-22.34266,-23.43930,33.38390
-0.28365,1.67871,-0.46080,-0.99026,0.97993,0.16892,1.42068,1.12670,1.78356,-3.33098,-1.26239,4.85586,-0.07482,-0.90168,-0.42024,-0.06912,-7.94270,-12.73210,28.02081
-0.29995,1.69053,-0.45233,-1.03133,0.95047,0.26827,1.54962,0.79004,1.94569,-1.48493,-2.17715,5.92961,-0.05927,-0.89658,-0.43434,-0.06314,9.15061,-18.95378,8.52819
-0.31491,1.70199,-0.44432,-1.04233,0.92172,0.33784,1.71124,0.61120,1.92274,-0.65373,-2.77217,5.39448,-0.04909,-0.89026,-0.44927,-0.05644,14.98367,-16.31182,-1.32340
-0.32904,1.71203,-0.43467,-1.03674,0.87637,0.41810,1.95315,0.57424,1.78004,0.55578,-2.66878,4.09037,-0.04368,-0.88208,-0.46655,-0.04850,13.22400,-7.24077,-9.78650
-0.34260,1.72235,-0.42576,-1.02245,0.84575,0.47103,2.23679,0.95543,1.68463,1.24797,-2.42177,4.09682,-0.04338,-0.87283,-0.48524,-0.02888,19.42631,26.41085,-6.73272
-0.35558,1.73208,-0.41572,-1.00222,0.81279,0.52984,2.51991,1.36254,1.58698,1.31819,-2.34123,4.44107,-0.04553,-0.86183,-0.50511,-0.00618,17.16325,33.50793,-3.68841
-0.36864,1.74072,-0.40386,-0.98828,0.76888,0.60611,2.87585,1.73088,1.54621,0.82902,-3.26479,5.41979,-0.04771,-0.84779,-0.52785,0.01860,19.59047,31.85586,-0.10199
-0.38202,1.74899,-0.39234,-0.98222,0.72818,0.65920,3.04970,1.75040,1.54486,0.75732,-3.59366,4.06960,-0.04509,-0.83430,-0.54826,0.03634,18.77904,9.61780,-0.93338
-0.39525,1.75617,-0.38089,-0.97501,0.67964,0.69818,3.09732,1.70674,1.62048,0.31827,-3.65262,1.62313,-0.03940,-0.82159,-0.56620,0.05334,7.10285,-4.61591,1.17376
-0.40857,1.76265,-0.37086,-0.97097,0.63079,0.70444,2.95354,1.71448,1.80682,0.26027,-3.48672,-0.36824,-0.03096,-0.81146,-0.57897,0.07323,-4.69427,-0.55385,11.56353
-0.42222,1.76853,-0.36185,-0.97384,0.58249,0.69211,2.70228,1.54664,2.11178,-0.34260,-3.57788,-0.86983,-0.01566,-0.80366,-0.58787,0.09101,-14.63274,-14.51974,18.91184
-0.43624,1.77329,-0.35310,-0.98177,0.52692,0.67856,2.45381,1.09388,2.43318,-0.25083,-4.28309,-0.52479,0.00710,-0.79695,-0.59532,0.10205,-12.14815,-31.23842,21.04377
-0.45006,1.77676,-0.34442,-0.98427,0.46348,0.66651,2.26795,0.47136,2.62844,0.30324,-4.85352,-1.07666,0.03322,-0.79023,-0.60278,0.10530,-6.63807,-47.24896,10.72217
-0.46309,1.77919,-0.33639,-0.97368,0.39714,0.64647,2.12990,-0.06699,2.70977,0.97226,-5.07369,-1.95576,0.05867,-0.78317,-0.60992,0.10587,-3.78485,-46.46086,0.60938
-0.47456,1.77974,-0.32940,-0.93919,0.31408,0.61364,2.06398,-0.44840,2.65390,3.16628,-5.29509,-2.51758,0.08059,-0.77497,-0.61785,0.10574,-0.24139,-24.40793,-3.50796
-0.48430,1.77995,-0.32309,-0.88308,0.24429,0.57632,2.03621,-0.62296,2.44449,4.51953,-4.77219,-3.02325,0.09644,-0.76611,-0.62659,0.10565,0.85581,-15.36059,-14.68314
-0.49316,1.78017,-0.31709,-0.82723,0.19152,0.54349,2.01177,-0.44075,2.30800,3.89545,-4.06424,-3.02909,0.10702,-0.75635,-0.63532,0.11337,-1.73606,2.13879,-17.53961
-0.50113,1.77895,-0.31129,-0.77106,0.12802,0.51562,2.04195,-0.06715,2.30870,3.78531,-4.85878,-1.28272,0.11564,-0.74435,-0.64493,0.12899,-4.77229,32.20499,4.34347
-0.50880,1.77593,-0.30530,-0.72143,0.04895,0.49650,2.17076,0.07195,2.33454,2.89526,-5.11483,-0.81384,0.12798,-0.73013,-0.65626,0.14092,4.85177,11.08681,2.35083
-0.51684,1.77305,-0.29947,-0.68888,-0.00920,0.47899,2.29582,0.00578,2.31847,2.95887,-4.36174,-2.03082,0.14288,-0.71555,-0.66762,0.14786,11.97863,2.10844,1.59884
-0.52409,1.77011,-0.29544,-0.65168,-0.05423,0.43636,2.24801,-0.21106,2.25603,2.53928,-2.67247,-4.06926,0.15937,-0.70438,-0.67520,0.15017,3.29741,-12.96790,-6.72717
-0.53088,1.76807,-0.29410,-0.61535,-0.07492,0.35786,1.95107,-0.58172,2.17142,1.93371,-0.44461,-5.71630,0.17802,-0.69929,-0.67627,0.14822,-12.57524,-22.94497,-8.46973
-0.53822,1.76711,-0.29332,-0.59612,-0.07396,0.28844,1.62266,-0.94545,2.11837,1.37635,0.33422,-5.81987,0.19811,-0.69640,-0.67431,0.14521,-22.04465,-30.73150,-9.58515
-0.54548,1.76637,-0.29348,-0.58032,-0.06995,0.22176,1.33681,-1.27436,2.10205,1.14742,0.43672,-5.34818,0.21970,-0.69421,-0.67064,0.14158,-20.97822,-33.41858,-8.08707
-0.55209,1.76559,-0.29500,-0.55709,-0.06740,0.14931,1.06560,-1.49376,2.18040,1.63246,0.08093,-3.97019,0.24234,-0.69208,-0.66515,0.14098,-16.09650,-19.03594,1.50655
-0.55773,1.76451,-0.29606,-0.52243,-0.07050,0.09850,0.94260,-1.58670,2.20801,2.88499,-0.31373,-2.39917,0.26284,-0.68756,-0.66197,0.14132,-9.80473,-7.59294,2.93754
-0.56282,1.76338,-0.29613,-0.48713,-0.07340,0.07496,0.97574,-1.65585,2.12480,3.19814,-0.19969,-1.47053,0.28133,-0.68078,-0.66192,0.13876,0.96478,-5.20800,-5.32765
-0.56673,1.76241,-0.29614,-0.44115,-0.07259,0.05805,1.05870,-1.65711,1.99254,3.55352,0.45898,-1.19626,0.29747,-0.67288,-0.66363,0.13540,7.73078,-1.46492,-8.70137
-0.56834,1.76301,-0.29632,-0.36626,-0.04551,0.04154,1.19906,-1.73113,1.53189,4.59917,2.16332,-0.71109,0.30799,-0.66639,-0.66777,0.12305,11.05653,-2.85507,-24.95996
-0.57008,1.76403,-0.29600,-0.31005,-0.01800,0.03729,1.26098,-1.66981,1.19636,4.73647,2.30245,-0.38510,0.31638,-0.66028,-0.67158,0.11366,10.05881,2.69730,-28.43192
-0.57015,1.76579,-0.29559,-0.23994,0.01459,0.03488,1.23989,-1.37619,0.91135,4.81459,2.44586,-0.60892,0.31891,-0.65501,-0.67627,0.10919,3.78011,18.24065,-22.56119
-0.56877,1.76831,-0.29559,-0.16114,0.05269,0.02591,0.90266,-0.71835,0.88129,4.05889,2.76268,-1.34098,0.31566,-0.65327,-0.67772,0.11957,-16.74584,34.51753,-8.79407
-0.56729,1.77127,-0.29592,-0.09774,0.08996,0.01361,0.56095,-0.26014,0.90751,5.36678,2.40804,-0.14482,0.31400,-0.65282,-0.67671,0.13151,-34.81395,44.07814,12.97558
-0.56519,1.77442,-0.29643,-0.03867,0.12125,0.00117,0.55117,-0.31388,0.65798,4.03161,1.97339,-0.48710,0.31596,-0.65113,-0.67817,0.12761,-4.53042,1.52125,-17.01544
-0.56282,1.77763,-0.29709,0.01109,0.14643,-0.01120,0.57487,-0.43465,0.48146,3.23221,1.94048,-1.18533,0.31990,-0.64892,-0.67949,0.12192,4.12279,-8.13594,-15.70040
-0.56011,1.78127,-0.29830,0.05433,0.17327,-0.02933,0.55939,-0.60092,0.36881,3.03289,1.93846,-1.35032,0.32563,-0.64740,-0.67932,0.11561,-0.40694,-9.83083,-8.78085
-0.55723,1.78519,-0.29981,0.08999,0.19836,-0.04801,0.61719,-0.91000,0.16842,3.40016,2.26218,-1.38466,0.33305,-0.64610,-0.67903,0.10273,2.07289,-18.29655,-11.86385
-0.55324,1.79001,-0.30188,0.13509,0.23193,-0.07129,0.71383,-1.32159,-0.09602,3.38500,2.41782,-1.80461,0.34198,-0.64514,-0.67818,0.08316,9.72433,-30.89150,-22.01397
-0.54763,1.79551,-0.30434,0.19769,0.26931,-0.09596,0.81177,-1.67167,-0.34058,4.51875,2.43993,-1.69120,0.35071,-0.64386,-0.67720,0.06205,8.57975,-24.01707,-16.78137
-0.54078,1.80105,-0.30643,0.26652,0.29877,-0.10865,0.76660,-1.61072,-0.40822,6.68959,2.62475,-1.19494,0.35479,-0.64300,-0.67681,0.05113,0.39741,-6.30120,-8.76131
-0.53150,1.80751,-0.30851,0.35661,0.33535,-0.11808,0.75522,-1.48653,-0.60764,8.54457,3.33942,-0.70437,0.35417,-0.64294,-0.67801,0.03861,-2.10341,12.47884,-9.18861
-0.51744,1.81624,-0.31104,0.50349,0.40053,-0.13255,0.67382,-1.24091,-1.01449,10.35183,4.72672,-1.43167,0.34515,-0.64659,-0.67985,0.02431,0.81990,12.68244,-25.55179
-0.50083,1.82649,-0.31390,0.66091,0.47675,-0.14935,0.43035,-0.85001,-1.47148,12.29562,5.89396,-1.54776,0.32886,-0.65500,-0.68019,0.01315,-10.79848,29.40842,-28.14057
-0.48074,1.83844,-0.31724,0.83907,0.56275,-0.16990,0.09728,-0.39203,-2.00012,13.59728,5.95580,-1.77198,0.30536,-0.66770,-0.67892,0.00270,-15.76052,30.79289,-40.66283
-0.45471,1.85119,-0.32066,1.07805,0.64319,-0.18699,-0.32696,0.47626,-2.53052,16.21572,4.31763,-0.92384,0.26864,-0.68365,-0.67856,0.00181,-20.82364,57.91025,-31.14953
-0.42566,1.86332,-0.32421,1.31647,0.69606,-0.20244,-0.59404,1.20942,-3.11775,18.98554,3.04313,-1.05045,0.22699,-0.69864,-0.67851,-0.00210,-13.64004,55.38096,-39.68763
-0.39517,1.87465,-0.32781,1.51544,0.72237,-0.21491,-0.70964,1.72404,-3.71460,21.76620,1.74233,-1.40228,0.18217,-0.71183,-0.67823,-0.01083,-7.68034,50.98727,-50.34375
-0.34735,1.88533,-0.33250,1.95406,0.73111,-0.24116,-0.96942,2.93917,-5.02108,28.56557,-1.81220,-2.06473,0.10122,-0.72964,-0.67603,-0.01909,-7.42972,56.79918,-74.90459
-0.29716,1.89261,-0.33674,2.33582,0.68262,-0.25495,-1.23026,4.55343,-6.07779,35.43730,-7.49764,-2.76080,0.00484,-0.74190,-0.67037,-0.01325,-0.80047,106.56070,-84.31049
-0.23238,1.89180,-0.34317,2.86050,0.51290,-0.30171,-1.00663,6.95751,-7.69278,39.36628,-18.11341,-5.24546,-0.13468,-0.73465,-0.66494,-0.00085,24.75249,149.46590,-126.90450
-0.15920,1.87754,-0.35411,3.40071,0.16467,-0.41014,-0.38739,9.63696,-9.33658,37.26932,-31.23206,-9.73548,-0.29696,-0.69831,-0.65097,0.02046,56.05824,159.64250,-152.34660
-0.08432,1.84567,-0.37258,3.84577,-0.39025,-0.61677,0.81817,11.43670,-11.15767,26.14961,-48.13031,-19.24636,-0.45638,-0.62683,-0.63102,0.02479,49.66030,94.19460,-172.35970
-0.01705,1.79092,-0.40192,4.06375,-1.18850,-0.95304,2.40059,12.83906,-13.23292,4.98485,-65.42857,-27.97429,-0.61315,-0.51477,-0.59889,0.01983,56.65810,66.16501,-195.78890
0.03105,1.71683,-0.44044,3.92587,-2.11368,-1.35545,2.92567,12.69110,-15.85738,-23.04797,-67.31050,-27.58016,-0.74439,-0.39291,-0.53898,-0.03175,-76.13609,69.08179,-174.18300
0.05117,1.63146,-0.48197,3.36916,-3.01137,-1.71622,2.79129,11.86476,-18.02240,-55.43929,-59.94093,-22.29251,-0.83949,-0.26566,-0.46335,-0.09994,-112.77620,53.93638,-120.34540
0.02952,1.54471,-0.51978,2.24719,-3.73419,-1.93558,1.21103,10.63474,-19.46199,-79.66764,-26.58989,-3.11760,-0.89734,-0.16089,-0.36581,-0.18729,-131.96260,114.78940,-12.88166
0.00245,1.48249,-0.54432,1.30431,-3.89500,-1.89021,1.27747,9.49257,-19.22317,-74.37482,4.18436,9.47573,-0.92487,-0.05491,-0.29936,-0.22798,-91.78170,18.95024,33.44859
-0.03592,1.44197,-0.55823,0.41174,-3.67209,-1.68634,1.87236,7.89760,-17.17826,-50.68618,25.41817,18.87354,-0.93278,0.01696,-0.27320,-0.23451,-29.03057,-126.75870,101.05000
-0.06707,1.42166,-0.55958,-0.17423,-3.17061,-1.32264,1.30542,5.64905,-14.01329,-22.64872,32.17028,26.30976,-0.92653,0.03647,-0.27669,-0.25229,-77.04332,-110.06650,172.47760
-0.08261,1.40190,-0.55540,-0.37756,-2.76987,-0.94537,-0.29093,4.72774,-10.24817,-10.29340,21.55045,29.81190,-0.92476,0.00279,-0.26367,-0.27439,-29.25150,-48.58317,311.96170
-0.09643,1.38104,-0.54262,-0.50987,-2.48062,-0.51498,-2.77676,4.13577,-7.65237,-10.35709,21.33654,31.50944,-0.91144,-0.03900,-0.23711,-0.33396,-121.63700,70.29335,255.47160
-0.11275,1.36417,-0.52483,-0.65763,-2.18945,-0.10468,-4.26312,3.63229,-6.54326,-8.37311,24.93474,26.19067,-0.89475,-0.04878,-0.20724,-0.39255,-93.21828,46.92457,128.59280
-0.12626,1.35559,-0.50982,-0.72465,-1.82661,0.16128,-4.72841,3.25756,-6.30383,1.78022,29.85041,11.12660,-0.88081,-0.03299,-0.17510,-0.43867,-53.93333,9.01652,48.91349
-0.13073,1.35085,-0.50398,-0.62963,-1.49153,0.21586,-3.96167,2.30350,-5.91363,15.95677,28.01642,-2.34043,-0.87416,-0.00524,-0.16831,-0.45551,12.82079,-49.00445,28.78034
-0.11835,1.35442,-0.50745,-0.28184,-1.09922,0.10713,-2.25666,0.46909,-4.30810,28.23318,22.04656,-10.42869,-0.87435,0.00924,-0.20997,-0.43743,54.43611,-125.92220,75.48412
-0.09639,1.35435,-0.51414,0.14524,-0.85039,-0.02728,-0.58452,-0.64050,-0.83826,30.02258,14.10333,-7.00260,-0.87978,-0.03680,-0.26903,-0.39019,125.36460,-107.02520,230.20250
-0.07324,1.35370,-0.51816,0.48581,-0.66987,-0.08563,-0.29463,-0.32738,2.00740,23.53681,13.80247,-1.16236,-0.87690,-0.11053,-0.29548,-0.36265,58.50357,-3.12706,273.22480
-0.04683,1.35737,-0.51812,0.79867,-0.46059,-0.06436,-0.90695,0.55978,4.79633,13.98384,11.58310,4.15660,-0.86009,-0.21424,-0.30600,-0.34745,-34.14636,63.53648,193.31710
-0.02854,1.35957,-0.51499,0.91425,-0.32205,-0.00011,-1.72901,1.10756,5.81216,6.04614,12.31114,6.19595,-0.83786,-0.28616,-0.30467,-0.35112,-80.91100,31.81625,111.67930
-0.01343,1.36351,-0.50984,0.95093,-0.19051,0.07961,-2.51043,1.32362,6.25559,0.97020,11.00037,6.39324,-0.81055,-0.34744,-0.30288,-0.36132,-66.54166,13.51264,58.55104
-0.00170,1.37174,-0.50304,0.92616,-0.01840,0.16652,-3.34738,1.28333,6.39906,-2.59187,9.08197,2.26402,-0.77712,-0.40128,-0.30140,-0.37976,-50.29588,-20.34432,12.31666
0.00860,1.37713,-0.49965,0.88415,0.07296,0.18164,-3.42148,1.12289,6.40722,-4.09159,7.87548,-0.31593,-0.74955,-0.44488,-0.30531,-0.38346,-9.92459,-14.10702,9.75330
0.01680,1.38400,-0.49832,0.81887,0.16606,0.16011,-3.08768,0.91029,6.34944,-5.58262,6.40364,-3.00808,-0.72566,-0.48143,-0.31397,-0.37825,23.50794,-11.26037,-2.23477
0.02146,1.39158,-0.50013,0.70794,0.25134,0.09294,-2.55888,1.05372,6.16627,-7.04375,3.68088,-3.43363,-0.70833,-0.51539,-0.31586,-0.36452,21.13903,20.12601,-12.41483
0.02583,1.39737,-0.50059,0.61650,0.28939,0.06317,-2.31555,1.08423,5.92780,-8.13774,2.61305,-1.64652,-0.68840,-0.54679,-0.31674,-0.35610,23.05722,10.20888,-20.43218
0.02766,1.40365,-0.50086,0.50652,0.32620,0.04383,-2.22613,1.09437,5.72670,-6.53791,1.63606,-1.02085,-0.66662,-0.57737,-0.31609,-0.34979,9.82148,1.27836,-23.71743
0.02856,1.40935,-0.50133,0.40623,0.34491,0.02509,-2.36656,1.16446,5.52839,-4.84179,0.97704,-4.19728,-0.64249,-0.60881,-0.30967,-0.34737,-22.39974,4.88045,-20.31067
0.02850,1.41536,-0.50179,0.31317,0.36440,0.01123,-2.44864,1.18351,5.37708,-6.21773,1.44841,-0.33360,-0.61754,-0.63865,-0.30425,-0.34382,-1.08481,-0.57307,-11.64117
0.02731,1.42134,-0.50224,0.22302,0.37844,0.00089,-2.54407,1.15394,5.28964,-6.40221,0.20923,-0.83945,-0.58999,-0.66805,-0.29912,-0.34081,-3.43527,-5.30347,-3.06910
0.02511,1.42625,-0.50283,0.13660,0.37285,-0.00980,-2.56214,1.08981,5.12089,-5.97847,-0.72702,-0.85977,-0.56384,-0.69374,-0.29419,-0.33803,-5.90635,-5.25252,-9.62529
0.02196,1.43025,-0.50330,0.05440,0.35353,-0.01602,-2.53585,0.99830,4.94098,-5.69917,-2.18893,-0.00106,-0.53820,-0.71683,-0.29009,-0.33518,8.00120,-6.91997,-10.99336
0.01830,1.43282,-0.50366,-0.01732,0.31539,-0.01913,-2.83945,0.95239,4.73584,-4.74628,-3.83419,0.18442,-0.50961,-0.74071,-0.27810,-0.33809,-11.94636,-10.30241,-11.08312
0.01463,1.43348,-0.50390,-0.07322,0.25630,-0.02122,-3.23037,0.92095,4.45922,-3.65957,-4.72036,-0.21555,-0.48103,-0.76290,-0.26081,-0.34435,-29.91605,-15.06830,-14.95437
0.01080,1.43264,-0.50366,-0.11954,0.18611,-0.01494,-3.41661,0.78753,4.14573,-3.13886,-4.92994,0.53460,-0.45466,-0.78059,-0.24628,-0.35116,-16.84855,-15.96536,-19.16838
0.00679,1.43083,-0.50290,-0.15760,0.11578,-0.00036,-3.30995,0.58277,3.81863,-2.35890,-4.75759,0.76213,-0.43209,-0.79350,-0.23782,-0.35650,5.41382,-19.30503,-19.76317
0.00296,1.42841,-0.50172,-0.18425,0.05214,0.01738,-2.86702,0.41717,3.52677,-1.52593,-4.12550,0.95212,-0.41454,-0.80297,-0.23704,-0.35665,25.82483,-11.23699,-20.53953
-0.00040,1.42589,-0.50057,-0.19702,0.00165,0.03048,-2.39604,0.34039,3.28207,-0.61208,-4.20252,0.95096,-0.39950,-0.81142,-0.23854,-0.35369,43.29601,-3.02173,-19.79772
-0.00309,1.42186,-0.49960,-0.19592,-0.06134,0.03757,-2.23922,0.34061,2.99975,0.54718,-3.98049,0.86337,-0.38471,-0.82037,-0.23325,-0.35297,18.01466,1.10530,-19.62958
-0.00525,1.41749,-0.49871,-0.18642,-0.11766,0.04246,-2.47914,0.31584,2.80542,0.65246,-3.32476,0.52934,-0.36441,-0.83144,-0.21946,-0.35743,-12.73563,-5.23961,-12.28980
-0.00748,1.41357,-0.49771,-0.18057,-0.15428,0.04822,-2.63548,0.26788,2.68983,0.41593,-2.68070,0.20542,-0.34307,-0.84189,-0.20674,-0.36164,-18.91514,-9.24484,-8.43820
-0.00978,1.40914,-0.49613,-0.17716,-0.19044,0.06230,-2.47488,0.22928,2.57465,0.08333,-2.45981,1.11020,-0.32553,-0.84996,-0.20064,-0.36240,7.21982,-2.76662,-8.26273
-0.01206,1.40390,-0.49397,-0.17364,-0.23191,0.08163,-2.27407,0.17025,2.37354,0.37838,-2.64540,0.90868,-0.31141,-0.85583,-0.19571,-0.36370,14.05623,-3.99686,-11.55122
-0.01409,1.39866,-0.49199,-0.16719,-0.26447,0.09411,-2.10715,0.17373,2.16458,0.42264,-2.09063,0.83972,-0.29901,-0.86147,-0.18977,-0.36394,12.46312,0.88616,-15.11942
-0.01612,1.39367,-0.49016,-0.16213,-0.28538,0.10180,-2.01472,0.18713,2.01118,0.56698,-1.44357,0.84591,-0.28610,-0.86724,-0.18289,-0.36413,11.25451,0.06429,-13.99862
-0.01799,1.38867,-0.48799,-0.15558,-0.30150,0.11283,-2.11510,0.11586,1.88441,0.35315,-0.64336,0.88711,-0.27082,-0.87266,-0.17218,-0.36806,-5.88483,-6.02110,-7.86219
-0.01999,1.38388,-0.48542,-0.15256,-0.31120,0.12832,-2.15232,0.06647,1.74475,0.03547,-0.86370,0.97676,-0.25690,-0.87734,-0.16198,-0.37154,-2.57415,-6.11800,-5.85213
-0.02168,1.37905,-0.48248,-0.14502,-0.31917,0.14629,-1.89634,-0.09204,1.68802,0.40988,-0.96037,0.88721,-0.24423,-0.87965,-0.16063,-0.37519,12.23751,-8.18748,-4.73114
-0.02320,1.37350,-0.47975,-0.13620,-0.33723,0.15645,-1.65657,-0.11581,1.45134,0.80015,-1.74158,0.54908,-0.23767,-0.88119,-0.15759,-0.37707,19.22996,-2.10157,-13.75673
-0.02411,1.36715,-0.47724,-0.11965,-0.36453,0.16103,-1.47106,-0.12583,1.09082,1.34578,-2.24088,0.23800,-0.23589,-0.88142,-0.15248,-0.37975,13.51499,-2.36018,-22.82915
-0.02458,1.36050,-0.47481,-0.10001,-0.39017,0.16337,-1.30716,-0.12645,0.70772,1.60100,-2.07436,0.01219,-0.23743,-0.88075,-0.14661,-0.38264,12.78789,-2.55799,-29.81003
-0.02436,1.35352,-0.47252,-0.07344,-0.41493,0.16266,-1.04747,-0.08241,0.21423,1.69835,-0.92496,-0.15985,-0.24619,-0.87843,-0.14168,-0.38430,16.61745,0.19464,-32.21335
-0.02421,1.34735,-0.47024,-0.05429,-0.42123,0.16270,-0.79083,-0.04434,-0.14763,1.10563,0.25822,-0.03574,-0.25483,-0.87609,-0.13831,-0.38522,15.73896,1.20070,-27.49828
-0.02439,1.34227,-0.46751,-0.04496,-0.40790,0.17078,-0.27035,0.06177,-0.39668,0.50618,1.66577,0.84502,-0.26681,-0.87341,-0.14328,-0.38136,33.94763,6.52397,-20.74460
-0.02494,1.33836,-0.46395,-0.04361,-0.37818,0.19099,0.28342,0.06327,-0.58777,-0.08469,2.02927,1.61034,-0.27990,-0.86903,-0.15284,-0.37826,35.53780,0.02425,-12.09059
-0.02551,1.33493,-0.46020,-0.04278,-0.34706,0.20962,0.55928,-0.06758,-0.67885,0.54185,2.73735,1.77743,-0.28928,-0.86419,-0.16002,-0.37933,25.35499,-3.78486,-11.94722
-0.02609,1.33204,-0.45660,-0.04253,-0.31481,0.22115,0.60520,-0.26838,-0.66358,-0.29181,2.96366,0.78169,-0.29396,-0.85955,-0.16480,-0.38419,7.96637,-20.15600,1.06953
-0.02716,1.33053,-0.45342,-0.05020,-0.26758,0.22311,0.41611,-0.46688,-0.57192,-0.64763,3.93421,-0.14362,-0.29379,-0.85615,-0.16498,-0.39176,-9.21037,-13.46153,3.06340
-0.02877,1.33080,-0.45103,-0.06552,-0.20129,0.21170,0.18642,-0.56280,-0.33730,-1.04427,4.35920,-1.10557,-0.28862,-0.85525,-0.16434,-0.39779,-15.93749,-6.73075,13.01359
