posX, posY, posZ, velX, velY, velZ, angVelX, angVelY, angVelZ, accX, accY, accZ, rotX, rotY, rotZ, rotW, angAccX, angAccY, angAccZ
-0.02770,1.28187,-0.46854,-0.25581,0.24544,-0.00313,0.98441,0.20158,0.57598,-0.86467,1.25350,-1.17622,-0.12751,-0.87497,-0.09683,-0.45693,-0.32924,-2.53635,-2.01177
-0.03202,1.28624,-0.46950,-0.26839,0.26129,-0.01795,0.99743,0.23120,0.60039,-1.07760,1.51692,-1.46279,-0.12685,-0.87588,-0.10503,-0.45355,-0.35073,0.21932,1.09511
-0.03722,1.29163,-0.47124,-0.29333,0.29019,-0.04340,1.11070,0.36334,0.68197,-1.69625,1.52669,-1.59173,-0.12621,-0.87805,-0.11628,-0.44673,5.63849,6.51368,5.22984
-0.04275,1.29681,-0.47303,-0.31854,0.30940,-0.06424,1.25728,0.55509,0.76279,-1.75747,1.16999,-1.55968,-0.12614,-0.88106,-0.12893,-0.43727,10.19813,11.88679,6.61138
-0.04836,1.30187,-0.47517,-0.33880,0.32197,-0.08602,1.27601,0.69614,0.80504,-1.23431,0.69383,-1.21195,-0.12540,-0.88410,-0.13908,-0.42813,5.62163,13.02780,4.69037
-0.05382,1.30667,-0.47763,-0.35181,0.32833,-0.10719,1.11208,0.73225,0.82514,-0.93148,0.28036,-1.34128,-0.12242,-0.88676,-0.14473,-0.42157,-9.38163,3.12972,2.65703
-0.05933,1.31119,-0.48033,-0.36274,0.32825,-0.12722,0.80863,0.70199,0.83406,-0.70325,-0.21419,-1.15132,-0.11714,-0.88936,-0.14593,-0.41716,-18.90367,-1.71182,1.54138
-0.06483,1.31542,-0.48313,-0.37073,0.32304,-0.14476,0.51028,0.64881,0.82176,-0.36311,-0.40019,-1.27275,-0.11136,-0.89173,-0.14519,-0.41392,-22.08575,-6.48695,0.70307
-0.07021,1.31956,-0.48565,-0.37481,0.31754,-0.15326,0.46233,0.72567,0.79780,-0.35112,-0.68926,-0.65572,-0.10864,-0.89472,-0.14842,-0.40699,-8.27386,2.81403,-1.19406
-0.07557,1.32314,-0.48795,-0.37737,0.30375,-0.15577,0.42098,0.74381,0.73266,0.05227,-1.17420,0.16680,-0.10699,-0.89710,-0.15108,-0.40116,-2.76143,4.42728,-3.63785
-0.08050,1.32643,-0.48986,-0.37189,0.28796,-0.15082,0.46718,0.75672,0.61157,0.34447,-0.92315,0.32574,-0.10800,-0.89886,-0.15479,-0.39551,0.40397,-0.14914,-7.60044
-0.08553,1.32979,-0.49157,-0.36956,0.27691,-0.14385,0.55677,0.77431,0.51901,0.09509,-0.96679,0.69698,-0.10979,-0.90042,-0.15994,-0.38938,6.67720,3.14278,-8.44666
-0.09056,1.33301,-0.49314,-0.36786,0.26651,-0.13632,0.63489,0.78852,0.44011,0.20470,-0.68178,0.60903,-0.11203,-0.90181,-0.16530,-0.38322,6.74539,0.87762,-7.60132
-0.09563,1.33618,-0.49450,-0.36702,0.25744,-0.12737,0.62744,0.72800,0.37504,-0.07284,-0.40987,0.86153,-0.11336,-0.90268,-0.16916,-0.37909,1.74074,-0.86129,-4.94938
-0.10088,1.33945,-0.49571,-0.36925,0.25190,-0.11825,0.57802,0.61398,0.36319,-0.16498,-0.31106,0.50094,-0.11272,-0.90308,-0.17241,-0.37686,-5.92592,-9.65903,-1.44056
-0.10621,1.34277,-0.49689,-0.37231,0.24855,-0.11090,0.62094,0.60537,0.34907,-0.30626,-0.32536,0.28067,-0.11350,-0.90389,-0.17749,-0.37229,0.98940,-4.01859,-1.10852
-0.11165,1.34595,-0.49828,-0.37631,0.24355,-0.10906,0.73776,0.74338,0.27364,-0.21540,-0.34200,-0.43928,-0.11758,-0.90556,-0.18356,-0.36393,5.63324,5.85026,-3.30211
-0.11712,1.34921,-0.49990,-0.37982,0.24091,-0.11132,0.89950,0.99435,0.19216,-0.31269,-0.07882,0.19593,-0.12381,-0.90818,-0.19076,-0.35142,10.98739,18.44793,-5.79723
-0.12276,1.35244,-0.50129,-0.38576,0.23850,-0.10905,0.89772,1.03013,0.16396,-0.45106,-0.11920,0.55992,-0.12704,-0.90984,-0.19561,-0.34321,2.09355,6.40076,-2.35671
-0.12853,1.35581,-0.50240,-0.39246,0.23892,-0.10259,0.88413,1.00590,0.14106,-0.56231,0.17262,0.50123,-0.12986,-0.91095,-0.20024,-0.33647,-2.13747,-2.16521,-1.46148
-0.13450,1.35944,-0.50337,-0.40103,0.24389,-0.09561,0.85927,0.96412,0.14309,-0.86379,0.75956,0.67380,-0.13194,-0.91191,-0.20480,-0.33025,-0.46142,-1.86605,-1.20077
-0.14122,1.36385,-0.50415,-0.42064,0.26115,-0.08709,0.87674,0.94346,0.20792,-1.48721,1.48268,0.22791,-0.13271,-0.91289,-0.21084,-0.32336,0.07300,-3.79988,3.49992
-0.14848,1.36882,-0.50506,-0.44483,0.28392,-0.08331,0.88315,0.97232,0.30382,-1.87813,1.87634,0.21076,-0.13250,-0.91442,-0.21703,-0.31491,2.11485,1.95096,6.03299
-0.15615,1.37424,-0.50597,-0.47001,0.30857,-0.08036,0.90838,1.02472,0.42059,-2.28129,2.30327,0.17961,-0.13142,-0.91617,-0.22397,-0.30529,-0.19002,1.91353,8.33887
-0.16469,1.38043,-0.50668,-0.50338,0.33999,-0.07455,0.93584,1.07547,0.56716,-2.37292,2.17795,0.60067,-0.12888,-0.91805,-0.23170,-0.29478,4.64130,5.22500,11.29120
-0.17367,1.38724,-0.50727,-0.53710,0.37490,-0.06880,0.94241,1.08070,0.65588,-2.06663,2.11740,0.13603,-0.12654,-0.91948,-0.23886,-0.28545,0.33329,-0.92865,6.62716
-0.18254,1.39410,-0.50798,-0.56100,0.40248,-0.06604,0.99017,1.14850,0.67676,-2.07923,2.44173,0.13662,-0.12628,-0.92087,-0.24641,-0.27446,2.30650,3.85623,2.64886
-0.19213,1.40179,-0.50859,-0.59096,0.43712,-0.06176,1.05425,1.23405,0.68886,-2.17961,2.61206,0.43428,-0.12662,-0.92215,-0.25453,-0.26233,5.15080,7.01818,0.49828
-0.20247,1.41047,-0.50879,-0.62695,0.48034,-0.05220,1.12912,1.29894,0.72837,-2.32659,2.73789,0.88554,-0.12634,-0.92312,-0.26351,-0.24989,4.95849,4.70189,1.76506
-0.21301,1.41938,-0.50864,-0.65835,0.51795,-0.03844,1.19931,1.31213,0.76743,-2.15703,2.65856,1.04173,-0.12561,-0.92354,-0.27296,-0.23829,4.14255,1.09932,3.24163
-0.22353,1.42846,-0.50827,-0.68152,0.54926,-0.02413,1.30724,1.36391,0.76811,-1.82086,2.58259,1.13981,-0.12631,-0.92351,-0.28343,-0.22550,6.88628,2.61709,1.07697
-0.23431,1.43842,-0.50732,-0.70338,0.58685,-0.00470,1.48292,1.47447,0.73140,-1.48451,2.76250,1.52158,-0.12926,-0.92274,-0.29583,-0.21054,11.90171,8.51642,-2.49050
-0.24542,1.44926,-0.50563,-0.72602,0.63094,0.02264,1.71062,1.58853,0.67008,-1.33532,2.80514,1.88325,-0.13389,-0.92084,-0.31022,-0.19467,13.53421,8.01067,-4.16959
-0.25658,1.46036,-0.50371,-0.74447,0.67055,0.04934,1.85233,1.60893,0.63574,-1.29224,2.91219,2.10232,-0.13738,-0.91845,-0.32402,-0.18050,12.04349,5.03084,-4.04155
-0.26807,1.47211,-0.50129,-0.76431,0.71105,0.07661,1.94933,1.61851,0.63864,-1.48660,2.92749,1.88047,-0.13987,-0.91586,-0.33759,-0.16634,6.92632,-0.33992,-1.41160
-0.27990,1.48438,-0.49845,-0.78518,0.75068,0.10469,2.04952,1.66921,0.68105,-1.45944,2.81437,2.13192,-0.14173,-0.91297,-0.35179,-0.15045,7.61352,3.66032,2.14747
-0.29200,1.49707,-0.49500,-0.80581,0.78820,0.13671,2.14983,1.70454,0.74257,-1.45235,2.53411,2.45267,-0.14283,-0.90950,-0.36661,-0.13418,7.67773,2.41812,3.99938
-0.30419,1.51016,-0.49073,-0.82330,0.82269,0.17365,2.24714,1.72262,0.79803,-1.11898,2.48701,2.86415,-0.14362,-0.90535,-0.38185,-0.11789,6.35134,1.42442,3.73408
-0.31642,1.52341,-0.48592,-0.83711,0.85162,0.21089,2.33267,1.72806,0.85416,-1.21068,2.36996,3.35681,-0.14395,-0.90060,-0.39734,-0.10153,8.40133,1.53214,2.73689
-0.32924,1.53735,-0.47964,-0.85942,0.88755,0.26584,2.38424,1.64053,0.99173,-1.61130,2.18039,3.66224,-0.14069,-0.89557,-0.41311,-0.08662,5.21111,-5.30880,6.39372
-0.34228,1.55095,-0.47335,-0.88067,0.91002,0.30854,2.37064,1.54475,1.15520,-1.91825,1.76722,3.61325,-0.13518,-0.89091,-0.42757,-0.07205,1.67291,-9.43304,10.40343
-0.35571,1.56461,-0.46638,-0.90277,0.92750,0.35151,2.35042,1.46694,1.33290,-1.94317,1.23310,3.62215,-0.12789,-0.88616,-0.44172,-0.05696,0.73748,-9.50300,13.58271
-0.37004,1.57810,-0.45819,-0.93079,0.93894,0.40880,2.31633,1.38228,1.57297,-1.43739,0.40088,3.71912,-0.11729,-0.88148,-0.45555,-0.04122,0.65770,-7.43795,14.64836
-0.38395,1.59102,-0.44975,-0.94545,0.94067,0.46191,2.32282,1.30826,1.70965,-0.85873,-0.31859,4.04147,-0.10803,-0.87579,-0.46971,-0.02617,0.56732,-7.36889,10.46076
-0.39769,1.60332,-0.44030,-0.95340,0.93038,0.51848,2.36379,1.23522,1.78249,-0.28119,-1.09860,4.19286,-0.09943,-0.86901,-0.48457,-0.01172,3.59358,-5.55341,5.68396
-0.41100,1.61508,-0.42968,-0.95318,0.91112,0.57711,2.44102,1.19933,1.78220,0.08287,-1.76249,4.18087,-0.09261,-0.86097,-0.50015,0.00269,4.65075,-3.72032,-0.47869
-0.42406,1.62582,-0.41845,-0.94871,0.87951,0.63311,2.52428,1.18674,1.75361,0.68874,-2.76931,3.92053,-0.08672,-0.85199,-0.51604,0.01729,7.79899,1.89900,-0.78741
-0.43662,1.63535,-0.40667,-0.93724,0.83428,0.68532,2.48126,1.04809,1.67596,0.56032,-3.18843,2.80811,-0.08036,-0.84413,-0.52939,0.02726,-1.73447,-9.42567,-7.44899
-0.44913,1.64461,-0.39527,-0.92891,0.79353,0.71597,2.44705,1.03842,1.65446,0.78668,-3.59012,2.12602,-0.07427,-0.83604,-0.54213,0.04029,-2.94966,-3.88769,-2.41206
-0.46098,1.65222,-0.38358,-0.91200,0.73380,0.74397,2.34390,1.05239,1.60738,1.17875,-4.12424,1.38699,-0.06930,-0.82878,-0.55271,0.05320,-6.17255,1.05954,-3.05200
-0.47253,1.65905,-0.37234,-0.89306,0.67499,0.75837,2.20833,1.05970,1.55053,1.62870,-4.37660,0.79070,-0.06478,-0.82212,-0.56180,0.06558,-9.08649,0.07046,-2.37122
-0.48345,1.66494,-0.36115,-0.86831,0.61365,0.76776,2.07088,1.09761,1.46051,1.78627,-4.68263,0.52462,-0.06197,-0.81568,-0.56988,0.07792,-10.96054,1.61163,-5.73189
-0.49383,1.66948,-0.35008,-0.84060,0.54435,0.77330,1.95880,1.13729,1.38308,2.19463,-5.23659,0.22911,-0.05956,-0.80911,-0.57761,0.09035,-9.00680,2.83852,-4.14907
-0.50350,1.67267,-0.33923,-0.80701,0.46864,0.77372,1.88715,1.20151,1.30307,2.65547,-5.64687,-0.26405,-0.05818,-0.80197,-0.58548,0.10325,-6.83679,4.06893,-4.76570
-0.51240,1.67528,-0.32872,-0.77043,0.40147,0.76681,1.80527,1.23017,1.19048,3.58742,-5.81801,-0.94898,-0.05785,-0.79507,-0.59275,0.11475,-6.25062,4.65142,-5.99788
-0.51903,1.67579,-0.31938,-0.70476,0.31457,0.74082,1.59402,1.16263,0.88857,4.74521,-5.59305,-2.35932,-0.06159,-0.79061,-0.59725,0.12014,-12.94664,-3.12204,-16.21634
-0.52460,1.67603,-0.31133,-0.63441,0.24357,0.70043,1.33582,1.15266,0.55018,5.14233,-4.81761,-3.55598,-0.06874,-0.78747,-0.59974,0.12445,-18.95167,-2.41180,-22.81094
-0.52889,1.67579,-0.30451,-0.56003,0.18064,0.64823,1.07041,1.37668,0.27212,4.95547,-4.24035,-4.29234,-0.08056,-0.78459,-0.60006,0.13361,-21.83919,11.82092,-20.13171
-0.53289,1.67549,-0.29816,-0.49877,0.13276,0.60204,0.88157,1.75193,0.12770,4.79614,-3.65961,-3.65179,-0.09443,-0.78056,-0.59971,0.14886,-19.76126,26.74045,-10.75262
-0.53522,1.67358,-0.29270,-0.42406,0.06952,0.55166,0.80128,2.21951,0.00153,4.64829,-3.85613,-2.82622,-0.11169,-0.77403,-0.60007,0.16830,-6.85733,32.75625,-5.17435
-0.53790,1.67205,-0.28705,-0.37233,0.02769,0.51602,0.73952,2.34392,-0.10829,4.56044,-3.21815,-2.76217,-0.12509,-0.76811,-0.60109,0.18179,-4.15377,19.07016,-7.02852
-0.53968,1.67011,-0.28214,-0.31907,-0.01046,0.47686,0.61406,2.18915,-0.23291,3.66603,-2.46181,-2.55302,-0.13539,-0.76468,-0.60122,0.18830,-9.67221,-4.64490,-8.69423
-0.54137,1.66799,-0.27791,-0.27472,-0.04343,0.43605,0.45502,1.79510,-0.27135,2.30856,-1.65695,-2.36429,-0.13977,-0.76403,-0.60078,0.18919,-10.78556,-22.26390,-4.08202
-0.54362,1.66614,-0.27402,-0.24925,-0.06529,0.39732,0.25617,1.19883,-0.20107,1.25148,-1.00653,-2.48915,-0.13727,-0.76654,-0.59938,0.18526,-12.59903,-35.78417,3.93233
-0.54617,1.66483,-0.27051,-0.23410,-0.07254,0.36094,0.06221,0.73436,-0.05113,0.84223,0.06921,-2.72852,-0.13265,-0.77012,-0.59664,0.18258,-13.89874,-37.44730,9.10417
-0.54700,1.66379,-0.26701,-0.21261,-0.07073,0.32710,-0.06673,0.51121,0.12434,1.37925,0.37955,-2.47762,-0.12875,-0.77294,-0.59344,0.18390,-10.39770,-19.92684,13.55457
-0.54707,1.66305,-0.26359,-0.18725,-0.06389,0.29933,-0.14143,0.40352,0.19955,2.00478,0.96461,-2.26797,-0.12705,-0.77483,-0.59077,0.18570,-6.53336,-11.29433,9.56338
-0.54570,1.66297,-0.26040,-0.14523,-0.04772,0.27401,-0.07803,0.48351,0.27056,2.51434,1.25242,-1.12032,-0.12723,-0.77388,-0.59004,0.19175,1.46938,3.33468,4.73296
-0.54566,1.66330,-0.25722,-0.10823,-0.03088,0.26179,0.05623,0.46848,0.25050,3.05178,1.30225,-0.69162,-0.12740,-0.77148,-0.59197,0.19532,9.84219,4.29120,-0.02432
-0.54519,1.66394,-0.25415,-0.07319,-0.01304,0.25064,0.13293,0.32219,0.18420,3.25980,1.49915,-1.16123,-0.12646,-0.77007,-0.59419,0.19478,8.14879,-9.55679,-4.43207
-0.54327,1.66546,-0.25204,-0.02216,0.01565,0.22577,0.15187,0.06898,0.05412,3.16856,1.89987,-2.03027,-0.12504,-0.76982,-0.59653,0.18944,1.98260,-16.40555,-8.24668
-0.53987,1.66726,-0.25048,0.02620,0.04516,0.19392,0.10617,-0.05298,-0.03958,3.13875,2.36555,-2.53178,-0.12502,-0.77030,-0.59713,0.18557,-3.50274,-12.76823,-7.12549
-0.53620,1.66933,-0.24917,0.06961,0.07125,0.16689,0.11968,0.00555,-0.09400,3.37286,2.28910,-2.22790,-0.12704,-0.76916,-0.59817,0.18561,-0.44024,1.19438,-5.23400
-0.53167,1.67197,-0.24847,0.11961,0.10006,0.13735,0.17968,0.06604,-0.18371,3.29051,2.07910,-2.23659,-0.13019,-0.76683,-0.60056,0.18536,3.54663,3.93781,-5.57817
-0.52702,1.67535,-0.24858,0.17032,0.13390,0.10389,0.30705,0.32338,-0.19249,3.11140,2.06165,-1.98225,-0.13524,-0.76210,-0.60363,0.19117,8.03798,15.52710,-1.34813
-0.52232,1.67866,-0.24869,0.21060,0.15902,0.07762,0.37326,0.34987,-0.26933,3.08370,1.55043,-1.60556,-0.13906,-0.75854,-0.60697,0.19202,6.20147,7.72186,-3.31275
-0.51738,1.68215,-0.24873,0.24495,0.18097,0.05878,0.43101,0.21822,-0.38030,2.10896,1.47391,-0.94155,-0.14136,-0.75551,-0.61132,0.18845,2.71370,-8.10586,-8.78530
-0.51260,1.68589,-0.24843,0.26858,0.20232,0.05010,0.57127,0.03463,-0.43226,0.79657,1.54117,-0.08075,-0.14098,-0.75141,-0.61781,0.18388,6.84715,-13.25340,-5.73648
-0.50842,1.68956,-0.24761,0.27626,0.21711,0.05227,0.76874,-0.04011,-0.37797,0.35812,1.35400,0.51357,-0.13912,-0.74561,-0.62553,0.18280,13.61942,-7.56457,2.28980
-0.50460,1.69344,-0.24621,0.27564,0.23183,0.06410,1.03586,-0.23950,-0.27973,-0.23470,0.97351,1.34990,-0.13280,-0.73850,-0.63604,0.18013,17.93776,-11.58203,6.18430
-0.50144,1.69723,-0.24396,0.26342,0.24142,0.08799,1.40033,-0.55219,-0.11782,-1.04482,0.46220,1.65381,-0.12091,-0.72945,-0.64984,0.17605,21.76788,-19.94662,8.32758
-0.49871,1.70082,-0.24171,0.24702,0.24539,0.10574,1.69442,-0.76428,0.05535,-1.90005,0.43400,1.16214,-0.10819,-0.71979,-0.66343,0.17340,23.42719,-21.45507,10.57294
-0.49685,1.70468,-0.23962,0.21997,0.25315,0.11596,1.97182,-0.95376,0.38716,-1.96488,0.57388,0.20704,-0.09014,-0.70941,-0.67698,0.17407,22.57439,-14.21122,22.08173
-0.49572,1.70896,-0.23833,0.18636,0.26634,0.10986,2.00761,-1.43731,0.68590,-1.77804,0.65976,-0.87513,-0.06585,-0.70366,-0.68725,0.16798,4.61131,-28.91790,17.85710
-0.49416,1.71329,-0.23736,0.16874,0.27688,0.10036,1.92934,-1.76265,0.81276,-1.78164,1.03029,-0.93182,-0.04467,-0.69923,-0.69526,0.16028,-4.23960,-38.52469,8.87949
-0.49333,1.71767,-0.23637,0.14336,0.28534,0.09395,1.93353,-2.16562,1.03527,-1.55641,0.12461,0.02566,-0.01717,-0.69405,-0.70354,0.15177,-1.72495,-27.17318,10.70216
-0.49252,1.72134,-0.23483,0.12305,0.28004,0.09797,2.03761,-2.48170,1.18706,-1.43007,-0.74331,0.63919,0.01048,-0.68602,-0.71331,0.14301,5.90649,-23.79465,9.45360
-0.49208,1.72421,-0.23288,0.10127,0.26229,0.10801,2.23010,-2.82705,1.31731,-1.63775,-1.61803,0.73552,0.04105,-0.67519,-0.72450,0.13244,13.17103,-23.40992,8.63349
-0.49200,1.72662,-0.23097,0.07872,0.24113,0.11486,2.38968,-3.08882,1.46918,-1.90816,-1.28279,0.27274,0.07280,-0.66318,-0.73475,0.12264,12.99377,-24.18328,7.27795
-0.49213,1.72878,-0.22892,0.05795,0.22082,0.12255,2.54396,-3.16531,1.73213,-1.31073,-1.66873,0.61547,0.10494,-0.64916,-0.74401,0.11843,8.34187,-7.81602,19.87877
-0.49224,1.73050,-0.22642,0.04251,0.19776,0.13631,2.67885,-3.26855,1.86555,-0.84060,-1.91985,1.50737,0.13660,-0.63402,-0.75290,0.11180,7.30811,-7.67155,13.26496
-0.49259,1.73115,-0.22288,0.02616,0.16112,0.16471,2.90591,-3.48365,1.86147,-0.92179,-2.82489,2.08501,0.16919,-0.61579,-0.76301,0.09998,14.23153,-10.27881,3.24878
-0.49317,1.73100,-0.21895,0.00962,0.11897,0.19363,3.15239,-3.75023,1.72731,-1.24754,-3.47361,2.11250,0.20143,-0.59559,-0.77319,0.08297,20.07588,-16.39941,-7.77615
-0.49398,1.72949,-0.21493,-0.00692,0.06335,0.21656,3.44277,-3.91509,1.61108,-1.17122,-4.26964,1.06325,0.23266,-0.57201,-0.78381,0.06569,23.87688,-10.37839,-5.83070
-0.49489,1.72704,-0.21133,-0.02123,0.00506,0.22651,3.67285,-3.90393,1.60842,-1.32496,-4.04393,-0.04050,0.26212,-0.54658,-0.79361,0.05226,20.24611,-1.10356,-0.93911
-0.49582,1.72395,-0.20846,-0.03209,-0.05006,0.22121,3.76558,-3.70746,1.78815,-0.54650,-3.63217,-1.11701,0.29005,-0.52094,-0.80146,0.04639,5.15456,9.33584,15.93319
-0.49656,1.72079,-0.20621,-0.03719,-0.09286,0.20665,3.72467,-3.46232,1.94779,-0.31703,-2.84442,-1.26747,0.31552,-0.49687,-0.80728,0.04319,-5.34198,13.78746,14.02797
-0.49732,1.71720,-0.20458,-0.04137,-0.13304,0.18459,3.66698,-3.25349,2.07897,-0.17747,-3.08835,-1.94617,0.34005,-0.47269,-0.81195,0.04082,-10.67791,14.03326,14.45776
-0.49842,1.71343,-0.20394,-0.05055,-0.16587,0.15129,3.71551,-3.31568,1.93397,-0.70057,-2.77064,-2.89281,0.36531,-0.44766,-0.81568,0.02862,0.88299,3.86597,-0.60470
-0.50034,1.70922,-0.20534,-0.07136,-0.19807,0.09077,3.80898,-3.56438,1.52794,-1.32588,-1.64411,-4.45508,0.39021,-0.42331,-0.81762,0.00581,13.10782,-7.89474,-26.06278
-0.50247,1.70550,-0.20787,-0.09115,-0.21447,0.02476,3.90296,-3.82095,1.09180,-1.52090,-0.83509,-4.84997,0.41457,-0.39896,-0.81764,-0.02097,14.15073,-10.23392,-30.99870
-0.50475,1.70198,-0.21080,-0.10842,-0.22361,-0.03121,3.92696,-3.93775,0.83863,-1.77029,-0.52713,-4.91941,0.43759,-0.37460,-0.81621,-0.04463,13.77667,-7.31636,-29.91414
-0.50741,1.69772,-0.21517,-0.12794,-0.24341,-0.09808,3.74738,-3.83281,0.99387,-1.24869,-1.41435,-4.16490,0.46038,-0.35115,-0.81343,-0.05545,-10.57392,2.14544,3.89868
-0.50984,1.69280,-0.21944,-0.13921,-0.27046,-0.14852,3.48980,-3.60073,1.34382,-0.91187,-2.16850,-3.50556,0.48204,-0.32775,-0.81051,-0.05733,-21.81640,8.60721,20.02619
-0.51220,1.68743,-0.22338,-0.14621,-0.29740,-0.17988,3.22534,-3.41711,1.71737,-0.84733,-2.95685,-3.14900,0.50428,-0.30424,-0.80628,-0.05519,-31.50484,9.45633,27.54019
-0.51463,1.67960,-0.22945,-0.15255,-0.35946,-0.23987,2.86749,-3.18672,2.34973,0.32982,-3.68626,-3.39099,0.52773,-0.27969,-0.80099,-0.04119,-31.09940,3.85408,34.90673
-0.51652,1.67223,-0.23611,-0.14835,-0.40033,-0.29829,2.79799,-3.09921,2.50197,0.48321,-1.67465,-3.52673,0.54861,-0.25371,-0.79569,-0.03929,-7.95645,3.05025,12.55489
-0.51850,1.66621,-0.24283,-0.14684,-0.40783,-0.34390,2.66074,-3.07596,2.45900,-0.07967,0.39306,-3.13270,0.56855,-0.23138,-0.78840,-0.04054,-5.69087,1.21072,-3.28670
-0.52058,1.66083,-0.24947,-0.14760,-0.40266,-0.37643,2.34561,-3.07639,2.58699,-0.37602,0.81700,-2.90298,0.58988,-0.21155,-0.77849,-0.03522,-19.53723,-1.46912,-1.90077
-0.52235,1.65575,-0.25749,-0.14237,-0.39342,-0.42561,1.82780,-3.19450,2.91325,0.65523,0.54653,-3.60367,0.61514,-0.19411,-0.76385,-0.02107,-34.75704,-12.91066,14.48711
-0.52353,1.65079,-0.26694,-0.12780,-0.38404,-0.48911,1.53205,-3.47714,2.99135,1.63098,0.49109,-5.25355,0.64223,-0.17637,-0.74583,-0.01330,-23.40771,-22.04970,3.75628
-0.52382,1.64599,-0.27789,-0.10141,-0.37447,-0.56182,1.43760,-3.85840,2.98497,2.83931,0.90716,-6.45481,0.67132,-0.15636,-0.72442,-0.01007,-6.11632,-28.50064,-5.37205
-0.52210,1.64199,-0.29113,-0.04696,-0.35321,-0.65505,1.44978,-4.37154,2.91334,4.98276,1.91276,-6.38674,0.70350,-0.13516,-0.69764,-0.01094,5.18181,-36.74563,-5.97209
-0.51817,1.63911,-0.30525,0.03237,-0.31805,-0.74064,1.64655,-4.81244,2.82640,6.55673,2.98050,-5.57617,0.73473,-0.11021,-0.66915,-0.01607,19.63503,-29.26716,-7.51761
-0.51158,1.63781,-0.31953,0.13819,-0.26377,-0.80841,1.94905,-5.15020,2.80711,8.67244,4.72083,-3.84638,0.76425,-0.08093,-0.63941,-0.02286,23.71202,-23.74269,2.68899
-0.50320,1.63812,-0.33300,0.24735,-0.19640,-0.84538,2.29595,-5.28082,2.79612,10.12871,6.59033,-2.18051,0.78939,-0.04910,-0.61112,-0.03139,28.93132,-10.96623,6.21034
-0.48964,1.64302,-0.34530,0.41844,-0.06643,-0.85299,2.85806,-5.12569,2.71030,11.94653,9.83402,1.98172,0.80763,-0.01316,-0.58770,-0.04661,29.53704,6.33846,7.84979
-0.47489,1.65157,-0.35437,0.57091,0.09673,-0.80396,3.43427,-4.42949,2.44446,10.65002,13.78986,5.44537,0.81381,0.02038,-0.57685,-0.06744,38.41902,49.44430,6.23998
-0.46011,1.66472,-0.35968,0.68685,0.29967,-0.70225,3.76944,-3.42593,2.17402,8.26449,17.92720,9.48396,0.81138,0.04965,-0.57591,-0.08676,22.15245,63.59392,13.49239
-0.44653,1.68365,-0.36046,0.75436,0.55217,-0.54758,3.78093,-1.99734,1.11645,2.71784,19.08676,12.36339,0.79748,0.05357,-0.58956,-0.11652,10.04537,114.94750,-50.90292
-0.43541,1.70478,-0.35865,0.76423,0.77804,-0.38904,3.34241,-0.76092,0.22988,-0.77756,20.24353,13.12624,0.78172,0.04609,-0.60642,-0.13802,-18.75180,120.22220,-46.92098
-0.42644,1.73442,-0.35095,0.73570,1.09406,-0.16887,2.18717,0.61069,-1.30767,-2.22442,20.85631,13.76623,0.76018,0.00219,-0.63059,-0.15647,-65.55004,104.25060,-74.29690
-0.41798,1.76646,-0.34223,0.70528,1.37999,0.01941,1.13894,1.68962,-3.05497,-1.71312,20.23371,13.01557,0.73590,-0.05777,-0.64979,-0.18132,-71.79015,102.81180,-107.31430
-0.40792,1.80166,-0.33101,0.71061,1.65213,0.20630,0.01476,2.69006,-4.71551,2.76343,19.17771,14.02765,0.70484,-0.13148,-0.66644,-0.20437,-67.22256,90.62852,-109.52130
-0.39325,1.83887,-0.31634,0.79362,1.89293,0.40683,-1.53413,3.78813,-6.06108,9.20602,15.94552,14.19629,0.66405,-0.22055,-0.68228,-0.21187,-94.34132,105.81220,-90.12389
-0.37656,1.87635,-0.30014,0.96639,2.08912,0.59944,-2.95629,5.18344,-6.91489,16.43170,11.93016,13.35823,0.60704,-0.31123,-0.70114,-0.20746,-81.87693,121.67040,-60.84250
-0.36397,1.91282,-0.28492,1.17404,2.21552,0.74110,-4.01574,6.53096,-7.22797,21.91642,8.66337,10.74455,0.53915,-0.39334,-0.71917,-0.19340,-50.16875,134.87030,-41.35100
-0.34209,1.95175,-0.26740,1.50913,2.30870,0.85800,-4.97256,8.14946,-7.29352,28.72028,4.02577,6.93598,0.45282,-0.47360,-0.73701,-0.16576,-28.86909,133.84430,-22.78852
-0.29692,1.98830,-0.25154,2.00237,2.35173,0.91055,-4.99463,10.03166,-7.35965,34.73964,-0.04668,0.68249,0.34328,-0.53569,-0.75812,-0.14298,26.56245,108.01180,-41.61507
-0.24323,2.02037,-0.24086,2.43154,2.33707,0.87647,-4.58537,11.34619,-7.68244,37.55309,-3.30011,-6.17414,0.22723,-0.58491,-0.76758,-0.13066,45.38269,78.92603,-80.94431
-0.17656,2.04818,-0.23730,2.96616,2.25463,0.73367,-3.98665,12.63439,-8.42556,39.43428,-9.23443,-14.20244,0.09171,-0.62456,-0.76542,-0.12506,24.28710,57.90526,-92.30251
-0.09832,2.06667,-0.24536,3.57607,2.03169,0.42674,-4.03099,14.06990,-9.28709,36.36992,-19.25203,-25.27361,-0.05853,-0.66311,-0.73827,-0.10871,-12.67783,67.04585,-84.62560
-0.02337,2.07714,-0.25913,3.98545,1.72687,0.09985,-4.25036,15.28094,-9.59245,31.04889,-31.68379,-30.02436,-0.20342,-0.68757,-0.69282,-0.07662,-5.81076,94.93083,-44.26460
0.05241,2.07298,-0.28192,4.30265,1.26714,-0.28545,-3.85314,16.58656,-9.56235,20.63608,-44.71519,-33.69529,-0.35040,-0.68188,-0.64122,-0.03302,35.28628,82.96999,-66.53935
0.12506,2.03204,-0.32380,4.48306,0.29913,-0.90534,-1.63146,17.72403,-9.68661,-0.71493,-61.45779,-32.75822,-0.49910,-0.61944,-0.60590,0.00903,68.14816,-0.04791,-123.46290
0.18225,1.99024,-0.35992,4.37741,-0.46432,-1.29213,0.35152,17.49216,-10.67279,-16.48508,-66.52977,-29.82083,-0.62729,-0.53746,-0.56331,0.01802,5.33165,-51.77939,-163.26800
0.21267,1.91701,-0.40710,3.84087,-1.58243,-1.77217,1.61577,15.78183,-12.96382,-42.54745,-58.18973,-22.46556,-0.73743,-0.43806,-0.51337,-0.02750,-134.40010,-59.59602,-112.25240
0.22750,1.85304,-0.44558,3.14328,-2.30600,-2.01688,1.72500,14.59241,-13.98708,-57.61813,-44.23890,-12.41092,-0.82214,-0.35188,-0.44402,-0.05579,-118.29330,-30.69004,-48.57418
0.23007,1.79285,-0.47878,2.41961,-2.77632,-2.10289,1.94557,13.83877,-14.41042,-64.57149,-32.25250,-2.47500,-0.88920,-0.26007,-0.36990,-0.06969,-79.87319,-25.26480,-3.35685
0.20270,1.72946,-0.50430,1.36356,-3.18067,-2.02958,3.60235,12.64972,-15.14290,-67.76482,-15.35588,11.58879,-0.93641,-0.12833,-0.31903,-0.06995,-34.48049,-84.36594,-92.43256
0.17550,1.67901,-0.52075,0.56833,-3.27734,-1.82908,4.33675,11.13272,-15.95375,-63.79339,-1.44503,21.86846,-0.95988,0.00302,-0.26751,-0.08405,-83.84810,-84.52903,-92.44958
0.13437,1.64023,-0.52358,-0.25689,-3.15104,-1.44886,3.48705,8.94286,-16.73413,-53.16225,16.31483,32.22354,-0.95728,0.11947,-0.22543,-0.13608,-165.85280,-34.64223,-40.12436
0.09523,1.61837,-0.51526,-0.84840,-2.77209,-0.97081,1.15161,7.33561,-16.26204,-31.14633,34.86901,35.14150,-0.94288,0.18772,-0.17777,-0.21010,-175.98400,67.93546,91.35049
0.06817,1.61646,-0.49874,-1.09711,-2.13923,-0.46383,-0.63210,5.59987,-14.61230,0.87829,43.02065,27.38981,-0.92262,0.22765,-0.15521,-0.26991,-111.81330,20.88583,144.23810
0.05934,1.61429,-0.48956,-0.98362,-1.66817,-0.20122,-1.20048,4.17093,-12.73266,18.11900,36.83500,17.36703,-0.90522,0.26194,-0.14506,-0.30154,-96.62092,-36.39220,166.59460
0.06674,1.61787,-0.48224,-0.62636,-1.22018,-0.03632,-1.90495,2.58267,-10.12871,32.35505,28.04497,6.29757,-0.89095,0.26656,-0.15981,-0.33107,-82.00033,-48.10624,188.05510
0.08827,1.61904,-0.48291,-0.11826,-0.91602,-0.04475,-1.64238,1.25198,-6.17768,38.45535,16.04232,-6.21835,-0.89714,0.22776,-0.19395,-0.32503,-19.92461,-67.61572,262.42720
0.11841,1.61495,-0.49120,0.41286,-0.76978,-0.17575,-0.74469,-0.35227,-1.69104,36.73412,8.76439,-10.01318,-0.91055,0.15776,-0.25404,-0.28542,44.77176,-90.78596,344.02630
0.15043,1.61037,-0.49980,0.84991,-0.66616,-0.27861,-0.07832,-1.64493,1.66248,26.62100,6.90479,-4.33363,-0.91346,0.08993,-0.31353,-0.24330,37.31370,-103.67940,253.93890
0.18044,1.60679,-0.50455,1.15274,-0.56948,-0.29399,0.36828,-2.43344,4.22791,17.38729,6.26079,2.11009,-0.90897,0.01940,-0.36472,-0.20094,21.02097,-61.38357,209.07550
0.20616,1.60278,-0.50503,1.31227,-0.50407,-0.23619,-0.01339,-3.08748,5.57082,10.55444,4.24805,6.36927,-0.89158,-0.03988,-0.41262,-0.18233,-12.05441,-50.77896,136.88600
0.22881,1.60040,-0.49890,1.38294,-0.42641,-0.08120,-0.92637,-3.90150,6.40978,-2.52472,3.67659,9.97342,-0.86065,-0.09735,-0.46609,-0.18044,-36.73557,-68.62421,43.74890
0.24289,1.59665,-0.49186,1.29647,-0.38878,0.05527,-1.86364,-3.70184,6.36909,-11.16793,1.42845,10.12408,-0.83701,-0.14403,-0.49166,-0.19220,-55.36433,-26.33677,4.81433
0.25204,1.59256,-0.48409,1.14944,-0.36558,0.17036,-2.96128,-3.19281,5.85667,-13.86650,1.98790,8.91012,-0.81518,-0.18485,-0.50291,-0.21998,-90.81253,-4.01610,-67.54074
0.25423,1.58820,-0.47508,0.91915,-0.35251,0.27860,-3.94013,-2.64606,5.10599,-14.95660,0.37319,4.77452,-0.79431,-0.21970,-0.50595,-0.25461,-61.01855,-3.45457,-61.37476
0.25590,1.58292,-0.46866,0.73106,-0.35727,0.31870,-4.60700,-1.89918,4.45901,-12.16653,-0.22810,1.40529,-0.77767,-0.25441,-0.49895,-0.28557,-54.08320,20.96815,-63.26467
0.25863,1.57763,-0.46375,0.60791,-0.36113,0.32445,-4.92244,-1.49271,4.00024,-8.00981,0.53837,-0.44962,-0.75909,-0.28633,-0.49504,-0.31102,-41.03681,19.37711,-58.43093
0.26098,1.57306,-0.46010,0.50777,-0.35105,0.30729,-4.96616,-1.36575,3.73226,-4.21117,1.73834,-1.84399,-0.73805,-0.31596,-0.49612,-0.33062,-6.35911,1.21615,-24.46622
0.26524,1.56973,-0.45755,0.46125,-0.32214,0.27491,-4.76870,-1.37900,3.84778,-2.46084,2.86337,-3.03803,-0.71405,-0.34869,-0.50289,-0.34007,9.31728,3.16528,0.99638
0.26977,1.56696,-0.45608,0.43016,-0.29203,0.23299,-4.41338,-1.40755,4.08685,-2.65292,2.64189,-4.12166,-0.68930,-0.38136,-0.51233,-0.34198,21.38833,9.19480,21.43395
0.27284,1.56464,-0.45677,0.38206,-0.26037,0.16344,-3.85433,-1.28045,4.42913,-3.87538,1.45774,-4.58116,-0.66704,-0.41398,-0.52200,-0.33346,32.36329,17.94442,21.75920
0.27495,1.56170,-0.45802,0.32822,-0.24663,0.09917,-3.61358,-0.84089,4.61185,-4.59425,0.03660,-4.52558,-0.64737,-0.44986,-0.52130,-0.32677,12.38642,34.36256,11.61682
0.27618,1.55785,-0.45964,0.27296,-0.25236,0.04639,-3.56466,-0.34255,4.56503,-5.15712,-1.35610,-4.22661,-0.62999,-0.48467,-0.51347,-0.32336,-2.69272,40.15819,-5.61694
0.27521,1.55260,-0.46254,0.19380,-0.28246,-0.01170,-3.56719,0.24615,4.24348,-4.62416,-2.24552,-2.93228,-0.61825,-0.51582,-0.49783,-0.32229,-12.54453,33.33402,-27.40280
0.27414,1.54646,-0.46432,0.13062,-0.32038,-0.03789,-3.20833,0.38507,4.03055,-3.52847,-2.25376,-1.28191,-0.60467,-0.53918,-0.49320,-0.31687,8.93564,17.41637,-24.83429
0.27303,1.53983,-0.46510,0.08221,-0.35674,-0.04150,-2.57235,0.30084,4.05700,-3.93003,-3.11030,0.26154,-0.58891,-0.55850,-0.49920,-0.30342,47.62968,6.28330,-4.37577
0.27017,1.53162,-0.46486,0.01564,-0.41093,-0.02611,-2.11971,0.35948,4.06044,-4.64870,-4.36466,2.13097,-0.57420,-0.57846,-0.50233,-0.28871,36.95074,11.21265,1.79792
0.26651,1.52303,-0.46347,-0.04989,-0.45959,0.00472,-2.37959,0.49101,3.89754,-5.03203,-3.92070,3.00479,-0.55663,-0.60446,-0.49263,-0.28655,-10.65449,5.94972,-10.99413
0.26150,1.51370,-0.46101,-0.12233,-0.50846,0.04444,-2.97409,0.56513,3.69870,-5.37292,-4.02658,3.00934,-0.53526,-0.63384,-0.47561,-0.29248,-38.38139,-5.09284,-11.11865
0.25559,1.50317,-0.45769,-0.19100,-0.56279,0.08177,-3.83553,0.59160,3.43657,-4.20193,-3.97134,2.52814,-0.51049,-0.66541,-0.45007,-0.30670,-55.21062,-13.62993,-16.52503
0.24945,1.49230,-0.45433,-0.24807,-0.61043,0.11085,-4.79873,0.57781,3.35865,-3.98277,-3.10124,1.59293,-0.47858,-0.70070,-0.41877,-0.32345,-65.59969,-17.83731,-4.35937
0.24250,1.48115,-0.45139,-0.30600,-0.65358,0.12962,-5.93667,0.46700,3.29303,-4.13767,-3.35014,1.43134,-0.43925,-0.73709,-0.37915,-0.34642,-75.96937,-19.59417,5.30409
0.23494,1.46904,-0.44752,-0.36029,-0.70237,0.15961,-6.65491,0.12106,3.12900,-3.54767,-2.76479,2.11474,-0.39870,-0.76471,-0.34319,-0.37212,-64.70631,-34.09387,-0.14728
0.22690,1.45678,-0.44287,-0.40956,-0.74250,0.19531,-6.60842,-0.33610,3.09118,-4.28161,-2.69954,2.28097,-0.35999,-0.78314,-0.32255,-0.39123,-6.59728,-39.49422,8.70198
0.21706,1.44282,-0.43695,-0.47745,-0.80305,0.24466,-6.21762,-0.95413,2.92563,-3.11692,-3.94178,2.68146,-0.32480,-0.79226,-0.31146,-0.41210,31.20846,-28.13146,8.45399
0.20902,1.42899,-0.43184,-0.50002,-0.84797,0.27016,-6.12754,-1.34280,2.56384,-1.47735,-4.09958,1.75772,-0.29299,-0.79968,-0.29077,-0.43604,18.50081,-38.07539,-8.40674
0.20158,1.41437,-0.42708,-0.50701,-0.89461,0.28331,-6.05620,-1.59048,2.10179,-0.36549,-3.93810,0.26052,-0.26586,-0.80381,-0.26661,-0.46058,13.28314,-37.68393,-22.77401
0.19490,1.39797,-0.42370,-0.50021,-0.96038,0.27098,-5.89226,-1.62486,1.31873,0.80210,-3.28478,-2.08614,-0.25118,-0.80368,-0.23758,-0.48432,12.41712,-18.89922,-38.06873
0.18893,1.38258,-0.42137,-0.48331,-0.99459,0.24513,-5.57466,-1.37574,0.81088,1.86748,-2.26838,-3.14870,-0.23945,-0.80631,-0.21070,-0.49813,22.17145,-2.66246,-44.65937
0.18403,1.36723,-0.42013,-0.45271,-1.01967,0.20766,-4.95884,-0.86713,0.38855,2.72112,-1.05611,-3.04067,-0.23684,-0.81045,-0.18913,-0.50131,41.07307,21.86423,-41.03443
0.17977,1.35267,-0.41927,-0.42041,-1.02696,0.17620,-4.15061,-0.29416,0.20096,2.26767,0.25475,-1.93835,-0.23724,-0.81655,-0.17587,-0.49603,53.95647,36.09698,-28.16343
0.17534,1.33893,-0.41820,-0.39956,-1.01965,0.15701,-3.19537,0.22633,0.23521,0.83870,0.68757,-0.29895,-0.23842,-0.82358,-0.17260,-0.48485,62.06822,36.41450,-5.74490
0.17027,1.32542,-0.41641,-0.39283,-1.00898,0.15267,-2.61848,0.44353,0.32046,0.32328,0.80075,0.57241,-0.23435,-0.82929,-0.16797,-0.47869,48.62902,21.93179,1.06991
0.16547,1.31217,-0.41482,-0.38658,-0.99803,0.15322,-2.39391,0.49134,0.35075,0.40664,0.72332,0.63351,-0.22710,-0.83408,-0.15875,-0.47701,21.88693,6.38469,2.79228
0.16098,1.29916,-0.41320,-0.37713,-0.98517,0.15552,-2.40742,0.46908,0.32174,0.58558,1.05221,0.47689,-0.21805,-0.83832,-0.14473,-0.47825,2.93305,-0.91179,-1.83927
0.15629,1.28657,-0.41147,-0.37141,-0.96690,0.15543,-2.61988,0.41613,0.34731,0.20014,1.60150,0.19912,-0.20478,-0.84291,-0.12666,-0.48118,-11.01713,-2.77181,0.71852
0.15125,1.27455,-0.41038,-0.37483,-0.94351,0.14877,-2.99869,0.33610,0.46597,-0.60035,1.83574,-0.59363,-0.18561,-0.84778,-0.10478,-0.48563,-24.82136,-5.99295,8.17698
0.14589,1.26279,-0.40951,-0.38176,-0.92108,0.13844,-3.32787,0.28144,0.62837,-0.52719,1.83079,-0.92185,-0.16380,-0.85254,-0.08263,-0.48940,-28.12736,-2.50485,14.02079
0.14077,1.25178,-0.40902,-0.38178,-0.89057,0.12307,-3.56746,0.32940,0.80236,0.72379,2.11936,-1.31785,-0.14103,-0.85788,-0.06063,-0.49039,-19.54202,0.83179,9.48789
0.13656,1.24134,-0.40849,-0.36621,-0.85757,0.11146,-3.54787,0.50028,0.96588,1.12920,2.20124,-0.58201,-0.12090,-0.86420,-0.04354,-0.48647,-1.05736,15.11307,11.44028
0.13248,1.23090,-0.40768,-0.35189,-0.83251,0.10604,-3.55695,0.57641,1.01050,0.88479,1.92114,0.03374,-0.10217,-0.86879,-0.02505,-0.48388,1.17726,10.89342,2.54888
0.12832,1.22080,-0.40646,-0.34146,-0.80763,0.10603,-3.61316,0.55757,1.04567,0.45686,1.72136,0.16680,-0.08235,-0.87164,-0.00567,-0.48315,-4.24753,-0.20997,2.47489
0.12387,1.21111,-0.40516,-0.33874,-0.78156,0.10835,-3.67321,0.54283,1.09850,-0.11345,1.64153,0.10141,-0.06158,-0.87385,0.01380,-0.48208,-4.19575,-1.28905,3.15535
0.11906,1.20136,-0.40381,-0.34173,-0.76227,0.10963,-3.65288,0.58558,1.15939,-0.27490,1.48563,0.01693,-0.04127,-0.87626,0.03147,-0.47903,-0.96417,2.95051,4.49598
0.11430,1.19193,-0.40228,-0.34262,-0.74273,0.11245,-3.55411,0.64647,1.17028,0.23279,1.24662,0.28827,-0.02307,-0.87852,0.04750,-0.47479,5.25465,5.63148,0.59615
0.11046,1.18302,-0.40035,-0.32700,-0.71887,0.11983,-3.23784,0.74145,1.09036,1.53185,1.40222,0.35068,-0.01049,-0.88122,0.05876,-0.46892,15.69417,4.68384,-4.64368
0.10743,1.17434,-0.39818,-0.30144,-0.69633,0.12949,-2.82191,0.86538,0.92981,1.94331,1.65572,0.85859,-0.00290,-0.88465,0.06697,-0.46141,28.32500,9.45494,-13.84378
0.10480,1.16604,-0.39562,-0.27461,-0.67309,0.14185,-2.47396,0.90737,0.79072,1.82697,1.78397,1.13157,0.00375,-0.88731,0.07436,-0.45513,26.52887,4.52774,-13.17681
0.10233,1.15810,-0.39279,-0.25102,-0.64948,0.15475,-2.24183,0.87747,0.70762,1.62734,1.84890,0.97548,0.01145,-0.88893,0.08219,-0.45047,18.27092,-1.98657,-8.02754
0.09988,1.15037,-0.38995,-0.23306,-0.62832,0.16496,-2.10458,0.84019,0.66386,1.46381,1.86827,0.87856,0.02024,-0.89012,0.09073,-0.44615,12.26270,-2.38707,-3.93376
0.09807,1.14372,-0.38671,-0.20820,-0.59384,0.17901,-1.93989,0.70888,0.62318,1.62713,2.45258,1.04484,0.02780,-0.89002,0.09779,-0.44444,9.89379,-6.27562,-3.53309
0.09658,1.13758,-0.38324,-0.18318,-0.55876,0.19312,-1.76549,0.50685,0.57571,1.87187,2.51829,0.96330,0.03421,-0.88865,0.10380,-0.44538,12.55787,-13.35845,-0.51189
0.09565,1.13213,-0.37975,-0.15479,-0.52029,0.20447,-1.57486,0.29475,0.46404,2.08102,2.88706,0.60231,0.03766,-0.88666,0.10936,-0.44771,13.47024,-15.42286,-6.06780
0.09512,1.12743,-0.37643,-0.12664,-0.47783,0.21086,-1.35060,0.12239,0.35347,1.99419,3.07665,0.13356,0.03934,-0.88477,0.11327,-0.45034,15.15381,-14.42492,-6.85787
0.09476,1.12341,-0.37334,-0.10233,-0.43445,0.21140,-1.07667,0.06973,0.22377,1.67487,3.05822,-0.38529,0.03864,-0.88429,0.11506,-0.45089,18.76828,-7.07241,-8.60151
0.09448,1.11991,-0.37070,-0.08242,-0.39229,0.20449,-0.81538,0.14857,0.09116,1.36620,3.03646,-0.77374,0.03665,-0.88564,0.11583,-0.44820,19.84772,3.67512,-10.28355
0.09444,1.11690,-0.36837,-0.06286,-0.35168,0.19395,-0.63199,0.23102,-0.01552,1.59711,3.01221,-0.56766,0.03482,-0.88727,0.11705,-0.44479,15.09636,7.66780,-8.58191
0.09514,1.11451,-0.36600,-0.03519,-0.31032,0.18656,-0.49470,0.14874,-0.11217,2.16289,3.05573,-0.22448,0.03225,-0.88698,0.11866,-0.44513,10.04369,-2.96105,-6.41045
