posX, posY, posZ, velX, velY, velZ, angVelX, angVelY, angVelZ, accX, accY, accZ, rotX, rotY, rotZ, rotW, angAccX, angAccY, angAccZ
-0.05894,1.19106,-0.31004,-0.14773,-0.38779,0.19802,-0.17677,1.11268,-0.16134,1.04894,1.04859,0.50501,-0.02680,-0.92811,-0.07014,-0.36465,-0.73294,-3.56888,4.96863
-0.06018,1.18654,-0.30675,-0.13248,-0.37360,0.20561,-0.22684,0.90636,-0.07288,1.17437,1.00617,0.73478,-0.02460,-0.92900,-0.06822,-0.36290,-1.91986,-12.76415,6.49951
-0.06096,1.18225,-0.30335,-0.11251,-0.35859,0.21317,-0.38768,0.57295,0.05028,1.30711,0.91570,0.37038,-0.01931,-0.92834,-0.06386,-0.36570,-8.03907,-19.97324,8.58047
-0.06168,1.17780,-0.30026,-0.09709,-0.34957,0.21436,-0.56950,0.33541,0.12773,1.28253,0.63079,-0.13172,-0.01374,-0.92783,-0.05765,-0.36826,-13.82082,-21.49687,9.03402
-0.06203,1.17360,-0.29729,-0.07844,-0.33858,0.21212,-0.74820,0.16320,0.15335,1.06446,0.56536,-0.51102,-0.00856,-0.92734,-0.04987,-0.37078,-13.36586,-13.52057,3.63714
-0.06252,1.16943,-0.29443,-0.06717,-0.32970,0.20937,-0.77145,0.16097,0.10014,0.83986,0.65078,-0.45654,-0.00681,-0.92799,-0.04422,-0.36991,-4.80929,-3.21571,-2.35909
-0.06297,1.16541,-0.29159,-0.05781,-0.32045,0.20645,-0.76530,0.19360,0.01413,0.76022,0.80299,-0.24610,-0.00670,-0.92895,-0.03871,-0.36811,0.54199,2.75319,-6.62772
-0.06318,1.16182,-0.28881,-0.04603,-0.30612,0.20236,-0.76178,0.17163,-0.08538,0.79073,1.05449,-0.28557,-0.00745,-0.92937,-0.03279,-0.36761,0.22148,-0.91883,-6.67241
-0.06326,1.15842,-0.28618,-0.03558,-0.29176,0.19767,-0.77633,0.11209,-0.14403,0.73089,1.00726,-0.31740,-0.00745,-0.92933,-0.02665,-0.36822,-0.23563,-3.19154,-4.24135
-0.06333,1.15506,-0.28363,-0.02723,-0.28026,0.19301,-0.80815,0.03646,-0.18243,0.71075,0.96892,-0.42697,-0.00701,-0.92892,-0.01998,-0.36968,-2.57603,-6.02462,-2.82042
-0.06317,1.15217,-0.28122,-0.01646,-0.26349,0.18619,-0.85200,-0.04053,-0.22435,0.72499,1.18173,-0.52873,-0.00667,-0.92824,-0.01263,-0.37170,-3.28142,-5.69474,-1.99625
-0.06298,1.14945,-0.27887,-0.00848,-0.24773,0.18112,-0.84899,-0.07753,-0.24476,0.70981,1.44607,-0.45907,-0.00647,-0.92776,-0.00639,-0.37308,-0.87907,-3.84385,-2.32644
-0.06260,1.14731,-0.27661,0.00043,-0.22640,0.17613,-0.82814,-0.10207,-0.25436,0.62406,1.66452,-0.36474,-0.00633,-0.92728,-0.00075,-0.37431,1.58410,-1.76225,-0.96741
-0.06206,1.14618,-0.27460,0.01030,-0.19218,0.16748,-0.80882,-0.11463,-0.23675,0.47967,2.18323,-0.69496,-0.00557,-0.92685,0.00457,-0.37537,0.86657,-0.94310,0.93256
-0.06173,1.14502,-0.27273,0.01387,-0.16588,0.15906,-0.79659,-0.10686,-0.17430,0.26277,2.29094,-0.74475,-0.00345,-0.92660,0.00941,-0.37591,1.43757,0.46053,3.61488
-0.06142,1.14454,-0.27107,0.01646,-0.13473,0.14902,-0.77793,-0.11545,-0.08969,0.21925,2.23857,-0.68331,-0.00040,-0.92619,0.01358,-0.37681,0.87466,0.36225,6.15200
-0.06101,1.14449,-0.26947,0.02023,-0.10367,0.14034,-0.74534,-0.15375,0.00823,0.35418,2.21404,-0.51583,0.00338,-0.92542,0.01688,-0.37856,2.12614,-1.82869,6.87535
-0.06045,1.14482,-0.26784,0.02535,-0.07381,0.13445,-0.67817,-0.23083,0.12065,0.41489,2.07854,-0.34111,0.00771,-0.92410,0.01860,-0.38163,3.67845,-4.41407,7.95151
-0.05981,1.14526,-0.26613,0.03056,-0.04979,0.13106,-0.60697,-0.30910,0.21873,0.49104,1.95224,-0.26409,0.01216,-0.92252,0.01958,-0.38526,5.64194,-5.97201,8.45668
-0.05891,1.14643,-0.26448,0.03892,-0.01964,0.12717,-0.47537,-0.39804,0.31311,0.54929,1.77178,-0.33080,0.01631,-0.92059,0.01825,-0.38976,6.94499,-5.68051,7.09740
-0.05795,1.14765,-0.26286,0.04657,0.00545,0.12392,-0.28865,-0.40732,0.33927,0.54020,1.63875,-0.40995,0.01822,-0.91938,0.01515,-0.39266,11.74148,-2.62164,3.47894
-0.05695,1.14913,-0.26127,0.05373,0.02910,0.12025,-0.01705,-0.33262,0.29008,0.52830,1.58087,-0.46719,0.01679,-0.91918,0.00929,-0.39336,18.03983,3.99866,-1.66909
-0.05592,1.15072,-0.25984,0.05942,0.04878,0.11513,0.21682,-0.23380,0.23143,0.48603,1.68879,-0.52355,0.01435,-0.91949,0.00280,-0.39283,20.47220,8.42544,-5.21235
-0.05480,1.15282,-0.25892,0.06494,0.07240,0.10301,0.37768,-0.15310,0.21017,0.27576,1.50937,-0.80990,0.01271,-0.91982,-0.00354,-0.39212,12.33984,6.12660,-1.65570
-0.05383,1.15478,-0.25828,0.06636,0.08842,0.08958,0.36117,-0.12488,0.24103,0.03997,1.47982,-1.13694,0.01405,-0.91969,-0.00648,-0.39233,2.70699,3.34915,1.07399
-0.05307,1.15709,-0.25829,0.06391,0.10625,0.06879,0.19147,-0.16888,0.36140,-0.31975,1.39566,-1.52194,0.01994,-0.91874,-0.00614,-0.39430,-9.13784,-1.47697,6.39886
-0.05273,1.15963,-0.25906,0.05509,0.12388,0.03948,-0.11985,-0.26726,0.56667,-0.69300,0.96000,-2.01843,0.03108,-0.91687,-0.00209,-0.39796,-19.70818,-7.49776,13.45441
-0.05250,1.16203,-0.25988,0.04659,0.13504,0.01612,-0.29815,-0.28135,0.66959,-0.70364,0.76706,-2.23299,0.04006,-0.91567,0.00093,-0.39994,-18.17480,-4.92709,10.76460
-0.05243,1.16466,-0.26130,0.03751,0.14708,-0.01123,-0.36468,-0.18666,0.68963,-0.62197,0.59623,-2.07079,0.04662,-0.91578,0.00265,-0.39896,-7.90740,4.77248,3.42011
-0.05241,1.16760,-0.26342,0.02946,0.16238,-0.04473,-0.29464,0.01407,0.59703,-0.39476,0.82805,-1.86441,0.04877,-0.91752,0.00218,-0.39468,3.17112,11.26158,-5.52346
-0.05238,1.17053,-0.26531,0.02336,0.17425,-0.06730,-0.19194,0.15604,0.50629,-0.49212,0.88787,-1.39989,0.04983,-0.91912,0.00060,-0.39081,6.70930,12.11198,-6.96722
-0.05245,1.17353,-0.26722,0.01700,0.18426,-0.08447,-0.17137,0.17173,0.47266,-0.61229,0.98468,-1.14287,0.05241,-0.91963,0.00019,-0.38928,4.87939,6.05389,-4.90769
-0.05289,1.17684,-0.26977,0.00575,0.19706,-0.10817,-0.30267,-0.01807,0.54726,-0.81114,0.93753,-1.39941,0.05929,-0.91766,0.00279,-0.39292,-6.34708,-9.99071,3.63099
-0.05340,1.18016,-0.27243,-0.00409,0.20692,-0.12803,-0.42876,-0.20879,0.62758,-0.82366,0.77620,-1.89356,0.06725,-0.91496,0.00598,-0.39785,-11.41232,-17.12126,7.91443
-0.05418,1.18382,-0.27574,-0.01606,0.22014,-0.15375,-0.45349,-0.29667,0.63078,-0.88532,0.81477,-2.25989,0.07290,-0.91293,0.00789,-0.40146,-4.67729,-10.69021,3.15449
-0.05532,1.18783,-0.27964,-0.03133,0.23721,-0.18429,-0.27402,-0.18392,0.50724,-0.99777,1.04012,-2.13482,0.07288,-0.91336,0.00565,-0.40054,9.09445,5.58390,-6.55532
-0.05652,1.19192,-0.28351,-0.04430,0.25127,-0.20684,-0.05416,-0.00700,0.38683,-1.11746,1.16280,-2.01635,0.07109,-0.91495,0.00127,-0.39725,16.03156,12.82432,-10.19333
-0.05819,1.19634,-0.28788,-0.06180,0.26716,-0.23212,0.22111,0.25125,0.24420,-1.32920,1.14167,-1.77598,0.06654,-0.91809,-0.00579,-0.39070,19.76563,18.15505,-10.56840
-0.06018,1.20094,-0.29242,-0.08037,0.28229,-0.25474,0.45451,0.48535,0.12403,-1.31467,1.19719,-1.38794,0.06137,-0.92157,-0.01345,-0.38308,17.71605,19.24305,-9.76806
-0.06237,1.20571,-0.29712,-0.09795,0.29677,-0.27457,0.56387,0.60291,0.08829,-1.20947,1.15524,-1.08545,0.05853,-0.92416,-0.01976,-0.37699,10.76085,11.90523,-4.64244
-0.06468,1.21055,-0.30200,-0.11368,0.30898,-0.29268,0.52571,0.57362,0.12321,-1.09212,0.88232,-1.14231,0.05890,-0.92526,-0.02323,-0.37402,-0.32694,-0.52469,1.83563
-0.06712,1.21546,-0.30719,-0.12804,0.31978,-0.31144,0.41741,0.48988,0.17440,-0.99641,0.75485,-1.43024,0.06095,-0.92563,-0.02464,-0.37266,-6.99001,-6.49599,4.18541
-0.06986,1.22059,-0.31282,-0.14445,0.33182,-0.33344,0.34624,0.46560,0.19041,-1.07796,0.61643,-1.57661,0.06223,-0.92646,-0.02613,-0.37028,-6.13467,-3.90969,1.88087
-0.07277,1.22574,-0.31842,-0.15984,0.34109,-0.35030,0.40062,0.56991,0.13103,-1.11486,0.47665,-1.13816,0.06027,-0.92867,-0.03002,-0.36473,1.93054,6.40507,-2.96302
-0.07570,1.23085,-0.32379,-0.17175,0.34780,-0.35992,0.50186,0.67912,0.02870,-0.96530,0.46915,-0.65856,0.05601,-0.93123,-0.03498,-0.35840,6.38812,9.51096,-6.93406
-0.07878,1.23604,-0.32909,-0.18337,0.35416,-0.36598,0.69686,0.80543,-0.11826,-0.73603,0.37865,-0.47694,0.04845,-0.93413,-0.04255,-0.35106,11.73279,8.41021,-9.52662
-0.08198,1.24153,-0.33437,-0.19433,0.36399,-0.37007,1.00621,1.00926,-0.34603,-0.72866,0.66947,-0.09974,0.03590,-0.93784,-0.05346,-0.34105,19.39092,13.21583,-14.58767
-0.08525,1.24714,-0.33954,-0.20406,0.37314,-0.37138,1.20901,1.14272,-0.50421,-0.90154,0.92053,0.04111,0.02418,-0.94101,-0.06358,-0.33147,17.31608,12.55421,-14.11370
-0.08889,1.25287,-0.34442,-0.21753,0.38185,-0.36759,1.39954,1.21954,-0.67230,-0.82465,1.00545,0.57671,0.01068,-0.94361,-0.07425,-0.32246,15.04210,9.73167,-12.27273
-0.09266,1.25901,-0.34909,-0.23019,0.39593,-0.36069,1.41290,0.99037,-0.65885,-0.74036,1.00763,0.86922,0.00295,-0.94347,-0.08235,-0.32105,0.85778,-10.00843,-0.31491
-0.09631,1.26560,-0.35364,-0.23837,0.41474,-0.35362,1.43876,0.75890,-0.71056,-0.70115,1.47269,0.09225,-0.00630,-0.94258,-0.09012,-0.32154,-1.58450,-21.23716,-2.78547
-0.10021,1.27234,-0.35823,-0.24822,0.43077,-0.34854,1.51795,0.71059,-0.75635,-1.20085,1.69793,0.35807,-0.01669,-0.94255,-0.09966,-0.31842,5.07282,-9.22045,-7.31193
-0.10546,1.28020,-0.36248,-0.27889,0.46134,-0.33978,1.62622,0.68767,-0.74028,-2.11306,1.85106,0.31916,-0.02616,-0.94226,-0.11110,-0.31482,5.22260,-3.78844,0.29388
-0.11126,1.28813,-0.36684,-0.31256,0.48675,-0.33489,1.67820,0.71462,-0.67273,-2.62032,1.92492,0.30840,-0.03383,-0.94236,-0.12211,-0.30967,5.06142,0.96404,3.68804
-0.11755,1.29623,-0.37127,-0.34554,0.50854,-0.33207,1.68354,0.72945,-0.57561,-2.91285,1.82186,0.26152,-0.03985,-0.94241,-0.13260,-0.30446,1.74787,1.10812,7.19494
-0.12525,1.30490,-0.37566,-0.39427,0.53464,-0.32890,1.65319,0.74224,-0.40945,-3.15350,1.52632,0.15455,-0.04293,-0.94254,-0.14294,-0.29892,-1.78924,-0.47720,10.48566
-0.13329,1.31349,-0.38003,-0.43787,0.55354,-0.32606,1.64547,0.77452,-0.25072,-3.07759,1.11554,0.16215,-0.04542,-0.94269,-0.15394,-0.29253,-0.07670,1.32285,11.33405
-0.14180,1.32202,-0.38446,-0.47903,0.56714,-0.32467,1.63515,0.83163,-0.14283,-2.83588,0.83872,-0.03336,-0.04831,-0.94298,-0.16461,-0.28522,-0.68317,2.25030,9.59071
-0.15046,1.33066,-0.38895,-0.51318,0.58119,-0.32474,1.66281,0.93139,-0.07521,-2.18009,1.11739,-0.14040,-0.05216,-0.94338,-0.17602,-0.27628,1.64415,5.51159,5.91603
-0.15936,1.33967,-0.39350,-0.54380,0.59846,-0.32571,1.71140,1.06154,-0.04038,-1.75009,1.00580,-0.00210,-0.05697,-0.94382,-0.18794,-0.26578,3.45843,8.17703,2.98352
-0.16802,1.34859,-0.39799,-0.56273,0.60926,-0.32502,1.71661,1.12483,-0.03420,-1.51082,0.82358,0.19481,-0.06193,-0.94389,-0.19878,-0.25636,1.24460,6.20844,1.56371
-0.17705,1.35762,-0.40226,-0.58289,0.61965,-0.32056,1.73925,1.21268,-0.04802,-1.42316,0.70914,0.46843,-0.06774,-0.94391,-0.20986,-0.24578,0.66504,6.02314,-0.29630
-0.18639,1.36671,-0.40594,-0.60380,0.62890,-0.30707,1.73860,1.25103,-0.02973,-1.09739,0.50595,1.41165,-0.07255,-0.94363,-0.22068,-0.23577,0.64577,4.49896,0.54293
-0.19544,1.37563,-0.40926,-0.61464,0.63199,-0.29051,1.66918,1.12232,0.02134,-0.58306,0.05177,1.81707,-0.07488,-0.94260,-0.23016,-0.23007,-3.31962,-6.08637,3.93860
-0.20416,1.38434,-0.41192,-0.61693,0.63041,-0.26788,1.56154,0.91096,0.00548,0.12842,-0.40107,1.51172,-0.07756,-0.94095,-0.23785,-0.22810,-8.29505,-16.21335,-0.00616
-0.21235,1.39275,-0.41436,-0.60992,0.62443,-0.24677,1.55533,0.85890,-0.12884,0.65337,-0.65951,0.95980,-0.08479,-0.93916,-0.24646,-0.22371,-4.00684,-8.28262,-7.84476
-0.21999,1.40096,-0.41681,-0.59516,0.61618,-0.23092,1.62262,1.05193,-0.37523,1.25556,-0.63363,0.87615,-0.09808,-0.93783,-0.25555,-0.21341,4.42601,11.88657,-15.15799
-0.22708,1.40916,-0.41905,-0.57448,0.60920,-0.21625,1.66936,1.25063,-0.62387,1.63698,-0.45898,1.28160,-0.11343,-0.93634,-0.26389,-0.20192,3.40573,18.20007,-17.03608
-0.23398,1.41731,-0.42099,-0.55583,0.60340,-0.19986,1.65734,1.33501,-0.81530,1.60798,-0.38854,1.80034,-0.12812,-0.93441,-0.27096,-0.19245,0.16656,11.76366,-15.78664
-0.24056,1.42569,-0.42176,-0.53654,0.60237,-0.16816,1.57881,1.26445,-0.97765,0.87649,0.46070,2.51292,-0.14183,-0.93195,-0.27628,-0.18713,-6.39607,-0.89283,-11.30902
-0.24780,1.43478,-0.42163,-0.53236,0.61275,-0.12933,1.63912,1.20725,-1.02192,-0.09990,1.27799,2.67947,-0.15382,-0.92848,-0.28545,-0.18106,-0.61394,-6.99516,-5.13051
-0.25545,1.44438,-0.42107,-0.53621,0.62940,-0.09265,1.83573,1.31818,-1.01731,-0.60216,1.70792,2.66276,-0.16674,-0.92430,-0.29850,-0.16962,12.52260,2.96849,-0.74800
-0.26355,1.45509,-0.41954,-0.54622,0.66024,-0.04884,2.22214,1.67810,-0.97204,-0.42352,2.20282,2.41141,-0.18196,-0.91880,-0.31707,-0.14890,27.15458,19.54621,3.11078
-0.27122,1.46650,-0.41822,-0.54673,0.69522,-0.01856,2.38631,1.86401,-0.91300,0.49398,2.61783,2.49002,-0.19502,-0.91353,-0.33217,-0.13077,18.53687,18.91795,4.00958
-0.27849,1.47827,-0.41691,-0.54137,0.72864,0.00454,2.31596,1.78271,-0.85251,0.73769,2.74810,2.33261,-0.20453,-0.90902,-0.34276,-0.11983,1.14925,-1.17460,4.83276
-0.28558,1.49166,-0.41470,-0.53415,0.78115,0.03791,2.05660,1.45511,-0.72443,0.17598,3.68222,2.43321,-0.20842,-0.90600,-0.34944,-0.11671,-16.13789,-20.06116,5.98971
-0.29315,1.50584,-0.41164,-0.53632,0.83477,0.07729,1.88210,1.19231,-0.54588,-0.27759,4.17574,3.08090,-0.21011,-0.90305,-0.35722,-0.11293,-14.80318,-20.85780,10.43583
-0.30087,1.52002,-0.40835,-0.54046,0.87498,0.11087,1.80667,1.01799,-0.41751,-0.60756,4.00196,3.37405,-0.21229,-0.89945,-0.36636,-0.10819,-9.26844,-19.14177,11.99559
-0.30928,1.53597,-0.40269,-0.55504,0.93445,0.17595,1.77514,0.87107,-0.31438,-1.10941,3.32347,3.26446,-0.21419,-0.89534,-0.37646,-0.10378,2.27013,-14.42259,0.57486
-0.31693,1.55247,-0.39687,-0.55342,0.99200,0.23119,1.90996,0.97528,-0.09346,0.33882,4.10704,4.13670,-0.21521,-0.89082,-0.38976,-0.09061,6.70152,4.88353,16.68892
-0.32431,1.56918,-0.38930,-0.54810,1.04003,0.30419,2.12833,1.07288,-0.03012,0.66793,2.28877,4.99082,-0.21960,-0.88401,-0.40540,-0.07714,15.57220,8.22185,4.92640
-0.33132,1.58510,-0.38187,-0.53788,1.06474,0.36105,2.23086,1.00325,-0.03627,1.05293,1.65077,4.97298,-0.22363,-0.87692,-0.41988,-0.06861,9.61718,-2.87838,-0.20875
-0.33790,1.60100,-0.37311,-0.52302,1.08301,0.42612,2.31753,0.91662,-0.08419,1.06059,0.91056,4.47951,-0.22833,-0.86905,-0.43456,-0.06148,6.52506,-7.11444,-3.90497
-0.34406,1.61658,-0.36379,-0.50456,1.09143,0.48415,2.39239,0.87953,-0.16269,1.35366,0.30722,3.87028,-0.23439,-0.86053,-0.44904,-0.05390,6.45780,-1.92854,-5.89468
-0.35015,1.63143,-0.35488,-0.48710,1.09015,0.53090,2.45425,0.91622,-0.22180,1.25889,-0.48496,3.01668,-0.24110,-0.85176,-0.46302,-0.04459,4.84210,1.57358,-4.40873
-0.35595,1.64573,-0.34598,-0.46860,1.07955,0.56652,2.47481,1.02944,-0.28089,1.18934,-1.11695,2.35520,-0.24910,-0.84307,-0.47547,-0.03339,1.81885,7.05476,-4.08767
-0.36161,1.65945,-0.33672,-0.45315,1.06006,0.59559,2.44683,1.14022,-0.29956,1.20098,-1.64082,2.04853,-0.25660,-0.83487,-0.48651,-0.02145,0.35169,10.25845,-0.49600
-0.36709,1.67259,-0.32713,-0.43835,1.03384,0.62075,2.38216,1.21207,-0.29756,1.08571,-2.19933,1.83308,-0.26338,-0.82712,-0.49640,-0.01000,-4.61642,5.52498,1.14597
-0.37227,1.68455,-0.31717,-0.42138,0.99357,0.64725,2.24900,1.19248,-0.26129,1.28482,-2.97087,1.76768,-0.26816,-0.82056,-0.50474,-0.00054,-6.68152,0.63521,3.02007
-0.37701,1.69580,-0.30699,-0.40190,0.94988,0.66798,2.06963,1.06042,-0.25557,1.67743,-3.41548,1.40641,-0.27177,-0.81483,-0.51203,0.00506,-12.24834,-8.48964,1.38164
-0.38109,1.70610,-0.29664,-0.37648,0.89951,0.68528,1.89458,0.95194,-0.29721,1.81901,-3.88233,0.99605,-0.27635,-0.80925,-0.51832,0.00947,-14.27157,-8.23286,-2.69333
-0.38492,1.71574,-0.28639,-0.35298,0.85007,0.69603,1.83412,0.98129,-0.36244,1.73652,-4.33103,0.46979,-0.28332,-0.80213,-0.52539,0.01665,-8.80814,-2.99157,-4.41444
-0.38805,1.72293,-0.27623,-0.32395,0.77173,0.70234,1.95216,1.28817,-0.45326,1.40138,-5.20330,-0.07844,-0.29536,-0.79172,-0.53381,0.03140,5.16744,16.80154,-5.25571
-0.39141,1.72902,-0.26645,-0.30636,0.69265,0.70082,2.13084,1.63922,-0.43740,1.04434,-5.98222,-0.27795,-0.30686,-0.78001,-0.54298,0.05088,13.34227,25.62395,0.87097
-0.39499,1.73358,-0.25700,-0.29634,0.60566,0.69348,2.22206,1.81559,-0.34459,0.89383,-6.65509,-0.55858,-0.31504,-0.76922,-0.55161,0.06918,11.77338,17.80288,6.98376
-0.39868,1.73674,-0.24821,-0.28938,0.51618,0.67722,2.07755,1.67093,-0.21810,0.89720,-6.61457,-1.33081,-0.31784,-0.76265,-0.55763,0.07994,-4.41378,-5.07274,8.64465
-0.40202,1.73904,-0.24034,-0.27819,0.43325,0.64863,1.71926,1.33894,-0.10538,1.10743,-5.82429,-2.51010,-0.31715,-0.76080,-0.56002,0.08354,-21.02181,-23.05291,8.16873
-0.40522,1.74187,-0.23297,-0.26763,0.38075,0.62014,1.37363,1.07772,-0.02824,1.06990,-5.09127,-3.13198,-0.31648,-0.76040,-0.56059,0.08585,-31.57299,-26.98285,7.25190
-0.40763,1.74212,-0.22795,-0.24635,0.29839,0.55952,0.88535,0.81950,0.13206,1.03140,-3.98005,-3.75933,-0.31284,-0.76504,-0.55626,0.08616,-28.80218,-17.36110,9.10000
-0.40999,1.74296,-0.22307,-0.22872,0.24269,0.50954,0.67694,0.78625,0.26954,1.13772,-3.79004,-3.56268,-0.31147,-0.76622,-0.55439,0.09248,-16.35255,-4.42181,10.73211
-0.41212,1.74318,-0.21850,-0.21110,0.18955,0.46643,0.62538,0.82700,0.38876,1.26283,-3.54875,-2.77231,-0.31060,-0.76555,-0.55421,0.10154,-7.31659,0.64498,10.12372
-0.41385,1.74277,-0.21385,-0.19051,0.13831,0.43486,0.73877,0.90209,0.44557,1.62981,-3.53836,-1.90747,-0.31087,-0.76179,-0.55712,0.11248,6.30419,5.67328,5.33680
-0.41504,1.74164,-0.20902,-0.16530,0.08625,0.41317,0.84134,0.81615,0.43970,1.93033,-3.23844,-0.68647,-0.31001,-0.75756,-0.56183,0.11978,9.80721,0.87392,-0.09362
-0.41645,1.74104,-0.20364,-0.15007,0.05567,0.40661,0.74410,0.46166,0.39975,1.32025,-2.39587,-0.08797,-0.30573,-0.75687,-0.56542,0.11823,-2.71559,-22.07944,-4.26827
-0.41800,1.74016,-0.19792,-0.14089,0.02772,0.40680,0.58268,-0.13356,0.40287,0.15593,-1.21072,0.08779,-0.29560,-0.75895,-0.56985,0.10902,-10.51860,-38.28102,-2.44077
-0.41990,1.73974,-0.19209,-0.13953,0.01395,0.40879,0.57301,-0.46299,0.46843,-0.23082,-0.22481,0.27028,-0.28570,-0.75928,-0.57526,0.10462,-5.45720,-29.63669,2.10811
-0.42202,1.73952,-0.18594,-0.13777,0.00574,0.41748,0.82904,-0.48458,0.53464,-0.00128,-0.56726,0.71405,-0.27823,-0.75456,-0.58444,0.10795,14.66675,-9.60658,6.46336
-0.42566,1.73963,-0.17990,-0.13379,-0.00118,0.42866,1.16099,-0.42697,0.52137,0.97388,-0.51555,0.70650,-0.27290,-0.74645,-0.59626,0.11317,24.64042,4.78216,2.36104
-0.42882,1.73994,-0.17391,-0.11929,-0.00354,0.43811,1.51748,-0.31917,0.44620,1.44471,-0.33274,0.41587,-0.26973,-0.73565,-0.60976,0.11943,23.53917,7.93197,-3.53788
-0.42995,1.73986,-0.16768,-0.10268,-0.00569,0.44229,1.69605,-0.27664,0.37209,1.62982,-0.37143,0.39542,-0.26655,-0.72627,-0.62144,0.12369,17.40881,6.21464,-4.39134
-0.43005,1.73954,-0.16119,-0.08038,-0.00969,0.44775,1.84586,-0.27284,0.27735,1.82031,-0.33448,0.44698,-0.26363,-0.71616,-0.63369,0.12670,11.90567,2.00308,-6.60938
-0.42955,1.73918,-0.15452,-0.05335,-0.01353,0.45508,1.95737,-0.29594,0.16276,2.10379,-0.35748,0.63025,-0.26109,-0.70569,-0.64605,0.12827,8.56724,-0.64536,-7.65612
-0.42827,1.73872,-0.14746,-0.01964,-0.01798,0.46730,2.11377,-0.27820,0.03253,2.59683,-0.34894,1.06356,-0.25973,-0.69321,-0.65955,0.13032,9.18943,1.62241,-8.65950
-0.42617,1.73799,-0.13996,0.02004,-0.02608,0.48384,2.33367,-0.22340,-0.11809,3.28866,-0.59989,1.36503,-0.25973,-0.67789,-0.67475,0.13309,16.03687,6.06898,-8.75693
-0.42354,1.73718,-0.13226,0.05840,-0.03337,0.49958,2.48635,-0.24034,-0.29235,3.36708,-0.70080,1.37329,-0.25985,-0.66223,-0.69007,0.13317,14.50810,2.50576,-13.36462
-0.41955,1.73605,-0.12373,0.11020,-0.04432,0.52555,2.70911,-0.30638,-0.49301,3.14299,-0.86109,1.94728,-0.25975,-0.64365,-0.70778,0.13153,13.43644,-0.67479,-13.08935
-0.41571,1.73455,-0.11472,0.14840,-0.05901,0.55379,2.88228,-0.48531,-0.65401,2.83808,-1.10097,2.42660,-0.25692,-0.62509,-0.72603,0.12706,13.83163,-8.62840,-12.90086
-0.41173,1.73264,-0.10497,0.17992,-0.07714,0.58760,3.02209,-0.73355,-0.81316,1.94030,-1.33490,2.60132,-0.25218,-0.60609,-0.74484,0.11948,9.33805,-16.46215,-14.89511
-0.40772,1.73032,-0.09437,0.20482,-0.09782,0.62771,3.25182,-0.93624,-0.90573,1.37178,-1.41657,3.17339,-0.24576,-0.58416,-0.76522,0.11309,13.30720,-14.29984,-11.08846
-0.40384,1.72705,-0.08252,0.22172,-0.13012,0.68024,3.66356,-1.11368,-0.89878,0.66506,-2.36067,3.39836,-0.23612,-0.55703,-0.78862,0.10969,24.21146,-12.59338,-0.85902
-0.40047,1.72287,-0.07027,0.22656,-0.17076,0.72766,4.11955,-1.28528,-0.89840,0.21837,-3.39971,3.19868,-0.22491,-0.52594,-0.81329,0.10661,32.00087,-12.14127,2.66721
-0.39764,1.71811,-0.05803,0.22095,-0.21082,0.76309,4.40344,-1.53829,-1.01560,-0.72013,-3.73734,2.83986,-0.21289,-0.49476,-0.83682,0.09806,26.29260,-17.62227,-9.51313
-0.39598,1.71176,-0.04518,0.19675,-0.26822,0.80003,4.64168,-1.97717,-1.28314,-2.11516,-3.73117,1.90919,-0.19759,-0.46141,-0.86108,0.08119,16.25233,-22.73221,-21.65400
-0.39536,1.70501,-0.03274,0.16034,-0.31958,0.82208,4.83027,-2.35903,-1.49509,-3.07353,-3.67442,1.28825,-0.18070,-0.42711,-0.88368,0.06350,13.99508,-23.02222,-21.79410
-0.39613,1.69749,-0.02086,0.10885,-0.37191,0.82902,5.04868,-2.69105,-1.59476,-4.44582,-3.51138,-0.24052,-0.16102,-0.39045,-0.90521,0.04701,14.40291,-22.34126,-15.77693
-0.39784,1.68992,-0.00980,0.05485,-0.41187,0.82090,5.21208,-2.95466,-1.59870,-4.80906,-3.08206,-1.27752,-0.13939,-0.35327,-0.92452,0.03219,15.14341,-22.79520,-6.18201
-0.40188,1.68169,-0.00001,-0.02558,-0.45335,0.79307,5.29600,-3.24730,-1.47736,-5.74873,-2.09252,-2.47302,-0.11354,-0.31719,-0.94135,0.01897,3.43948,-19.92062,-2.36664
-0.40695,1.67359,0.00865,-0.10577,-0.48362,0.75223,5.35875,-3.48453,-1.23417,-5.95703,-2.10078,-3.47907,-0.08532,-0.28118,-0.95580,0.00992,0.21686,-21.69799,11.86341
-0.41276,1.66542,0.01629,-0.17812,-0.50754,0.70490,5.39947,-3.67986,-1.08469,-6.13723,-2.04020,-4.53789,-0.05693,-0.24439,-0.96800,-0.00005,0.14579,-21.06182,8.23155
-0.42037,1.65669,0.02158,-0.26215,-0.53479,0.63020,5.36533,-3.82396,-1.03663,-5.80313,-2.17410,-6.46698,-0.02922,-0.20852,-0.97751,-0.01178,-2.46488,-15.81903,3.46875
-0.42967,1.64760,0.02396,-0.35631,-0.56210,0.52353,5.31592,-3.91203,-1.14480,-6.16263,-1.34420,-7.01637,-0.00381,-0.17236,-0.98464,-0.02742,-1.95134,-0.43024,-11.76453
-0.43899,1.63870,0.02585,-0.42890,-0.57996,0.43367,5.35786,-4.07795,-1.01056,-6.36624,-1.12063,-7.83516,0.02644,-0.13403,-0.98992,-0.03738,0.61833,-9.81955,0.25662
-0.45100,1.62960,0.02351,-0.52923,-0.59674,0.29377,5.39067,-4.50112,-0.59872,-6.77009,-0.33477,-9.44724,0.06728,-0.09553,-0.99232,-0.04056,-3.17733,-28.20956,12.02181
-0.46371,1.62105,0.01890,-0.61944,-0.60067,0.14640,5.37719,-5.14771,0.05244,-6.52518,0.41644,-11.54723,0.11889,-0.05751,-0.99060,-0.03562,-10.79869,-53.38879,25.86938
-0.47732,1.61336,0.01046,-0.70305,-0.58872,-0.03075,5.26572,-5.98486,0.82097,-5.74753,1.64011,-13.55423,0.18090,-0.02117,-0.98298,-0.02391,-17.78304,-69.21933,26.24932
-0.49097,1.60666,-0.00185,-0.76786,-0.56349,-0.23135,5.00717,-6.99998,1.59404,-3.53632,2.09203,-15.35083,0.25305,0.01152,-0.96736,-0.00707,-25.66852,-87.41434,24.37402
-0.50370,1.60111,-0.01821,-0.80130,-0.52454,-0.45293,4.61926,-7.84812,1.89377,-0.38258,2.92681,-17.11399,0.32463,0.03860,-0.94505,0.00285,-26.01118,-76.39947,-0.06767
-0.51473,1.59671,-0.03682,-0.79901,-0.47623,-0.65663,4.29432,-8.23536,1.63609,2.09805,4.29135,-17.84366,0.38592,0.06240,-0.92042,0.00006,-14.60630,-40.90599,-31.20202
-0.52279,1.59561,-0.06317,-0.74704,-0.38410,-0.94133,3.98070,-8.30420,0.87744,5.51888,6.87355,-18.58917,0.43888,0.08029,-0.89478,-0.01765,3.78471,2.77660,-50.43553
-0.52750,1.59698,-0.09160,-0.65051,-0.27088,-1.19854,3.93529,-8.04298,0.08414,8.84706,9.03443,-18.39263,0.48187,0.10098,-0.86940,-0.04179,19.19509,26.91957,-49.59118
-0.52929,1.60031,-0.12119,-0.53022,-0.15336,-1.41115,4.04677,-7.74102,-0.43778,11.14117,10.77959,-17.17651,0.52053,0.12539,-0.84209,-0.06487,29.58616,36.80677,-32.55360
-0.52446,1.60951,-0.15621,-0.32800,0.03417,-1.66368,4.09486,-7.47901,-0.91141,13.78086,13.32542,-14.54196,0.55707,0.14700,-0.81245,-0.08940,19.57666,25.16818,-18.20004
-0.51660,1.62138,-0.19008,-0.11956,0.22542,-1.84208,3.98483,-7.33106,-1.14387,15.85246,14.68380,-11.22290,0.59389,0.16513,-0.77998,-0.10798,3.25085,15.53197,-18.66958
-0.50825,1.63370,-0.22180,0.04269,0.37411,-1.94004,3.80386,-7.29245,-1.31951,16.72124,15.90136,-8.66991,0.63103,0.17999,-0.74425,-0.12445,-2.73476,13.78790,-13.42705
-0.48802,1.65699,-0.25549,0.36091,0.66722,-2.04567,3.19248,-7.37930,-1.70321,18.51785,17.28973,-3.13996,0.67139,0.17859,-0.70566,-0.13926,-19.66179,3.39546,-32.80871
-0.46707,1.68100,-0.28463,0.62712,0.91307,-2.05531,2.43279,-7.43021,-2.23495,20.15688,18.80729,1.59633,0.71122,0.16645,-0.66545,-0.15376,-26.93975,7.15666,-51.72088
-0.44332,1.70723,-0.31028,0.87377,1.13509,-2.00586,1.72150,-7.27168,-2.69816,22.56046,19.31526,7.30315,0.74583,0.14879,-0.62755,-0.16669,-35.05547,15.09735,-63.82850
-0.40988,1.74322,-0.32577,1.22635,1.47063,-1.79485,0.93402,-5.65103,-3.79483,18.22556,18.24084,15.97730,0.75344,0.10761,-0.61811,-0.19669,-1.69935,94.56589,-57.78318
-0.37958,1.77753,-0.33616,1.45357,1.70849,-1.54247,0.09394,-4.11208,-5.07401,15.61699,17.73520,19.77007,0.75582,0.05168,-0.61070,-0.23043,13.20994,119.95950,-90.81825
-0.34781,1.81272,-0.34291,1.64877,1.90115,-1.29323,-1.17534,-3.01345,-6.34994,17.16005,16.83974,21.33544,0.75931,-0.02518,-0.59832,-0.25463,-24.07239,114.02280,-121.10620
-0.30660,1.85368,-0.34029,1.95881,2.14570,-0.94479,-2.76826,-1.40522,-7.99550,22.04679,14.12082,22.28092,0.74535,-0.13338,-0.59184,-0.27639,-46.57770,113.98510,-132.32940
-0.25982,1.89479,-0.33585,2.29501,2.33807,-0.64302,-3.50595,0.30810,-9.32915,27.08734,12.36519,21.68091,0.71274,-0.23487,-0.58668,-0.30438,2.08691,111.91130,-120.36400
-0.20727,1.93571,-0.33020,2.64323,2.47875,-0.39716,-3.47634,1.92956,-10.52592,32.08359,9.60136,20.33932,0.66151,-0.32984,-0.58010,-0.34220,43.71261,99.13270,-124.81100
-0.14094,1.97704,-0.31995,3.13347,2.58962,-0.13618,-2.66912,3.73187,-12.13085,38.41774,4.80551,17.69007,0.57803,-0.42458,-0.57091,-0.39959,93.47799,52.17393,-144.44790
-0.05665,2.01429,-0.30538,3.82293,2.60799,0.14122,-1.13352,5.40223,-14.15099,52.34999,-3.42624,17.89342,0.46196,-0.51097,-0.54960,-0.47270,84.06319,2.21237,-138.29120
0.03461,2.04467,-0.29238,4.47177,2.50317,0.33097,-0.44025,7.11530,-16.56535,58.23797,-14.25924,11.36948,0.31365,-0.60877,-0.50210,-0.52812,89.12978,17.01028,-244.62260
0.14666,2.05721,-0.28303,5.34605,2.10052,0.43828,-0.97510,9.37261,-18.71494,67.65687,-41.98732,1.04623,0.13991,-0.71432,-0.43008,-0.53405,44.86348,124.25950,-180.63490
0.27489,2.04001,-0.28438,6.26777,1.28122,0.33478,-1.28209,11.91665,-20.63647,62.90525,-77.10735,-17.01147,-0.06064,-0.79274,-0.33766,-0.50386,73.89828,135.53370,-185.11570
0.40490,1.98046,-0.30246,6.97072,-0.02976,-0.04114,-1.26122,14.01041,-22.13396,33.68900,-110.84410,-35.69559,-0.26161,-0.82553,-0.22727,-0.44542,67.17588,83.12041,-166.81500
0.51201,1.87406,-0.33710,7.10799,-1.79769,-0.61318,-0.29768,15.63976,-22.86045,-18.14493,-138.22420,-45.27487,-0.45032,-0.80510,-0.12616,-0.36484,35.16877,39.38873,-127.17260
0.57702,1.74650,-0.37477,6.53127,-3.46174,-1.08484,2.50159,17.56176,-22.17532,-76.39409,-134.47760,-34.95071,-0.62663,-0.73616,-0.07911,-0.24321,90.66331,-61.42441,-175.76730
0.56731,1.58374,-0.40844,4.86543,-5.30241,-1.39200,11.84210,18.48644,-19.86333,-122.65830,-91.81592,-6.59391,-0.80828,-0.55147,-0.19334,-0.07198,93.40332,-289.18890,-489.68660
0.51414,1.44382,-0.42728,2.79838,-6.37864,-1.40856,19.10243,12.61770,-20.62804,-133.19440,-44.49321,7.72390,-0.91604,-0.26344,-0.30169,-0.02127,-209.49470,-92.19787,-592.20590
0.46000,1.33755,-0.44420,1.22226,-6.63544,-1.36294,19.26742,6.79068,-22.15804,-126.77690,-3.80093,8.57485,-0.94672,-0.02570,-0.31790,-0.04473,-343.56270,178.75760,-369.41290
0.36758,1.26899,-0.45366,-0.61034,-6.22027,-1.21520,14.34878,2.29136,-22.78265,-99.74634,47.97324,18.78123,-0.93785,0.12917,-0.28825,-0.14378,-305.18530,272.98680,-33.24754
0.29773,1.23521,-0.44973,-1.66082,-5.31022,-0.88014,7.53064,2.01640,-20.62833,-51.42707,72.68790,29.28596,-0.93197,0.16576,-0.20988,-0.24474,-249.45840,389.19960,230.60810
0.25337,1.21696,-0.43608,-2.01810,-4.34623,-0.45333,1.83948,3.71542,-17.15585,-2.37171,65.75781,28.81408,-0.92569,0.14418,-0.11028,-0.33188,-65.90767,392.25720,322.32620
0.23543,1.20043,-0.41973,-1.84330,-3.60463,-0.07653,-1.48425,5.06930,-12.31598,25.60020,43.02872,23.07547,-0.91808,0.07953,-0.04354,-0.38590,25.64991,250.03360,350.40090
0.23410,1.17958,-0.40482,-1.43260,-3.10547,0.18461,-2.32599,5.95163,-7.30041,35.53527,31.34147,12.62543,-0.91768,-0.00539,-0.00295,-0.39728,44.87609,167.94910,338.30120
0.24081,1.15485,-0.39057,-0.98427,-2.78989,0.37646,-2.28969,4.24292,-4.31748,35.37166,18.04592,10.62228,-0.91283,-0.04095,-0.02205,-0.40568,89.24873,-38.56554,251.77470
0.25297,1.12902,-0.37513,-0.55329,-2.57161,0.54747,-2.65480,0.60698,-2.13387,29.53406,14.37549,11.32075,-0.89363,-0.04971,-0.10411,-0.43373,-41.32415,-211.59600,204.92430
0.26735,1.10467,-0.35865,-0.18781,-2.37936,0.69599,-3.33603,-2.32826,-0.07318,21.28539,13.79595,10.92312,-0.85987,-0.06592,-0.19420,-0.46750,-72.83908,-209.21950,187.37990
0.28111,1.08288,-0.34204,0.08279,-2.18837,0.81156,-3.90745,-3.46984,1.85801,14.37477,14.98485,8.42953,-0.82342,-0.10247,-0.25788,-0.49495,-67.75027,-86.33311,152.44730
0.29331,1.06551,-0.32608,0.26243,-1.96948,0.89328,-4.10056,-2.94411,3.77209,7.99052,17.22578,5.98555,-0.79382,-0.16508,-0.29072,-0.50803,-49.25435,29.73075,124.10680
0.30207,1.05089,-0.31109,0.34182,-1.75919,0.93785,-4.43912,-1.30832,4.87978,2.05807,18.45938,3.60416,-0.76833,-0.23623,-0.28619,-0.52150,-60.01127,123.09710,87.49559
0.30684,1.04396,-0.29659,0.33649,-1.47088,0.96394,-5.50617,1.16130,4.91719,-2.71421,18.00760,-0.12462,-0.73846,-0.30808,-0.23533,-0.55171,-118.36050,122.82450,-41.53481
0.30780,1.03698,-0.28416,0.26960,-1.24747,0.95414,-6.06162,2.60418,4.75761,-6.03015,15.44842,-2.15038,-0.70661,-0.36630,-0.19425,-0.57340,-80.66111,100.10710,-34.23256
0.30519,1.03081,-0.27276,0.15992,-1.06197,0.92960,-6.41690,3.19063,4.20651,-8.56080,12.41151,-2.40586,-0.67381,-0.40565,-0.15965,-0.59661,-47.74178,28.40420,-42.82069
0.29865,1.02645,-0.26243,0.00851,-0.88633,0.89046,-6.63245,3.19867,3.40455,-9.63595,10.31931,-3.46432,-0.64165,-0.42902,-0.12934,-0.62249,-26.72757,-16.74637,-44.69697
0.29104,1.02163,-0.25325,-0.12663,-0.75787,0.84150,-6.52789,2.78791,2.84377,-8.71824,8.47655,-4.23586,-0.61121,-0.44529,-0.11085,-0.64486,1.59074,-40.30021,-32.31278
0.28351,1.01667,-0.24511,-0.22531,-0.66325,0.78607,-6.22162,2.34874,2.61160,-7.42473,7.31553,-5.43112,-0.58183,-0.46161,-0.10018,-0.66208,22.69965,-42.86671,-13.82771
0.27495,1.01271,-0.23946,-0.31547,-0.57615,0.70064,-5.74887,2.03900,2.51814,-5.47058,5.07068,-6.72029,-0.55589,-0.47837,-0.09302,-0.67342,35.27789,-23.74549,-4.57502
0.26649,1.00820,-0.23682,-0.38358,-0.51825,0.58690,-5.04792,1.90357,2.51821,-3.12339,2.23218,-7.19256,-0.53557,-0.49698,-0.08896,-0.67695,42.70895,-4.00916,-3.66659
0.25952,1.00183,-0.23314,-0.41058,-0.50418,0.51624,-4.52686,1.87933,2.53442,-2.59730,0.69352,-7.05994,-0.51470,-0.51687,-0.08382,-0.67890,48.32480,2.58695,-3.10676
0.25221,0.99459,-0.23267,-0.43516,-0.50816,0.41047,-3.70041,1.96099,2.43610,-0.89087,-0.71968,-6.22492,-0.50455,-0.53538,-0.08086,-0.67250,49.48061,8.86318,-12.64417
0.24565,0.98678,-0.23261,-0.44123,-0.52035,0.32028,-2.93965,2.20166,2.27915,-0.19222,-0.33832,-4.78214,-0.49781,-0.55536,-0.07520,-0.66189,46.46679,17.61282,-19.00292
0.23917,0.97966,-0.23136,-0.44557,-0.51785,0.26999,-2.67312,2.44622,2.13606,-0.78601,0.90097,-4.36826,-0.48480,-0.57646,-0.06374,-0.65468,34.61961,21.54477,-20.79664
0.23181,0.97428,-0.23270,-0.46273,-0.48736,0.18883,-2.82956,3.00640,1.82184,-1.21894,2.60765,-4.39359,-0.46787,-0.60142,-0.03648,-0.64657,-11.62864,28.46499,-24.05623
0.22426,0.97028,-0.23435,-0.47799,-0.44045,0.11940,-3.30075,3.53734,1.61223,-0.31511,3.00917,-3.84967,-0.44230,-0.62799,-0.00294,-0.64030,-36.16530,29.06710,-15.97960
0.21729,0.96562,-0.23442,-0.48144,-0.41627,0.09224,-3.50128,3.74643,1.61793,0.05877,2.82394,-3.30136,-0.41596,-0.65226,0.02182,-0.63329,-35.18628,24.79296,-5.59621
0.21065,0.96262,-0.23566,-0.47722,-0.37247,0.05341,-3.61775,4.01857,1.80693,0.43035,1.85535,-1.76768,-0.38594,-0.68002,0.04413,-0.62183,-8.09551,17.37752,10.07979
0.20383,0.95877,-0.23590,-0.47671,-0.35126,0.03825,-3.62715,4.14807,1.84445,-0.66587,1.27106,-0.44723,-0.35915,-0.70338,0.06528,-0.60992,3.87304,11.72724,4.65385
0.19603,0.95470,-0.23565,-0.49393,-0.33789,0.03403,-3.94574,4.21096,1.58317,-2.11452,0.81174,0.48340,-0.33105,-0.72074,0.09705,-0.60126,-19.42619,1.45972,-9.99080
0.18683,0.95071,-0.23470,-0.52942,-0.32717,0.04226,-4.42879,4.09514,1.25896,-2.93506,0.89276,1.04529,-0.30054,-0.73173,0.13359,-0.59699,-37.03197,-12.61361,-12.55163
0.17681,0.94697,-0.23285,-0.56946,-0.31489,0.06349,-4.80743,3.83170,1.01374,-2.44653,0.76638,1.69539,-0.26969,-0.73821,0.16842,-0.59494,-35.09064,-21.82518,-5.49957
0.16716,0.94355,-0.22985,-0.59529,-0.29942,0.09911,-4.78852,3.42942,0.86403,-1.10172,1.01259,2.37788,-0.24439,-0.74185,0.19441,-0.59341,-8.46146,-28.87281,-2.00193
0.15811,0.94091,-0.22591,-0.60265,-0.27535,0.14149,-4.28801,2.96674,0.79167,0.21309,1.81322,2.45190,-0.22804,-0.74520,0.20832,-0.59099,27.09635,-33.11479,-3.18155
0.14983,0.93938,-0.22169,-0.59558,-0.23823,0.17801,-3.35022,2.55843,0.80073,1.16952,2.88114,2.00096,-0.22102,-0.75120,0.20906,-0.58579,61.42271,-29.00617,-3.96739
0.14234,0.93901,-0.21747,-0.57871,-0.18961,0.20646,-2.31650,2.26538,0.83915,1.38548,3.89649,1.98627,-0.21910,-0.75960,0.20239,-0.57796,77.41150,-18.89327,-4.91018
0.13487,0.93976,-0.21311,-0.56399,-0.13455,0.22957,-1.55603,2.00175,0.88617,1.03658,4.35042,1.87654,-0.21635,-0.76720,0.19544,-0.57131,63.24272,-15.71783,-3.78202
0.12754,0.94131,-0.20868,-0.55054,-0.07889,0.24814,-1.10911,1.76419,0.96039,1.27649,4.11341,1.34622,-0.21032,-0.77355,0.19037,-0.56670,37.71289,-15.50302,2.22388
0.12080,0.94358,-0.20427,-0.53140,-0.02390,0.26246,-0.85061,1.54721,1.01813,1.60848,4.14210,1.04343,-0.20292,-0.77874,0.18683,-0.56345,23.66372,-13.16762,2.06886
0.11439,0.94668,-0.19991,-0.50869,0.02991,0.27055,-0.77511,1.33835,1.12685,1.96537,3.77160,0.32623,-0.19209,-0.78282,0.18458,-0.56234,9.79242,-14.73081,7.08212
0.10847,0.94985,-0.19602,-0.48453,0.07240,0.26924,-0.73425,1.20620,1.21253,2.35464,3.37189,-0.59137,-0.18063,-0.78707,0.18286,-0.56077,3.96051,-12.83165,8.03033
0.10341,0.95379,-0.19287,-0.45267,0.11702,0.25613,-0.74168,1.14768,1.31114,2.45748,3.07144,-1.26717,-0.16747,-0.79184,0.18163,-0.55853,3.40300,-5.17202,7.42911
