posX, posY, posZ, velX, velY, velZ, angVelX, angVelY, angVelZ, accX, accY, accZ, rotX, rotY, rotZ, rotW, angAccX, angAccY, angAccZ
-0.12918,1.46945,-0.45919,-0.15116,0.18016,-0.03219,0.41966,0.39598,0.24027,0.90613,-1.47683,0.00349,-0.12811,-0.91207,-0.25873,-0.29117,-5.60102,-5.16370,-2.98188
-0.13067,1.47091,-0.45964,-0.14160,0.16290,-0.03178,0.35349,0.36018,0.23517,0.39323,-0.96874,-0.03811,-0.12742,-0.91249,-0.25978,-0.28919,-6.51007,-4.80814,-1.52427
-0.13248,1.47235,-0.45988,-0.13962,0.14933,-0.02792,0.32722,0.35423,0.28624,0.11722,-0.85640,0.56452,-0.12568,-0.91312,-0.26197,-0.28598,-0.49371,1.44376,3.13463
-0.13437,1.47381,-0.45995,-0.13898,0.13919,-0.02247,0.22928,0.25715,0.36693,-0.05173,-0.47767,0.40295,-0.12139,-0.91368,-0.26274,-0.28534,-6.31992,-7.38738,4.71318
-0.13652,1.47536,-0.45970,-0.14319,0.13315,-0.01285,0.19051,0.20157,0.47971,-0.46734,-0.36403,0.68611,-0.11622,-0.91429,-0.26479,-0.28363,-2.83711,-3.47979,7.24583
-0.13879,1.47690,-0.45937,-0.14814,0.12794,-0.00431,0.19516,0.17699,0.54245,-0.31310,-0.48999,0.57187,-0.11207,-0.91468,-0.26753,-0.28149,-0.16991,-3.48200,6.48115
-0.14082,1.47830,-0.45896,-0.14769,0.12188,0.00363,0.23011,0.18747,0.55039,0.18964,-0.55077,0.46947,-0.10946,-0.91491,-0.27071,-0.27872,2.29952,0.28980,1.94853
-0.14261,1.47950,-0.45858,-0.14399,0.11394,0.00961,0.24388,0.19325,0.50613,0.14272,-0.54926,0.38838,-0.10812,-0.91505,-0.27308,-0.27646,1.06065,0.55511,-2.95817
-0.14460,1.48084,-0.45797,-0.14428,0.11032,0.01788,0.37461,0.31511,0.46426,-0.31776,-0.03238,0.55194,-0.10896,-0.91514,-0.27821,-0.27065,4.22971,4.30079,-3.48918
-0.14697,1.48216,-0.45662,-0.15108,0.10917,0.04024,0.68694,0.49444,0.41394,-0.30690,0.00932,1.82119,-0.11280,-0.91403,-0.28873,-0.26165,18.58540,12.86409,-2.42991
-0.14925,1.48353,-0.45524,-0.15476,0.10984,0.05944,0.82767,0.44558,0.38482,-0.27772,0.11369,1.92420,-0.11396,-0.91218,-0.29715,-0.25815,12.80321,1.15263,-3.77625
-0.15151,1.48496,-0.45362,-0.15700,0.11138,0.07726,0.85981,0.29620,0.33893,-0.03171,0.20618,1.58272,-0.11424,-0.90991,-0.30384,-0.25824,8.10029,-8.41845,-3.27223
-0.15395,1.48722,-0.45175,-0.16174,0.12454,0.09208,0.74022,0.00675,0.26027,-0.89824,1.39899,0.33154,-0.11306,-0.90738,-0.30684,-0.26407,-6.28457,-17.26318,-6.37605
-0.15721,1.49013,-0.45040,-0.17889,0.14475,0.09360,0.70550,-0.05621,0.27173,-1.85774,2.18501,-0.45357,-0.11165,-0.90584,-0.31130,-0.26471,-6.62693,-11.45957,-1.05247
-0.16153,1.49431,-0.44923,-0.20945,0.18100,0.09198,0.83987,0.12772,0.30166,-2.70169,3.17387,-0.47224,-0.11292,-0.90471,-0.31942,-0.25830,4.38760,7.40611,2.40831
-0.16722,1.50006,-0.44775,-0.25677,0.23674,0.09704,1.24159,0.54120,0.36516,-3.16336,4.13523,0.61651,-0.11785,-0.90274,-0.33484,-0.24301,23.72281,26.03263,5.25172
-0.17316,1.50645,-0.44585,-0.29683,0.28959,0.10772,1.55568,0.77870,0.43819,-3.53726,4.71725,1.36596,-0.12153,-0.89972,-0.35086,-0.22939,28.22710,25.45572,5.62883
-0.18046,1.51468,-0.44360,-0.34954,0.35994,0.12114,1.68616,0.74612,0.56783,-3.76800,5.46514,1.42728,-0.12040,-0.89620,-0.36534,-0.22104,15.85290,4.50666,8.17192
-0.18937,1.52514,-0.44148,-0.41883,0.45305,0.13150,1.59111,0.47054,0.75273,-5.14952,5.32386,0.79074,-0.11309,-0.89320,-0.37583,-0.21945,-6.90642,-17.62986,8.41630
-0.19955,1.53661,-0.43908,-0.49385,0.54370,0.14403,1.52799,0.17607,1.03851,-4.59153,9.55060,0.87116,-0.10174,-0.88964,-0.38774,-0.21874,1.65066,-25.32513,-1.62412
-0.21084,1.55046,-0.43630,-0.56982,0.65134,0.15977,1.34855,0.02150,1.49791,-6.48925,6.77648,1.16891,-0.08289,-0.88860,-0.39729,-0.21374,-20.12425,-21.72460,38.23524
-0.22396,1.56437,-0.43281,-0.65831,0.73755,0.18953,1.38145,-0.17220,1.91086,-6.38177,5.70926,2.39572,-0.06294,-0.88476,-0.41177,-0.20901,2.48044,-11.20667,29.96713
-0.23812,1.57882,-0.42856,-0.74325,0.81198,0.22488,1.58608,-0.07163,2.27216,-6.09650,4.84560,2.19449,-0.04545,-0.87990,-0.43008,-0.19682,9.64119,-3.14709,26.50671
-0.25305,1.59316,-0.42363,-0.82112,0.86514,0.25911,1.92520,0.32241,2.55543,-5.22174,3.04759,1.87732,-0.03259,-0.87393,-0.45211,-0.17542,21.10437,25.18551,24.14585
-0.26799,1.60710,-0.41906,-0.87993,0.89999,0.28134,2.12030,0.81885,2.76260,-3.38469,1.50475,1.53576,-0.02199,-0.86880,-0.47174,-0.14887,13.98331,36.53119,21.54937
-0.28218,1.62025,-0.41470,-0.91166,0.91243,0.29369,2.05550,1.04812,2.80176,-1.78164,0.03167,1.52216,-0.01162,-0.86489,-0.48527,-0.12786,-1.95027,27.73201,11.95858
-0.29590,1.63264,-0.40962,-0.92792,0.90835,0.31441,1.86633,1.13592,2.68311,-0.60322,-0.90177,1.57991,-0.00325,-0.86208,-0.49433,-0.11156,-15.45260,-0.09319,-5.70191
-0.30892,1.64386,-0.40336,-0.92849,0.88515,0.34851,1.88671,1.39003,2.53784,0.45836,-2.33966,2.98953,0.00035,-0.85718,-0.50696,-0.09078,-4.43053,18.37040,-6.57841
-0.32129,1.65416,-0.39624,-0.91846,0.85235,0.38800,1.93652,1.48569,2.34429,1.33563,-3.26214,3.92105,0.00279,-0.85090,-0.52014,-0.07358,0.13814,16.04779,-12.21042
-0.33263,1.66296,-0.38760,-0.89459,0.80310,0.44213,2.02840,1.46279,2.04533,2.26498,-3.99424,4.06147,0.00238,-0.84317,-0.53415,-0.06117,3.24668,3.29102,-19.83343
-0.34234,1.66987,-0.37796,-0.85070,0.73498,0.50048,2.17512,1.44716,1.61410,2.90228,-4.45275,3.10773,-0.00331,-0.83396,-0.54938,-0.05178,6.73438,1.20785,-27.68936
-0.35190,1.67657,-0.36890,-0.81424,0.67828,0.53572,2.31124,1.65026,1.35942,2.90580,-4.81611,2.26446,-0.01029,-0.82426,-0.56498,-0.03579,7.00271,13.68561,-23.65118
-0.36067,1.68166,-0.36008,-0.77304,0.60793,0.55824,2.34957,1.83711,1.11446,3.07908,-5.19024,1.09048,-0.01906,-0.81513,-0.57864,-0.01965,4.21959,22.41996,-15.03346
-0.36853,1.68500,-0.35221,-0.72508,0.52226,0.56078,2.18048,1.95024,0.88193,2.43292,-4.55632,-0.31829,-0.02781,-0.80891,-0.58725,-0.00544,-10.61607,7.70042,-11.91635
-0.37667,1.68882,-0.34502,-0.69119,0.46253,0.55078,1.95849,1.95151,0.74214,2.59568,-4.07951,-0.93353,-0.03395,-0.80383,-0.59385,0.00734,-14.87237,2.73771,-6.76408
-0.38452,1.69266,-0.33843,-0.66030,0.41886,0.53703,1.73477,1.93223,0.61204,2.61307,-3.36158,-1.07039,-0.04032,-0.79958,-0.59891,0.01904,-20.13969,-2.24551,-8.78483
-0.39151,1.69562,-0.33235,-0.62135,0.37064,0.52045,1.44268,1.84382,0.41249,2.27693,-2.77266,-0.82777,-0.04790,-0.79726,-0.60111,0.02727,-19.28778,-2.90752,-10.36405
-0.39870,1.69873,-0.32606,-0.59532,0.33541,0.50813,1.21082,1.75945,0.28411,1.42965,-2.19767,-0.82706,-0.05460,-0.79497,-0.60316,0.03527,-18.65257,-8.43481,-10.36526
-0.40605,1.70180,-0.31939,-0.57931,0.30799,0.50259,1.07866,1.78746,0.25719,1.05478,-2.13160,-0.22569,-0.06125,-0.79180,-0.60591,0.04671,-14.22108,1.00757,-2.48349
-0.41346,1.70421,-0.31244,-0.56836,0.27639,0.50365,0.97268,1.77071,0.27558,0.65459,-2.20880,0.59007,-0.06636,-0.78869,-0.60844,0.05794,-8.18409,0.71989,1.79000
-0.42098,1.70588,-0.30469,-0.56167,0.23905,0.51802,0.92596,1.62280,0.29403,0.35388,-2.41346,1.44924,-0.06903,-0.78507,-0.61198,0.06610,-3.63434,-8.60445,0.80885
-0.42861,1.70752,-0.29657,-0.55819,0.20920,0.53566,0.93635,1.46113,0.29582,0.42138,-2.55012,1.58781,-0.07105,-0.78058,-0.61670,0.07296,0.99053,-11.67433,0.05518
-0.43597,1.70864,-0.28791,-0.55083,0.17800,0.55809,0.95609,1.32277,0.28677,0.41738,-2.04406,1.66809,-0.07291,-0.77586,-0.62167,0.07910,0.20955,-14.36609,-2.40358
-0.44306,1.70913,-0.27845,-0.54058,0.14331,0.58842,1.06622,1.30600,0.33161,0.66324,-2.18913,1.88712,-0.07507,-0.76916,-0.62842,0.08856,7.36997,-0.14701,1.92932
-0.45016,1.70974,-0.26912,-0.53335,0.11892,0.60839,1.12674,1.23043,0.38108,0.67583,-1.98074,1.64289,-0.07577,-0.76294,-0.63467,0.09682,6.74723,-4.00369,2.81308
-0.45710,1.70983,-0.25946,-0.52525,0.09174,0.62914,1.18593,1.04539,0.46072,0.79893,-2.08131,1.52265,-0.07307,-0.75678,-0.64135,0.10299,5.02766,-9.88495,5.32752
-0.46382,1.70951,-0.24973,-0.51514,0.06460,0.64546,1.20905,0.67318,0.46063,1.03469,-1.95337,1.11628,-0.06749,-0.75152,-0.64817,0.10267,3.01942,-23.67211,0.00689
-0.46990,1.70866,-0.23984,-0.49595,0.03391,0.66096,1.20030,0.06791,0.35599,1.23412,-1.70284,0.68037,-0.05856,-0.74737,-0.65519,0.09344,-0.45809,-33.61499,-8.35926
-0.47588,1.70810,-0.23037,-0.47944,0.01547,0.66544,1.18977,-0.35365,0.22898,1.62107,-1.49067,0.06635,-0.05136,-0.74294,-0.66202,0.08442,0.62321,-33.13284,-10.27293
-0.48126,1.70742,-0.22139,-0.45721,-0.00016,0.65995,1.15975,-0.74663,0.07161,1.19957,-0.73816,-1.14989,-0.04399,-0.73889,-0.66850,0.07225,-1.15786,-32.53368,-15.59495
-0.48649,1.70713,-0.21327,-0.43778,-0.00570,0.64059,1.12835,-0.82166,0.04923,1.07797,0.05770,-2.17130,-0.03867,-0.73456,-0.67414,0.06679,-1.33480,-11.61608,-5.31589
-0.49168,1.70727,-0.20592,-0.42247,-0.00252,0.61343,1.07164,-0.73305,0.06274,0.97502,0.46413,-2.72607,-0.03558,-0.73062,-0.67873,0.06523,-4.08474,4.75985,1.29670
-0.49676,1.70811,-0.20011,-0.40899,0.01217,0.56683,0.92000,-0.60062,0.09110,0.61139,1.24412,-3.11653,-0.03360,-0.72868,-0.68090,0.06531,-8.10299,7.46464,1.92522
-0.50204,1.70930,-0.19457,-0.40200,0.02961,0.52593,0.81240,-0.44882,0.15724,0.42013,1.23225,-2.78172,-0.03164,-0.72657,-0.68305,0.06739,-9.65248,12.13242,5.11933
-0.50758,1.71040,-0.18896,-0.40092,0.04075,0.49727,0.74939,-0.43947,0.17552,0.06653,0.99556,-2.75099,-0.02827,-0.72424,-0.68574,0.06657,-6.45159,6.60999,3.74689
-0.51347,1.71167,-0.18458,-0.40631,0.05183,0.45516,0.74209,-0.40651,0.27944,-0.56942,0.19988,-1.82252,-0.02336,-0.72122,-0.68896,0.06809,-2.17485,2.22393,5.20369
-0.51970,1.71229,-0.17940,-0.41638,0.04991,0.43504,0.80861,-0.46541,0.33120,-0.83711,-0.45005,-1.37114,-0.01724,-0.71666,-0.69394,0.06743,4.91967,0.57619,7.38763
-0.52634,1.71266,-0.17440,-0.43042,0.04434,0.41724,0.90405,-0.58825,0.37419,-1.27315,-0.42945,-1.52793,-0.00922,-0.71121,-0.69991,0.06501,6.84031,-11.27749,1.68161
-0.53349,1.71283,-0.17029,-0.44990,0.03724,0.38887,1.00638,-0.81320,0.37015,-0.94390,-0.40045,-1.61753,0.00073,-0.70521,-0.70653,0.05913,6.13215,-11.66921,0.19088
-0.54043,1.71315,-0.16607,-0.46139,0.03402,0.36878,1.07151,-0.99865,0.32920,-0.95330,-0.22573,-1.69947,0.01004,-0.69943,-0.71273,0.05216,5.19727,-14.64654,-3.82386
-0.54773,1.71341,-0.16233,-0.47611,0.03067,0.34580,1.13504,-1.28623,0.25346,-0.99553,-0.39556,-1.44134,0.02151,-0.69335,-0.71911,0.04109,5.69565,-17.36315,-4.60067
-0.55535,1.71341,-0.15878,-0.49270,0.02381,0.32434,1.21955,-1.69220,0.12766,-1.26755,-0.53240,-1.46868,0.03556,-0.68640,-0.72594,0.02452,6.68690,-27.54040,-10.80678
-0.56353,1.71312,-0.15556,-0.51523,0.01367,0.30181,1.34262,-2.12394,0.04223,-1.68599,-0.60188,-1.45200,0.05241,-0.67789,-0.73327,0.00576,8.09384,-26.81266,-7.20891
-0.57210,1.71279,-0.15256,-0.53935,0.00525,0.28093,1.46760,-2.37104,0.11849,-2.11039,-0.28083,-1.76402,0.07038,-0.66820,-0.74060,-0.00826,8.87735,-22.34302,0.22658
-0.58116,1.71239,-0.14978,-0.56599,-0.00266,0.26076,1.58770,-2.41863,0.40209,-1.97384,-0.66819,-1.43287,0.08993,-0.65735,-0.74806,-0.01450,6.07985,-6.55930,18.69818
-0.59066,1.71109,-0.14739,-0.59380,-0.02440,0.23866,1.76871,-2.29272,0.86968,-2.17589,-1.99304,-1.94446,0.11096,-0.64373,-0.75706,-0.01238,8.18722,0.36088,27.56178
-0.60027,1.70946,-0.14526,-0.61655,-0.04579,0.21784,1.93609,-2.30921,1.08801,-1.02271,-1.80329,-1.55757,0.13157,-0.62897,-0.76607,-0.01499,11.44999,3.86644,30.84169
-0.61025,1.70718,-0.14326,-0.64059,-0.07371,0.19968,2.12516,-2.31750,1.45049,-1.68147,-2.47372,-1.53389,0.15565,-0.61179,-0.77543,-0.01381,8.76508,-4.44578,21.18438
-0.62037,1.70370,-0.14180,-0.66125,-0.11522,0.17686,2.32423,-2.46164,1.65151,-1.18331,-3.53635,-1.54049,0.18107,-0.59280,-0.78455,-0.01686,10.68877,-7.77264,19.28144
-0.63058,1.69915,-0.14088,-0.67841,-0.16482,0.15034,2.55445,-2.67016,1.73617,-1.18336,-3.70015,-2.06102,0.20710,-0.57137,-0.79378,-0.02374,16.95691,-14.20967,6.74631
-0.64100,1.69371,-0.14076,-0.69463,-0.21789,0.11625,2.78072,-2.92830,1.77011,-0.88217,-4.13999,-2.80096,0.23450,-0.54799,-0.80225,-0.03323,17.01988,-15.40402,6.13057
-0.65133,1.68747,-0.14186,-0.70563,-0.27186,0.06970,3.00177,-3.20334,1.69684,-0.64681,-3.70335,-3.94113,0.26156,-0.52306,-0.80982,-0.04673,19.96236,-18.60873,-6.08569
-0.66148,1.68071,-0.14426,-0.71073,-0.32189,0.01249,3.12375,-3.36865,1.70922,-0.11994,-3.37983,-4.98707,0.28855,-0.49820,-0.81561,-0.05759,12.45547,-14.50753,-0.58666
-0.67110,1.67344,-0.14795,-0.70608,-0.36850,-0.05291,3.12139,-3.37391,1.91582,0.65439,-3.05353,-4.91626,0.31572,-0.47396,-0.81974,-0.06092,-2.14052,-1.67308,13.61399
-0.68021,1.66621,-0.15233,-0.69400,-0.40313,-0.11334,3.06852,-3.36077,2.01873,1.43364,-2.83360,-5.32404,0.34126,-0.45077,-0.82227,-0.06487,-4.22027,-3.67944,9.46224
-0.68809,1.65805,-0.15881,-0.66413,-0.44487,-0.19438,2.98257,-3.32805,2.04939,2.57065,-2.65873,-4.98658,0.36520,-0.42870,-0.82345,-0.06907,-7.91880,1.09167,3.45419
-0.69492,1.64999,-0.16568,-0.62344,-0.47585,-0.26421,3.00385,-3.29881,1.84457,3.65239,-2.10242,-4.92042,0.38516,-0.40600,-0.82493,-0.07942,1.63930,2.85244,-9.31374
-0.70035,1.64208,-0.17322,-0.56879,-0.49705,-0.32890,3.03412,-3.13721,1.63058,4.21274,-0.91215,-4.60751,0.40065,-0.38354,-0.82726,-0.08953,6.50435,11.45162,-16.07967
-0.70399,1.63452,-0.18149,-0.49598,-0.50769,-0.39196,2.89811,-2.75486,1.57904,4.65930,-0.17823,-3.85791,0.41183,-0.36440,-0.83015,-0.09196,-8.57863,22.59200,-2.26917
-0.70711,1.62741,-0.18969,-0.43060,-0.50818,-0.43984,2.67031,-2.34641,1.66454,4.61910,0.29448,-3.32765,0.42202,-0.34711,-0.83279,-0.08879,-18.46489,25.50090,5.87920
-0.71035,1.62055,-0.19768,-0.38443,-0.50426,-0.47112,2.48089,-2.05426,1.78122,4.54638,0.71823,-3.14429,0.43284,-0.32952,-0.83486,-0.08409,-22.77617,25.68432,11.23797
-0.71094,1.61494,-0.20736,-0.30552,-0.48006,-0.52421,2.11491,-1.59786,1.99193,4.37028,1.98422,-2.63738,0.43972,-0.31661,-0.83748,-0.07094,-26.52692,21.74964,14.96853
-0.71193,1.61064,-0.21692,-0.24998,-0.43817,-0.56461,1.98152,-1.39077,1.84356,3.93481,3.61490,-2.73741,0.44626,-0.30298,-0.83923,-0.06893,-14.66807,16.37622,-2.67230
-0.71307,1.60781,-0.22680,-0.21063,-0.38210,-0.59922,1.87835,-1.29916,1.56549,2.85600,5.48370,-2.99520,0.45251,-0.29122,-0.83979,-0.07192,-5.10831,11.79364,-21.43516
-0.71371,1.60818,-0.23790,-0.17144,-0.28573,-0.64674,1.54793,-1.26918,1.33443,1.67597,6.89494,-3.15414,0.46009,-0.28590,-0.83742,-0.07282,-16.61800,3.96398,-18.48991
-0.71499,1.60976,-0.24921,-0.15135,-0.19007,-0.68687,1.25361,-1.28840,1.29429,1.60029,7.36570,-3.31998,0.47018,-0.27965,-0.83416,-0.07002,-20.94210,-3.24763,-3.39243
-0.71628,1.61267,-0.26123,-0.13680,-0.09618,-0.72779,0.67181,-1.45071,1.03125,0.61713,7.96750,-3.28876,0.48253,-0.28516,-0.82521,-0.06978,-37.74958,-9.43598,-27.77980
-0.71753,1.61686,-0.27364,-0.12514,-0.00602,-0.76547,0.22717,-1.60715,1.00261,1.71834,7.45756,-2.97628,0.49725,-0.28862,-0.81560,-0.06508,-41.31894,-15.91079,-8.50495
-0.71784,1.62372,-0.28686,-0.10132,0.10527,-0.80682,-0.06606,-1.67367,0.70748,1.57230,8.05644,-2.81505,0.50782,-0.29476,-0.80665,-0.06751,-16.06640,-5.70194,-21.28642
-0.71782,1.63270,-0.30045,-0.07744,0.22765,-0.84630,-0.52878,-1.84074,0.52977,1.61322,7.50383,-2.25858,0.52196,-0.30568,-0.79356,-0.06623,-25.95104,-12.00713,-16.06913
-0.70890,1.64158,-0.31305,-0.03354,0.32778,-0.87187,-0.87539,-1.94548,0.39266,2.82692,6.75470,-1.60246,0.53541,-0.31602,-0.78058,-0.06454,-26.89127,-10.84420,-10.17300
-0.69909,1.65163,-0.32521,0.01874,0.42224,-0.88962,-0.89168,-1.95843,0.04288,3.24952,6.32539,-0.80986,0.54439,-0.32409,-0.77037,-0.07175,-6.00046,-3.65518,-21.69956
-0.69202,1.66291,-0.33736,0.07095,0.51278,-0.89690,-0.79314,-1.89667,-0.35147,3.40805,6.54764,-0.33723,0.55004,-0.33144,-0.76203,-0.08320,14.48195,0.97776,-29.05261
-0.68784,1.67577,-0.34906,0.12554,0.60772,-0.88683,-0.93636,-1.73574,-0.69182,3.30539,5.53444,0.86426,0.55303,-0.34475,-0.75304,-0.09080,-5.17132,7.93831,-23.02518
-0.68341,1.68813,-0.36047,0.17238,0.67292,-0.87368,-1.12076,-1.64949,-0.87169,3.22216,3.90660,1.00338,0.55758,-0.35840,-0.74266,-0.09544,-12.11356,8.57890,-17.69070
-0.67876,1.69990,-0.37176,0.21077,0.71243,-0.86088,-1.10260,-1.62493,-1.01719,3.11826,2.50594,1.48457,0.56253,-0.36844,-0.73293,-0.10307,-4.49249,1.74647,-12.20424
-0.67291,1.71165,-0.38191,0.26232,0.74094,-0.83718,-1.03339,-1.62787,-1.08762,3.26879,1.13991,1.45625,0.56803,-0.37641,-0.72341,-0.11105,6.29341,-0.56180,-7.17374
-0.66676,1.72237,-0.39199,0.30635,0.74608,-0.81538,-1.02080,-1.61888,-0.95311,3.85465,-0.05202,1.94067,0.57536,-0.38224,-0.71407,-0.11383,-0.09450,0.26999,6.60347
-0.65890,1.73243,-0.40131,0.36689,0.74035,-0.78498,-0.87980,-1.52978,-0.75442,4.82870,-0.73551,2.53387,0.58161,-0.38373,-0.70789,-0.11564,4.52308,4.62289,15.32708
-0.64994,1.74211,-0.40952,0.43319,0.73147,-0.74643,-0.62489,-1.37382,-0.60401,4.83024,-0.73505,3.06713,0.58547,-0.38223,-0.70493,-0.11916,16.52362,10.17904,12.60475
-0.64023,1.75158,-0.41684,0.49633,0.72089,-0.70164,-0.32794,-1.22050,-0.45972,4.26494,-0.70216,2.92425,0.58850,-0.37810,-0.70388,-0.12349,22.14787,12.34252,11.09986
-0.62982,1.76084,-0.42399,0.55614,0.70931,-0.66261,-0.13109,-1.21700,-0.25705,4.26746,-0.88048,2.64716,0.59511,-0.37271,-0.70066,-0.12650,11.68603,2.95242,15.42994
-0.61852,1.76981,-0.43090,0.61885,0.69721,-0.63086,0.08156,-1.27151,-0.05210,4.90929,-0.67071,1.67324,0.60321,-0.36480,-0.69720,-0.13026,16.42528,-3.37562,15.41968
-0.60624,1.77898,-0.43825,0.68147,0.69050,-0.61224,0.17048,-1.34259,0.13441,5.71748,-0.14012,1.11204,0.61249,-0.35775,-0.69235,-0.13234,8.38786,-5.36277,17.09204
-0.59051,1.78899,-0.44519,0.79041,0.70131,-0.59212,0.39185,-1.47822,0.18510,6.93557,1.31884,1.33359,0.62177,-0.34881,-0.68715,-0.13986,9.40374,-7.82450,5.88335
-0.57501,1.80019,-0.45214,0.87050,0.72830,-0.57490,0.72418,-1.60186,-0.00387,7.27178,2.78906,1.92298,0.62803,-0.34043,-0.68230,-0.15542,22.28037,-8.29952,-6.43155
-0.55721,1.81347,-0.45823,0.96943,0.78323,-0.54765,1.31446,-1.70967,-0.49859,7.62248,4.71339,2.06655,0.62886,-0.33097,-0.67883,-0.18490,43.97965,-8.27031,-27.37081
-0.53583,1.82998,-0.46314,1.11167,0.88259,-0.50606,1.68619,-1.74147,-1.24323,8.40931,6.83544,1.72981,0.62458,-0.32947,-0.67313,-0.21967,34.64112,-0.25497,-40.24671
-0.51468,1.84712,-0.46799,1.21669,0.96946,-0.47137,1.59163,-1.62848,-1.80934,9.88618,8.48159,2.85248,0.61946,-0.33657,-0.66545,-0.24529,0.56142,8.29805,-40.23373
-0.48929,1.86792,-0.47074,1.36537,1.09535,-0.40853,0.72005,-1.19871,-2.42615,12.90188,10.88596,5.19932,0.60987,-0.36524,-0.65467,-0.25702,-36.21010,27.88626,-49.63943
-0.45897,1.89202,-0.46984,1.56979,1.24907,-0.29916,-0.18575,-0.15750,-3.35468,19.50697,11.48329,9.66215,0.58196,-0.41092,-0.64989,-0.26477,-61.90843,77.91016,-54.10138
-0.42034,1.92006,-0.46517,1.86745,1.43254,-0.15235,-0.73612,1.42930,-4.93683,26.70075,14.15434,11.22848,0.52429,-0.47171,-0.65032,-0.28230,-16.34588,106.13750,-102.29760
-0.37121,1.95234,-0.45757,2.26638,1.64074,0.00914,-1.41652,3.52536,-7.35224,33.67816,15.02851,10.52374,0.42809,-0.55735,-0.64306,-0.30427,-12.76836,138.65470,-169.87830
-0.31383,1.98411,-0.45087,2.71015,1.79539,0.12387,-2.45878,5.83451,-9.63203,43.71962,10.75025,6.04002,0.30459,-0.65309,-0.62037,-0.30958,-26.09604,168.61000,-194.24430
-0.23066,2.01015,-0.44613,3.48461,1.81222,0.17707,-4.53043,9.98245,-12.45495,52.92412,-8.36120,-1.58526,0.10922,-0.77233,-0.56655,-0.26570,-44.94053,271.28180,-205.75280
-0.14452,2.02318,-0.44810,4.11395,1.60843,0.10374,-5.81223,12.50404,-13.80345,54.52433,-28.70196,-7.48740,-0.06203,-0.84206,-0.49224,-0.21160,-39.04713,248.49320,-169.13130
-0.03588,1.99534,-0.46882,4.98885,0.77994,-0.24516,-3.64761,16.19284,-16.16262,45.75231,-70.06569,-30.13540,-0.31152,-0.82337,-0.44508,-0.16411,91.57422,14.79228,-325.12420
0.05595,1.93934,-0.50069,5.38974,-0.34177,-0.71192,-1.26933,17.01086,-18.33893,10.65094,-90.28777,-34.84795,-0.51780,-0.75178,-0.38002,-0.14935,-23.06682,2.13823,-242.01890
0.12252,1.86697,-0.53834,5.26009,-1.45790,-1.16748,0.32941,16.10689,-19.77775,-30.70672,-91.18224,-36.11585,-0.67316,-0.65584,-0.30582,-0.15236,-149.08510,-29.00151,-151.17690
0.14798,1.77120,-0.58590,4.54158,-2.65556,-1.62049,1.63303,14.44581,-20.41961,-67.30795,-76.02350,-26.70819,-0.78763,-0.54314,-0.24257,-0.16062,-134.45610,-94.77819,-61.31150
0.13935,1.68053,-0.62741,3.44143,-3.53208,-1.89949,2.29487,13.02712,-20.76053,-88.30293,-48.75641,-13.75753,-0.87508,-0.42280,-0.17177,-0.16117,-119.14340,-37.70683,1.79638
0.10352,1.60318,-0.65774,2.12812,-3.99581,-1.94443,3.51753,11.56901,-20.91593,-96.08490,-14.21881,7.46082,-0.94030,-0.28139,-0.12041,-0.14882,-85.74973,-82.32306,-51.49139
0.04138,1.55280,-0.67044,0.68070,-3.90786,-1.67495,3.60732,8.52388,-20.10033,-78.15801,21.59398,25.32229,-0.96596,-0.16520,-0.10053,-0.17184,-165.82510,-92.62454,53.54404
0.00017,1.52205,-0.67416,-0.11644,-3.54281,-1.34302,2.81122,6.36801,-19.09072,-53.01404,37.22622,30.89229,-0.97551,-0.06526,-0.06935,-0.19828,-180.55360,-44.20233,91.99930
-0.04064,1.51559,-0.66390,-0.73343,-2.85230,-0.86476,0.83637,4.11694,-16.74806,-25.73562,47.10036,28.14578,-0.96577,-0.01605,-0.05324,-0.25336,-177.55750,4.50465,185.30980
-0.06205,1.51094,-0.65847,-0.89965,-2.29116,-0.57280,-0.15704,2.97687,-14.56948,-2.16185,46.87889,20.15615,-0.95809,0.02655,-0.03477,-0.28311,-103.17950,20.70044,181.54800
-0.07124,1.51342,-0.65487,-0.83635,-1.76258,-0.38464,-0.85920,1.94302,-11.86386,11.42221,41.75419,10.76159,-0.94965,0.03942,-0.03433,-0.30891,-79.68980,-22.88266,236.99680
-0.06576,1.52703,-0.65561,-0.56104,-1.17294,-0.31016,-0.54064,1.00085,-8.60598,22.80057,33.68433,0.13924,-0.94946,0.02397,-0.05574,-0.30798,-10.87634,-41.27671,208.61880
-0.04893,1.53775,-0.66109,-0.16125,-0.74467,-0.32457,0.31597,-0.29263,-5.37683,27.28349,19.95228,-1.75218,-0.95196,-0.00129,-0.10153,-0.28890,18.85130,-95.02016,194.41840
-0.03366,1.53788,-0.66662,0.11692,-0.58175,-0.33752,0.77201,-1.14187,-2.92668,27.34823,12.01186,0.19675,-0.95111,-0.02823,-0.14202,-0.27282,18.29729,-107.80460,217.97480
-0.00671,1.54024,-0.66971,0.50906,-0.42251,-0.30681,0.62088,-1.01039,0.67899,21.39637,7.42281,4.60684,-0.94266,-0.11701,-0.17294,-0.26035,-21.37775,-0.65035,240.30550
0.01760,1.53944,-0.66673,0.78022,-0.34513,-0.18209,-0.05871,-1.63471,2.98134,12.86356,3.51339,10.25180,-0.92131,-0.18389,-0.21582,-0.26608,-39.72060,-45.56478,154.43130
0.03674,1.53750,-0.66035,0.91110,-0.30092,-0.03171,-1.01647,-1.89037,4.23270,5.61982,3.51509,11.43282,-0.89582,-0.23760,-0.24488,-0.28477,-72.47192,-42.02258,91.62934
0.05262,1.53570,-0.65321,0.95752,-0.26383,0.09323,-1.81014,-2.02579,4.82276,1.99964,4.02399,9.53427,-0.86924,-0.28151,-0.26755,-0.30593,-72.71455,-21.48044,58.66358
0.06604,1.53506,-0.64503,0.95196,-0.21819,0.20530,-2.28147,-2.51874,5.13715,-3.43139,4.11531,6.40090,-0.83916,-0.31655,-0.29969,-0.32526,-38.71946,-40.29141,24.53916
0.07460,1.53540,-0.63801,0.87035,-0.16590,0.27373,-2.59161,-2.51700,5.11772,-8.34942,3.60984,3.22727,-0.81326,-0.34664,-0.31903,-0.34157,-10.11563,-18.38620,1.26429
0.08147,1.53576,-0.63345,0.77703,-0.12375,0.28496,-2.87998,-1.87117,4.91836,-9.09470,3.44204,-0.16182,-0.79334,-0.37829,-0.31783,-0.35566,-31.71533,25.36362,-21.28568
0.08517,1.53774,-0.63171,0.65221,-0.06635,0.24698,-3.04028,-0.98484,4.44960,-6.73666,4.83625,-4.81117,-0.78033,-0.40555,-0.30301,-0.36717,-36.22696,53.62207,-40.18094
0.08892,1.54077,-0.63296,0.55830,-0.00166,0.16689,-2.41736,-0.91448,4.02890,-4.45304,4.18130,-5.92296,-0.77067,-0.41929,-0.31133,-0.36516,35.29190,10.56137,-29.81778
0.09465,1.54368,-0.63437,0.51456,0.04886,0.09880,-1.93623,-0.84924,3.91973,-3.04291,4.02739,-5.60175,-0.75810,-0.43790,-0.32168,-0.36063,42.11428,13.42139,-13.91325
0.10021,1.54755,-0.63650,0.47740,0.10123,0.03472,-1.39907,-0.95328,3.98372,-2.67583,3.19180,-3.70789,-0.74357,-0.45644,-0.33917,-0.35175,41.92671,6.21230,4.33128
0.10486,1.55171,-0.63829,0.43824,0.14588,-0.00663,-1.07591,-0.95713,4.16575,-3.24283,2.74970,-2.32559,-0.72596,-0.47903,-0.35498,-0.34277,24.44370,4.22409,12.43142
0.10872,1.55566,-0.63976,0.39374,0.17867,-0.03608,-1.04081,-0.77918,4.34048,-3.98683,1.35509,-1.36341,-0.70639,-0.50565,-0.36411,-0.33580,12.34114,10.35436,15.62609
0.11181,1.55940,-0.64130,0.34746,0.19974,-0.05968,-1.34800,-0.44118,4.45134,-3.46071,1.31458,-1.68545,-0.68459,-0.53655,-0.36314,-0.33402,-30.51982,18.87026,5.40247
0.11397,1.56309,-0.64315,0.29960,0.21518,-0.08133,-1.62498,-0.19549,4.55032,-3.35501,0.86771,-1.70693,-0.66109,-0.56719,-0.36167,-0.33236,-23.57045,11.98918,4.85430
0.11594,1.56622,-0.64501,0.25805,0.21930,-0.10092,-1.83434,-0.04310,4.61497,-2.95983,-0.13114,-1.34580,-0.63651,-0.59645,-0.36027,-0.33060,-23.69808,9.63666,4.59945
0.11749,1.56824,-0.64633,0.22051,0.20350,-0.10598,-1.95605,0.01939,4.58535,-3.76084,-2.29943,0.21335,-0.61241,-0.62235,-0.35963,-0.32910,-8.80027,1.86021,1.78042
0.11698,1.56779,-0.64673,0.15920,0.15125,-0.09316,-2.22286,0.06665,4.30423,-4.20251,-4.19780,1.17540,-0.59051,-0.64428,-0.35318,-0.33387,-16.76148,-2.87822,-14.93287
0.11668,1.56638,-0.64686,0.11568,0.09606,-0.07829,-2.40567,0.07852,4.01884,-3.24860,-4.87865,1.08459,-0.56953,-0.66382,-0.34652,-0.33897,-16.54312,-7.20223,-23.32565
0.11617,1.56291,-0.64692,0.07872,0.02083,-0.06654,-2.62609,0.15546,3.66471,-2.60236,-5.75274,0.54869,-0.55064,-0.68185,-0.33528,-0.34563,-14.56643,-4.68675,-22.70956
0.11450,1.55819,-0.64694,0.03184,-0.05684,-0.05587,-2.98551,0.16863,3.21055,-3.61463,-3.40054,0.90372,-0.53238,-0.69757,-0.31900,-0.35805,-22.71308,-4.08351,-29.55383
0.11114,1.55563,-0.64655,-0.03247,-0.08300,-0.04232,-2.88619,-0.16158,3.07131,-4.58010,0.21800,-0.31717,-0.51017,-0.70949,-0.31818,-0.36758,-5.17594,-24.74725,-14.49350
0.10715,1.55462,-0.64677,-0.09086,-0.07942,-0.04105,-2.32750,-0.41820,3.26863,-4.54687,0.96047,-0.57926,-0.48692,-0.72142,-0.33067,-0.36486,43.79705,-14.92659,12.81546
0.10107,1.55433,-0.64854,-0.16975,-0.06499,-0.06528,-2.00383,-0.56637,3.66566,-4.40659,0.07935,-1.74918,-0.45703,-0.73778,-0.34251,-0.35986,24.29327,-1.63415,24.73919
0.09559,1.55331,-0.65153,-0.22336,-0.06556,-0.10547,-2.28317,-0.45232,3.85329,-3.79994,-0.72803,-3.07216,-0.42543,-0.75871,-0.33733,-0.35997,-13.83916,4.73054,15.41268
0.09020,1.55178,-0.65548,-0.26203,-0.07488,-0.15024,-2.72188,-0.27784,3.90621,-3.11736,-1.01003,-4.14553,-0.39340,-0.78041,-0.32420,-0.36207,-37.08279,4.61503,5.41731
0.08416,1.54958,-0.66136,-0.30163,-0.09334,-0.21371,-2.89876,0.06269,3.99013,-2.12313,-0.93191,-4.26704,-0.36366,-0.80238,-0.31133,-0.35639,-23.86474,13.83824,0.94677
0.07840,1.54696,-0.66626,-0.32849,-0.11497,-0.24690,-2.54825,0.37631,4.06248,-1.98019,-1.77776,-1.49461,-0.33955,-0.81983,-0.30898,-0.34221,11.52689,29.71500,1.43021
0.07238,1.54362,-0.66987,-0.35246,-0.14332,-0.25049,-2.20549,0.53171,4.02914,-1.98949,-3.00452,0.88115,-0.31724,-0.83389,-0.30889,-0.32950,27.54660,25.12600,-2.77804
0.06609,1.53848,-0.67189,-0.37733,-0.19447,-0.22734,-2.13921,0.53055,3.80322,-1.40174,-3.76365,2.55718,-0.29626,-0.84564,-0.30365,-0.32393,7.69156,2.18746,-12.63759
