posX, posY, posZ, velX, velY, velZ, angVelX, angVelY, angVelZ, accX, accY, accZ, rotX, rotY, rotZ, rotW, angAccX, angAccY, angAccZ
0.40245,1.29512,-0.32119,-0.71233,0.61412,-0.92638,0.94892,1.46384,0.82038,-0.41684,-0.92540,-0.31981,-0.28216,-0.74964,-0.25002,-0.54399,-16.96583,5.12928,-5.30395
0.39229,1.30281,-0.33402,-0.71783,0.60114,-0.92529,0.81373,1.50853,0.72678,-0.37961,-0.87666,0.32451,-0.28403,-0.75609,-0.25038,-0.53382,-9.73799,3.78306,-4.38511
0.38206,1.31050,-0.34648,-0.72339,0.59122,-0.91798,0.66641,1.51610,0.65705,-0.51703,-0.48840,0.74446,-0.28499,-0.76234,-0.24994,-0.52454,-11.63668,1.26761,-5.20172
0.37128,1.31834,-0.35830,-0.73651,0.58541,-0.90118,0.57346,1.49174,0.66252,-0.70950,-0.23372,0.98091,-0.28479,-0.76830,-0.25106,-0.51534,-5.85654,-2.02163,0.16895
0.36063,1.32629,-0.37007,-0.74446,0.58267,-0.88749,0.60773,1.50280,0.69040,-0.61757,-0.17368,0.99098,-0.28587,-0.77403,-0.25454,-0.50434,-0.13102,-0.33672,2.20481
0.34974,1.33425,-0.38141,-0.75458,0.58102,-0.86979,0.74954,1.56282,0.74874,-0.86166,-0.09805,1.40556,-0.28820,-0.77980,-0.26065,-0.49083,10.12155,4.52917,3.59752
0.33867,1.34227,-0.39255,-0.76431,0.58022,-0.85263,0.76762,1.56727,0.75349,-0.89356,-0.02715,1.78965,-0.28974,-0.78518,-0.26459,-0.47909,6.21695,2.73730,1.31185
0.32728,1.35030,-0.40278,-0.77802,0.58061,-0.82468,0.71441,1.50483,0.72927,-0.88911,0.04466,2.08032,-0.29039,-0.78981,-0.26714,-0.46959,-2.55110,-2.94690,-0.79119
0.31590,1.35843,-0.41286,-0.78785,0.58199,-0.80043,0.63077,1.42193,0.69920,-0.84222,0.18642,2.07361,-0.29035,-0.79411,-0.26879,-0.46135,-7.13871,-6.71406,-2.22749
0.30426,1.36668,-0.42223,-0.79942,0.58477,-0.77070,0.58918,1.33833,0.70276,-0.73088,0.29495,2.06254,-0.28984,-0.79807,-0.27143,-0.45320,-3.94991,-6.47974,-0.43559
0.29256,1.37505,-0.43124,-0.80941,0.58899,-0.74199,0.59367,1.27525,0.73292,-0.69325,0.33454,1.92495,-0.28918,-0.80191,-0.27527,-0.44445,-0.02460,-4.96180,1.58506
0.28074,1.38352,-0.43995,-0.81900,0.59374,-0.71503,0.65982,1.24159,0.78974,-0.65995,0.37512,1.85185,-0.28867,-0.80561,-0.28086,-0.43448,3.91887,-2.69514,2.96183
0.26879,1.39207,-0.44827,-0.82812,0.59884,-0.68803,0.78144,1.21488,0.85526,-0.64562,0.37907,1.86837,-0.28852,-0.80877,-0.28839,-0.42365,7.84082,-1.89837,4.30065
0.25680,1.40064,-0.45631,-0.83606,0.60307,-0.66303,0.90000,1.19644,0.89545,-0.51480,0.16549,1.66899,-0.28889,-0.81150,-0.29635,-0.41254,9.56622,-1.20984,2.61282
0.24493,1.40916,-0.46428,-0.83983,0.60536,-0.64233,0.96156,1.20563,0.88020,-0.19013,0.16769,1.40180,-0.29010,-0.81424,-0.30278,-0.40146,5.39090,0.28416,-0.65084
0.23309,1.41779,-0.47207,-0.84216,0.60895,-0.62386,0.98840,1.23170,0.84788,-0.23118,0.36181,1.32876,-0.29165,-0.81711,-0.30822,-0.39022,1.50513,1.79431,-2.42908
0.22108,1.42658,-0.47958,-0.84677,0.61414,-0.60480,0.96133,1.22846,0.83050,-0.36128,0.32367,1.58919,-0.29221,-0.82007,-0.31284,-0.37978,0.43009,1.15593,-1.09736
0.20901,1.43548,-0.48669,-0.85170,0.62018,-0.58320,0.88419,1.19054,0.80987,-0.37387,0.58778,1.66322,-0.29193,-0.82297,-0.31621,-0.37081,-6.61721,-2.94018,-2.02140
0.19657,1.44488,-0.49294,-0.86160,0.63332,-0.55167,0.86822,1.14770,0.84706,-0.79880,1.11918,2.12307,-0.29075,-0.82567,-0.32129,-0.36125,-1.91405,-2.89094,1.19539
0.18387,1.45454,-0.49874,-0.87451,0.64863,-0.51998,0.89811,1.08754,0.93708,-0.89759,1.12252,2.33713,-0.28829,-0.82806,-0.32829,-0.35134,2.70247,-3.61420,6.12334
0.17117,1.46422,-0.50435,-0.88391,0.66048,-0.49242,0.91956,1.04094,1.00698,-0.69965,0.83985,2.30685,-0.28567,-0.83034,-0.33524,-0.34138,2.50315,-4.38998,5.77002
0.15850,1.47379,-0.50925,-0.89176,0.66952,-0.45854,0.95324,0.97801,1.05197,-0.40189,0.34932,1.86149,-0.28310,-0.83197,-0.34271,-0.33202,2.07665,-5.23065,2.95720
0.14603,1.48314,-0.51443,-0.89379,0.67166,-0.43751,0.98032,0.96450,1.05256,-0.10754,0.02155,1.66194,-0.28165,-0.83355,-0.34950,-0.32204,3.05958,-1.65427,0.84713
0.13361,1.49245,-0.51921,-0.89389,0.67191,-0.41532,0.97491,0.95052,1.02676,-0.05106,0.03564,1.58006,-0.28052,-0.83505,-0.35536,-0.31261,-0.37167,-0.93697,-1.73402
0.12116,1.50172,-0.52358,-0.89479,0.67163,-0.39123,0.94166,0.91985,0.99333,-0.06961,-0.06816,1.48223,-0.27923,-0.83645,-0.36054,-0.30397,-1.09320,-1.17440,-1.93680
0.10875,1.51097,-0.52816,-0.89497,0.67096,-0.37648,0.90935,0.90626,0.97519,-0.02207,-0.03102,0.95283,-0.27772,-0.83798,-0.36546,-0.29512,-3.63260,-2.90133,-2.06979
0.09640,1.52008,-0.53278,-0.89420,0.66881,-0.36474,0.90249,0.94643,0.95219,0.10123,-0.22578,0.68935,-0.27710,-0.83963,-0.37027,-0.28486,-0.80646,2.80648,-0.86425
0.08427,1.52901,-0.53742,-0.89157,0.66617,-0.35364,0.93931,1.04439,0.93480,0.06310,0.13321,0.75761,-0.27750,-0.84128,-0.37539,-0.27262,-0.33478,5.69330,-1.80501
0.07190,1.53818,-0.54186,-0.89246,0.66670,-0.34315,1.01128,1.10256,0.95633,-0.17898,0.17889,1.31120,-0.27725,-0.84239,-0.38209,-0.25986,6.18966,7.97901,0.85225
0.05919,1.54753,-0.54542,-0.89790,0.66928,-0.32167,1.07006,1.11409,1.00172,-0.34472,0.17615,1.56657,-0.27588,-0.84320,-0.38941,-0.24751,5.12373,0.83632,2.75203
0.04639,1.55690,-0.54843,-0.90397,0.67208,-0.29457,1.09905,1.10673,1.05593,-0.42646,0.06454,1.99107,-0.27364,-0.84409,-0.39646,-0.23550,2.27284,-0.31718,3.31493
0.03358,1.56610,-0.55111,-0.90841,0.67078,-0.26840,1.07225,1.04801,1.07458,-0.15304,-0.33972,1.88959,-0.27094,-0.84483,-0.40254,-0.22544,-0.00984,-4.24387,1.95015
0.02110,1.57507,-0.55353,-0.90638,0.66597,-0.24375,1.04855,1.02434,1.03728,0.20870,-0.40759,1.68010,-0.26967,-0.84528,-0.40787,-0.21546,-2.56954,-2.73717,-1.88244
0.00884,1.58377,-0.55561,-0.90044,0.65742,-0.21785,1.06667,1.05356,0.95774,0.45124,-0.59594,1.49644,-0.27038,-0.84512,-0.41331,-0.20455,0.54446,1.12225,-4.52421
-0.00319,1.59239,-0.55759,-0.89248,0.64924,-0.19814,1.06805,1.09722,0.86529,0.57621,-0.54498,1.36992,-0.27200,-0.84486,-0.41803,-0.19359,0.36089,3.84815,-6.70401
-0.01529,1.60109,-0.55947,-0.88691,0.64383,-0.18188,1.09371,1.15904,0.81538,0.36366,-0.23876,1.32563,-0.27362,-0.84448,-0.42314,-0.18149,-0.59425,3.84412,-5.25655
-0.02740,1.60977,-0.56082,-0.88288,0.63955,-0.16071,1.19720,1.26273,0.79951,0.31215,-0.25633,1.64178,-0.27584,-0.84335,-0.42989,-0.16694,6.03983,8.06821,-1.41835
-0.03939,1.61844,-0.56169,-0.87771,0.63577,-0.13663,1.27109,1.31755,0.78425,0.41534,-0.32496,1.93853,-0.27777,-0.84189,-0.43665,-0.15296,6.42363,6.12970,-0.91086
-0.05120,1.62693,-0.56171,-0.87248,0.63147,-0.11107,1.26466,1.29980,0.77713,0.42109,-0.24731,1.82016,-0.27846,-0.84080,-0.44234,-0.14092,1.39740,-0.06069,-0.60154
-0.06284,1.63550,-0.56133,-0.86608,0.62968,-0.08536,1.26206,1.31514,0.79160,0.24577,0.05877,1.72903,-0.27893,-0.83982,-0.44779,-0.12798,-1.91489,-1.45318,0.03373
-0.07459,1.64405,-0.56056,-0.86254,0.62737,-0.05709,1.29932,1.34652,0.83716,0.25980,-0.29151,2.15866,-0.27893,-0.83848,-0.45413,-0.11365,3.29540,3.47506,3.01250
-0.08626,1.65247,-0.55942,-0.85751,0.62199,-0.02715,1.25320,1.28590,0.86826,0.50748,-0.54341,2.31686,-0.27759,-0.83761,-0.45927,-0.10205,-1.17255,-2.59781,2.45127
-0.09777,1.66060,-0.55783,-0.85086,0.61280,0.00322,1.15653,1.16194,0.89147,0.56895,-0.86137,2.14491,-0.27499,-0.83721,-0.46350,-0.09290,-4.96434,-8.11844,1.40941
-0.10898,1.66831,-0.55628,-0.84099,0.59964,0.02941,1.04505,1.05517,0.89797,0.78320,-0.95963,1.66215,-0.27229,-0.83715,-0.46678,-0.08459,-8.16574,-10.40517,0.52677
-0.11982,1.67580,-0.55495,-0.82784,0.58684,0.05032,1.03082,1.06098,0.88535,1.10802,-1.06483,1.77339,-0.27141,-0.83615,-0.47091,-0.07373,-4.39451,-2.77139,-0.09832
-0.13016,1.68277,-0.55299,-0.80979,0.56886,0.07736,1.07448,1.09076,0.85381,1.39392,-1.41201,2.15763,-0.27159,-0.83413,-0.47606,-0.06199,2.26286,3.09207,-1.63552
-0.13983,1.68923,-0.55018,-0.78404,0.54540,0.11127,1.11137,1.08249,0.76618,1.69796,-1.48513,2.21021,-0.27292,-0.83136,-0.48132,-0.05184,2.27414,0.95354,-5.65542
-0.14939,1.69561,-0.54746,-0.76239,0.52577,0.13756,1.15809,1.08393,0.70949,1.31258,-1.22692,1.58949,-0.27403,-0.82831,-0.48692,-0.04134,1.89938,-1.57126,-5.10750
-0.15886,1.70190,-0.54476,-0.74389,0.50897,0.15708,1.23034,1.17192,0.69852,1.23162,-1.18834,1.34144,-0.27556,-0.82496,-0.49268,-0.02787,5.21210,6.46867,-1.25322
-0.16819,1.70791,-0.54166,-0.72668,0.49059,0.17585,1.24445,1.21580,0.69499,1.02760,-1.23387,1.24794,-0.27653,-0.82202,-0.49758,-0.01518,2.01632,4.27066,0.05627
-0.17765,1.71392,-0.53863,-0.71591,0.47658,0.18968,1.22988,1.19459,0.69678,0.89674,-1.24708,1.26544,-0.27652,-0.81932,-0.50223,-0.00401,-1.01073,-0.83577,0.40325
-0.18702,1.71969,-0.53535,-0.70637,0.46213,0.20391,1.21275,1.16211,0.70075,0.71344,-1.16689,1.27205,-0.27614,-0.81662,-0.50679,0.00668,-1.67159,-3.39719,-0.32165
-0.19617,1.72483,-0.53149,-0.69495,0.43996,0.22522,1.18676,1.09316,0.72752,0.73470,-1.37386,1.14215,-0.27453,-0.81414,-0.51141,0.01663,-0.13231,-3.05350,1.69955
-0.20529,1.73008,-0.52788,-0.68552,0.42435,0.23732,1.12737,1.02070,0.74443,0.82831,-1.38890,1.11922,-0.27266,-0.81218,-0.51513,0.02570,-4.61064,-6.36165,1.41597
-0.21406,1.73461,-0.52380,-0.67213,0.40009,0.25456,1.05147,0.89611,0.75952,0.98636,-1.70513,1.07595,-0.26974,-0.81064,-0.51867,0.03295,-3.20406,-7.32045,1.00580
-0.22258,1.73900,-0.51942,-0.65781,0.37889,0.27043,1.01898,0.84530,0.75419,0.74792,-1.28545,1.18318,-0.26781,-0.80856,-0.52233,0.04106,-5.62520,-7.42272,-1.14653
-0.23116,1.74330,-0.51472,-0.64812,0.36156,0.28744,1.10473,0.88578,0.78214,0.77372,-1.29267,1.45966,-0.26623,-0.80478,-0.52791,0.05252,5.65573,3.00117,0.82264
-0.23944,1.74732,-0.50962,-0.63564,0.34399,0.30668,1.21761,0.93856,0.83057,1.01855,-1.21555,1.33064,-0.26418,-0.80025,-0.53436,0.06536,8.51303,3.78708,3.65067
-0.24735,1.75112,-0.50424,-0.61958,0.32686,0.32598,1.28396,0.95004,0.89300,1.17900,-1.12172,1.16070,-0.26115,-0.79607,-0.54040,0.07775,5.67952,2.92592,3.57188
-0.25507,1.75487,-0.49902,-0.60348,0.31241,0.33787,1.23380,0.87645,0.94876,1.37006,-1.31730,0.67674,-0.25670,-0.79361,-0.54465,0.08746,-1.18486,-5.63872,4.30711
-0.26241,1.75831,-0.49399,-0.58540,0.29671,0.34361,1.14604,0.79125,0.94645,1.64893,-1.60234,0.35318,-0.25291,-0.79163,-0.54797,0.09537,-5.79553,-6.80363,1.12666
-0.26904,1.76102,-0.48912,-0.55949,0.27298,0.34495,0.98940,0.65813,0.88920,2.25259,-1.95417,-0.10868,-0.24952,-0.79088,-0.54976,0.10007,-9.97002,-8.67608,-2.14470
-0.27458,1.76311,-0.48440,-0.52104,0.24396,0.34388,0.86820,0.62871,0.76975,2.15741,-1.56630,0.06370,-0.24903,-0.78948,-0.55105,0.10509,-11.42409,-5.68802,-7.68419
-0.28001,1.76504,-0.47928,-0.48951,0.21881,0.34968,0.95347,0.75478,0.69334,2.16917,-1.57319,0.49560,-0.25008,-0.78474,-0.55529,0.11530,3.92368,7.98964,-5.43214
-0.28514,1.76693,-0.47378,-0.45980,0.19877,0.36121,1.12868,0.95055,0.65707,2.09102,-1.16632,1.08482,-0.25190,-0.77787,-0.56111,0.12895,9.99683,14.43244,-3.63732
-0.28990,1.76882,-0.46789,-0.43098,0.18345,0.37630,1.25150,1.00840,0.64519,2.41376,-1.18315,1.15425,-0.25188,-0.77130,-0.56730,0.14078,11.22959,9.27741,-0.65716
-0.29413,1.77058,-0.46197,-0.40011,0.16983,0.38808,1.28066,0.93070,0.62842,2.28513,-1.01964,0.66440,-0.25023,-0.76610,-0.57293,0.14912,3.41932,-4.42866,-2.05000
-0.29822,1.77225,-0.45633,-0.37448,0.15821,0.39174,1.21586,0.78601,0.62200,2.43481,-1.22257,0.02128,-0.24729,-0.76268,-0.57720,0.15495,-0.22459,-7.69428,-0.86771
-0.30145,1.77372,-0.45127,-0.34088,0.14646,0.38493,1.02270,0.55497,0.55842,2.34654,-0.65319,-0.94701,-0.24416,-0.76195,-0.57929,0.15572,-13.36557,-19.44559,-4.41124
-0.30382,1.77531,-0.44687,-0.30032,0.13921,0.36839,0.93458,0.66091,0.51460,2.27942,-0.06065,-1.29408,-0.24540,-0.75898,-0.58052,0.16347,-6.98262,2.87962,-3.48856
-0.30621,1.77722,-0.44250,-0.27005,0.13902,0.35562,0.90705,0.84050,0.50819,2.54233,0.12611,-0.84233,-0.24758,-0.75491,-0.58172,0.17442,-2.95673,14.94711,0.13661
-0.30803,1.77922,-0.43785,-0.23778,0.14025,0.35060,0.92975,0.97436,0.51485,2.33265,0.10118,0.17268,-0.24930,-0.75001,-0.58377,0.18587,-0.00181,12.76258,0.64578
-0.31035,1.78139,-0.43276,-0.21326,0.14165,0.35864,0.96789,0.90312,0.54243,1.86605,0.03756,1.14360,-0.24739,-0.74569,-0.58751,0.19386,3.08178,-0.23860,1.15173
-0.31358,1.78377,-0.42735,-0.19886,0.14315,0.37520,0.95903,0.57804,0.58673,1.27470,0.03186,1.31646,-0.24040,-0.74362,-0.59237,0.19579,1.74791,-17.87245,1.50186
-0.31684,1.78623,-0.42189,-0.19135,0.14654,0.38675,0.89356,0.21293,0.65925,0.79581,0.25063,0.68653,-0.23055,-0.74362,-0.59651,0.19508,-2.66599,-31.56609,3.40373
-0.31873,1.78870,-0.41634,-0.17404,0.15237,0.39119,0.78455,-0.16473,0.75938,1.02504,0.23000,-0.23047,-0.21822,-0.74544,-0.59970,0.19251,-5.35860,-23.44171,4.56120
-0.32012,1.79090,-0.41111,-0.15669,0.15367,0.38761,0.72365,-0.28114,0.78154,1.44264,0.06815,-0.37019,-0.21026,-0.74541,-0.60232,0.19331,-4.87691,-13.88768,3.02243
-0.32068,1.79298,-0.40568,-0.12971,0.15275,0.38829,0.83456,-0.12206,0.83606,1.47238,0.16138,0.26133,-0.20497,-0.74143,-0.60643,0.20128,4.80580,7.19091,2.27676
-0.32108,1.79509,-0.39999,-0.10591,0.15233,0.39320,0.94178,0.00946,0.88317,2.01548,-0.26941,0.48058,-0.19963,-0.73681,-0.61090,0.20990,9.58057,13.20369,5.93448
-0.32095,1.79705,-0.39397,-0.07877,0.14967,0.40252,0.98731,0.03408,0.87758,2.26113,-0.38394,0.94179,-0.19405,-0.73297,-0.61524,0.21582,3.56683,4.09504,0.93660
-0.32033,1.79892,-0.38756,-0.04965,0.14583,0.41565,0.96725,-0.11015,0.79781,2.15545,-0.27038,1.08419,-0.18751,-0.73057,-0.61989,0.21643,-0.16201,-8.45566,-5.46553
-0.31956,1.80066,-0.38077,-0.02556,0.14093,0.43236,0.99967,-0.20427,0.74884,1.91814,-0.51021,1.72088,-0.18071,-0.72726,-0.62531,0.21777,0.76259,-8.09378,-5.81773
-0.31838,1.80202,-0.37309,-0.00015,0.13123,0.46060,1.03021,-0.47827,0.63799,1.36677,-0.49589,1.91664,-0.17179,-0.72456,-0.63246,0.21329,2.76195,-16.39342,-8.19588
-0.31736,1.80336,-0.36491,0.01690,0.12301,0.49042,1.10158,-0.61088,0.57659,0.67946,-0.56410,2.31609,-0.16335,-0.72063,-0.63985,0.21119,3.31148,-12.85821,-5.46994
-0.31666,1.80456,-0.35635,0.02448,0.11455,0.51920,1.27022,-0.55494,0.60418,0.09089,-0.42683,2.29591,-0.15544,-0.71379,-0.64832,0.21453,11.09836,-0.33444,-0.76329
-0.31616,1.80566,-0.34693,0.02686,0.10635,0.55536,1.53084,-0.31177,0.76468,-0.04982,-0.48571,2.20840,-0.14742,-0.70364,-0.65748,0.22557,15.86204,15.66788,11.28920
-0.31594,1.80678,-0.33771,0.02438,0.10031,0.57989,1.66957,-0.22268,0.88546,-0.04266,-0.72240,1.94625,-0.13798,-0.69501,-0.66567,0.23410,13.52051,11.70555,12.66112
-0.31585,1.80758,-0.32803,0.02029,0.09059,0.60605,1.77462,-0.24093,1.00130,-0.10790,-0.81909,1.86131,-0.12627,-0.68687,-0.67390,0.24110,7.44048,-0.83072,8.74013
-0.31541,1.80819,-0.31818,0.02328,0.08007,0.62895,1.78683,-0.48097,1.01789,1.21748,-0.82375,1.03115,-0.11218,-0.68100,-0.68208,0.24171,4.44458,-9.70146,3.52269
-0.31422,1.80896,-0.30894,0.03786,0.07430,0.63683,1.65056,-0.91644,0.84847,1.33294,-0.34196,0.16975,-0.09799,-0.67899,-0.68938,0.23264,-6.75933,-29.42017,-14.41238
-0.31268,1.81001,-0.30023,0.05463,0.07458,0.63411,1.52966,-1.23049,0.69868,1.28584,0.34708,-0.85564,-0.08455,-0.67706,-0.69613,0.22325,-7.01797,-28.98364,-17.38251
-0.31014,1.81152,-0.29255,0.08368,0.08242,0.61520,1.43779,-1.27302,0.61063,2.11219,0.80145,-2.11685,-0.07445,-0.67394,-0.70183,0.21840,-7.49294,-12.89459,-10.29562
-0.30562,1.81357,-0.28672,0.14013,0.09770,0.56899,1.40550,-0.82570,0.55111,2.98642,1.37924,-3.33118,-0.07357,-0.66695,-0.70686,0.22388,-2.60174,21.42300,-2.90651
-0.30141,1.81607,-0.28106,0.17823,0.11721,0.53051,1.40038,-0.23610,0.67569,2.51411,2.10194,-3.22007,-0.07423,-0.65828,-0.71036,0.23779,-2.76178,42.22070,7.77795
-0.29732,1.81942,-0.27581,0.20442,0.14553,0.49571,1.39228,0.27191,0.86874,2.05730,2.74457,-2.52344,-0.07447,-0.64914,-0.71264,0.25538,-1.69954,48.59227,20.74818
-0.29373,1.82496,-0.27114,0.21596,0.20448,0.45910,1.24022,0.33404,0.99187,0.25246,3.37247,-1.12873,-0.06964,-0.64502,-0.71308,0.26573,-7.73786,9.34665,9.98397
-0.29164,1.83044,-0.26537,0.20008,0.24903,0.44879,1.08608,-0.11492,0.96378,-1.70788,3.91585,-0.28540,-0.05701,-0.64515,-0.71507,0.26307,-10.89394,-28.64023,-4.33296
-0.29069,1.83667,-0.25914,0.16992,0.29423,0.44865,0.96384,-0.66712,0.99964,-3.04755,3.73844,0.54367,-0.03848,-0.64714,-0.71671,0.25701,-9.83680,-45.93424,-3.70484
-0.29194,1.84381,-0.25196,0.10963,0.34417,0.46426,0.97479,-1.49908,1.13338,-3.56409,2.28066,1.09015,-0.00846,-0.64952,-0.71962,0.24536,3.18583,-46.77147,5.14916
-0.29295,1.84996,-0.24477,0.06674,0.36697,0.47648,1.04727,-2.01374,1.22768,-3.75747,1.72656,0.96028,0.01908,-0.64899,-0.72297,0.23613,7.55189,-44.78601,4.84588
-0.29430,1.85602,-0.23758,0.03027,0.38223,0.48553,1.14329,-2.34788,1.34874,-4.08752,1.68752,0.76100,0.04710,-0.64675,-0.72607,0.22874,9.17079,-40.18394,6.81501
-0.29775,1.86323,-0.23018,-0.03170,0.41253,0.49546,1.29950,-2.70459,1.70356,-3.06266,1.61431,0.16133,0.08329,-0.64252,-0.72777,0.22492,8.03074,-20.14077,21.23001
-0.30053,1.87031,-0.22314,-0.07014,0.43468,0.49772,1.37937,-2.90964,1.91843,-2.48140,1.42956,0.07093,0.11586,-0.63809,-0.72840,0.22102,4.45467,-17.05697,15.51251
-0.30318,1.87732,-0.21624,-0.09761,0.45036,0.49718,1.46413,-3.03474,2.11251,-1.59796,0.62130,-0.21088,0.14834,-0.63214,-0.72855,0.21817,4.94167,-10.62093,15.12572
-0.30552,1.88359,-0.20954,-0.11352,0.44996,0.49364,1.56688,-3.11461,2.26726,-1.06850,-0.67832,-0.37779,0.18071,-0.62448,-0.72866,0.21546,5.37877,-7.85583,13.15708
-0.30785,1.88858,-0.20343,-0.12542,0.42901,0.48100,1.75316,-3.32500,2.33741,-0.35873,-1.85328,-1.21133,0.21588,-0.61454,-0.72966,0.20816,11.92349,-11.28695,6.74330
-0.30970,1.89271,-0.19806,-0.12701,0.39838,0.45880,1.90359,-3.40118,2.49860,-0.11461,-2.33701,-2.15598,0.25088,-0.60276,-0.72939,0.20428,11.06842,-9.09958,7.92029
-0.31018,1.89613,-0.19387,-0.10459,0.36308,0.42176,1.94360,-3.13785,2.94126,2.53680,-1.81728,-3.00836,0.28406,-0.58842,-0.72634,0.21332,-2.36479,9.76988,28.28893
-0.30920,1.90026,-0.19019,-0.06346,0.34771,0.38497,1.87325,-2.96497,3.14815,4.58924,-1.23911,-3.28052,0.31433,-0.57639,-0.72163,0.21960,-13.30506,15.87199,25.97406
-0.30600,1.90433,-0.18810,0.00406,0.33506,0.33092,1.78373,-2.96843,3.20225,5.87783,-0.62453,-4.27419,0.34499,-0.56594,-0.71540,0.22113,-8.27323,1.70594,5.69930
-0.30017,1.90916,-0.18860,0.10089,0.33839,0.24493,1.80544,-3.60742,2.76680,7.39384,0.68715,-6.09017,0.38080,-0.56002,-0.70796,0.20041,8.71512,-28.05832,-22.23900
-0.29354,1.91464,-0.19018,0.18845,0.35136,0.16150,1.83105,-4.31104,2.40080,7.91794,1.45808,-7.70156,0.41998,-0.55452,-0.69702,0.17403,24.96958,-53.24691,-41.33935
-0.28119,1.92152,-0.19504,0.35200,0.38516,0.04300,1.74863,-5.05572,2.19430,12.50010,3.04992,-7.48133,0.46311,-0.55023,-0.67926,0.14622,8.08002,-46.70066,-18.23178
-0.26423,1.93019,-0.20004,0.55759,0.44177,-0.05151,1.56713,-5.50801,1.98092,16.97724,5.23330,-6.46821,0.50113,-0.54726,-0.65938,0.12081,1.47749,-36.18808,-21.01410
-0.24273,1.94103,-0.20420,0.78685,0.52012,-0.10828,1.20116,-5.59857,1.78099,21.52828,7.72055,-3.82686,0.53165,-0.54787,-0.63783,0.10178,-14.93751,-18.29579,-21.38443
-0.20927,1.95716,-0.20699,1.16247,0.66898,-0.12813,0.65266,-5.38927,1.19014,25.86337,10.77993,0.91791,0.54796,-0.55839,-0.61737,0.08248,-23.75930,10.40461,-41.75354
-0.17153,1.97651,-0.20668,1.52703,0.83926,-0.09183,0.48105,-5.25680,0.13777,27.46568,13.18322,4.61271,0.55546,-0.57142,-0.60218,0.04821,-0.04320,13.83445,-66.84744
-0.13385,1.99641,-0.20486,1.79507,0.97337,-0.04113,0.36075,-5.11947,-0.68296,26.85866,13.66656,5.28327,0.56061,-0.58427,-0.58665,0.01354,27.25359,9.97373,-83.34075
-0.07923,2.02448,-0.19783,2.27864,1.20972,0.08377,-0.07096,-4.80864,-2.04739,27.22913,12.28878,7.79987,0.54694,-0.61355,-0.56896,-0.02635,1.32615,19.02716,-78.73282
-0.02503,2.05018,-0.18980,2.65705,1.35792,0.19969,-0.41453,-4.67548,-3.05266,27.34827,8.65752,9.29936,0.53530,-0.64058,-0.54662,-0.06573,-3.29162,16.74157,-76.86876
0.02853,2.07306,-0.18139,2.92689,1.42217,0.29139,-0.32328,-4.84554,-3.77713,27.13908,4.29306,10.83402,0.52763,-0.65902,-0.52362,-0.11456,10.71270,-3.85063,-73.67331
0.09606,2.09381,-0.16640,3.35575,1.43514,0.46737,0.03781,-5.32552,-4.69733,26.73312,-2.27390,12.31438,0.51589,-0.67396,-0.49683,-0.18110,35.61658,-40.72528,-50.84916
0.17171,2.10771,-0.14447,3.84197,1.33013,0.72833,0.33321,-5.75946,-5.47553,27.70140,-9.11388,16.28429,0.50115,-0.68579,-0.46608,-0.24761,23.59666,-34.69081,-36.53503
0.23862,2.12123,-0.12573,4.06348,1.24749,0.87038,0.35635,-5.79515,-5.82324,28.33223,-11.74420,18.62885,0.48514,-0.69643,-0.43537,-0.30013,18.53784,-22.59141,-35.64647
0.32644,2.12290,-0.08995,4.57027,0.99028,1.25644,0.32403,-5.66753,-6.88838,29.17459,-17.73411,24.43581,0.44705,-0.71541,-0.39899,-0.35936,21.55885,6.46339,-49.76055
0.41419,2.11921,-0.05016,4.97432,0.69534,1.63126,0.60269,-5.46170,-8.12020,29.07617,-26.10169,29.47315,0.39422,-0.73057,-0.36318,-0.42303,44.62543,0.03199,-72.30079
0.50634,2.10328,-0.00117,5.35696,0.26406,2.07240,1.05744,-5.09654,-9.52062,25.99825,-36.87626,33.72787,0.32299,-0.74282,-0.32638,-0.48722,60.68774,-6.86511,-83.13686
0.59726,2.07374,0.05573,5.66262,-0.32546,2.58013,1.71166,-3.91366,-11.04326,18.24531,-50.07252,37.64952,0.22425,-0.75726,-0.29828,-0.53599,96.39017,23.00786,-83.43025
0.68390,2.02393,0.12077,5.81326,-1.12829,3.11097,2.99959,-1.80263,-12.01691,4.11939,-65.39840,36.95923,0.10446,-0.76697,-0.29781,-0.55872,168.34530,58.55273,-51.22127
0.76103,1.95051,0.19063,5.75033,-2.12593,3.57993,5.24639,0.59410,-12.35521,-13.66242,-76.55016,28.62457,-0.03264,-0.75851,-0.32914,-0.56149,227.58600,24.59642,-12.78820
0.82283,1.85400,0.25863,5.43719,-3.24362,3.87670,7.67911,2.36706,-11.84965,-31.01658,-81.73152,14.59362,-0.16203,-0.72741,-0.37681,-0.55013,222.17420,-26.64435,18.56795
0.86750,1.74086,0.31836,4.91115,-4.37385,3.96582,10.03624,3.24722,-11.11260,-45.48279,-79.92621,-1.42909,-0.28377,-0.67199,-0.42774,-0.53380,178.60140,-83.05375,11.04509
0.89215,1.61533,0.36586,4.17685,-5.44569,3.83221,12.54195,3.83441,-10.07490,-59.28115,-72.84573,-18.13307,-0.40010,-0.59402,-0.48801,-0.49892,155.57080,-98.35188,-3.14970
0.89633,1.48354,0.39942,3.27005,-6.36715,3.49193,15.81006,4.49580,-8.27143,-69.55300,-57.03297,-33.25344,-0.50836,-0.48564,-0.57135,-0.42342,204.81970,-132.81050,-18.49771
0.88035,1.35402,0.41622,2.24235,-7.03207,2.95627,18.85670,4.21916,-5.53999,-75.66733,-36.12046,-40.28005,-0.57395,-0.35234,-0.66582,-0.32114,245.86810,-206.79240,-11.53379
0.84888,1.23767,0.42059,1.20098,-7.32579,2.34527,18.79951,1.49335,-3.95355,-74.06612,-9.17661,-38.23151,-0.57790,-0.23119,-0.72778,-0.28795,24.81653,-201.01410,-106.46870
0.80623,1.13880,0.42068,0.21864,-7.26579,1.80334,15.60416,-1.89282,-4.29828,-68.03670,11.38978,-33.45840,-0.55030,-0.14865,-0.74878,-0.33824,-212.97670,-89.87302,-195.29130
0.75787,1.05436,0.41861,-0.62890,-6.98204,1.35254,10.72895,-3.90723,-6.53241,-56.09062,26.57342,-31.53348,-0.52765,-0.10034,-0.71516,-0.44728,-314.14340,100.15970,-264.55230
0.70356,0.98599,0.41094,-1.38926,-6.48908,0.90625,6.49971,-3.87407,-8.12351,-40.30840,37.56196,-27.97296,-0.51842,-0.07990,-0.65930,-0.53868,-213.56750,181.03310,-149.94880
0.65812,0.92052,0.40584,-1.82202,-6.06154,0.60733,4.63184,-3.33057,-8.37421,-30.71066,38.08333,-23.98144,-0.51987,-0.04934,-0.62204,-0.58342,-126.46410,140.68680,-50.70084
0.61197,0.86235,0.39846,-2.15344,-5.62758,0.35032,3.46402,-2.79124,-8.03933,-24.46324,37.02403,-20.31755,-0.52088,-0.02381,-0.59344,-0.61314,-76.25807,97.58244,16.12889
0.56176,0.81935,0.38434,-2.47325,-5.04821,0.04239,2.14185,-1.89229,-8.48709,-15.33647,35.85604,-18.58194,-0.52492,-0.00324,-0.54098,-0.65711,-44.26417,96.15346,-20.98552
0.51752,0.77721,0.37053,-2.62491,-4.57941,-0.19552,1.66084,-1.09959,-8.43159,-5.37487,32.85489,-16.22753,-0.53466,0.02097,-0.49542,-0.68430,-10.48519,77.76138,-16.57685
0.47787,0.73192,0.35854,-2.66864,-4.28327,-0.34368,1.67650,-0.82557,-7.90407,-1.36469,28.68702,-14.15118,-0.54237,0.04980,-0.46600,-0.69728,11.63497,42.72798,44.91731
0.44103,0.70123,0.33947,-2.65496,-3.82103,-0.57132,1.84331,-0.57073,-6.67119,3.06550,24.50403,-11.65971,-0.55342,0.06693,-0.45372,-0.69526,12.31955,3.67950,67.52454
0.40586,0.66604,0.32306,-2.62152,-3.52883,-0.70987,1.88420,-0.52339,-5.80949,2.40119,24.26958,-11.51308,-0.55978,0.08676,-0.44118,-0.69605,3.39870,-8.23275,79.26795
0.37154,0.63499,0.30476,-2.58281,-3.24567,-0.84313,1.89703,-0.14374,-5.44332,2.90027,23.04341,-11.03377,-0.57076,0.10375,-0.41590,-0.70035,3.26517,11.11118,48.60386
0.33968,0.61627,0.28118,-2.51475,-2.82422,-1.03380,2.08653,0.41777,-4.90678,3.88947,24.55730,-10.70400,-0.58953,0.11350,-0.39068,-0.69781,20.04630,22.86089,36.40434
0.30835,0.59745,0.25899,-2.45257,-2.48842,-1.16416,2.31256,0.75399,-4.61036,5.55751,23.74803,-7.67041,-0.60677,0.12862,-0.36353,-0.69508,25.00293,17.43281,20.63587
0.27699,0.57501,0.23946,-2.40854,-2.29780,-1.21770,2.31552,0.85081,-4.30374,6.39255,23.87825,-5.50426,-0.61812,0.14270,-0.34112,-0.69369,20.95111,11.98633,26.65970
0.25006,0.57061,0.21756,-2.30490,-1.87487,-1.29575,1.93933,0.53792,-3.40167,6.30168,22.00837,-3.50599,-0.61914,0.14744,-0.34227,-0.69122,-22.42226,-13.31235,46.53621
0.22253,0.56483,0.19613,-2.22902,-1.54855,-1.35340,1.86591,0.05111,-2.69041,2.62756,20.30943,-4.54445,-0.62124,0.16044,-0.34734,-0.68387,-21.53653,-42.94185,53.78645
0.19434,0.55947,0.17423,-2.18004,-1.28361,-1.40398,2.34514,0.07064,-2.84019,3.45647,19.20932,-3.03702,-0.63596,0.18424,-0.32675,-0.67443,27.43291,-7.82525,-5.48368
0.16763,0.55825,0.15363,-2.11837,-1.01196,-1.42170,2.73170,0.01636,-2.89425,5.30141,19.68128,0.68858,-0.65000,0.20831,-0.30792,-0.66279,33.86777,-6.16150,-7.41613
0.14426,0.56313,0.13685,-2.01520,-0.69877,-1.37287,2.89885,0.16989,-3.01290,8.08106,18.98835,6.33825,-0.66234,0.22804,-0.28417,-0.65464,16.43306,6.71575,-9.95811
0.12341,0.56915,0.12489,-1.89267,-0.43410,-1.25205,2.38821,0.46347,-2.98274,9.28093,17.62801,11.02678,-0.66475,0.23537,-0.26296,-0.65845,-19.82644,24.56070,10.65418
0.10396,0.57549,0.11590,-1.77539,-0.23053,-1.11285,1.55552,0.56610,-2.90763,10.94729,15.32216,12.30387,-0.65715,0.23997,-0.24753,-0.67030,-53.38890,25.67293,1.98548
0.08808,0.58436,0.11022,-1.62869,-0.03597,-0.95483,0.55506,0.58981,-2.70429,10.83697,12.56666,9.88006,-0.64201,0.23944,-0.23884,-0.68807,-76.03411,13.75177,17.95900
0.07554,0.59369,0.10471,-1.45910,0.12395,-0.82812,-0.07617,0.56910,-2.46892,10.42111,8.49039,5.64298,-0.62962,0.23978,-0.23168,-0.70172,-45.61152,6.38736,17.72003
0.06214,0.59999,0.09648,-1.34330,0.19792,-0.77391,-0.15810,0.48804,-2.38463,9.27165,5.13866,3.11071,-0.62419,0.24692,-0.22113,-0.70747,-17.58233,0.31679,11.55564
0.05084,0.60565,0.08787,-1.22109,0.24345,-0.73876,-0.02772,0.09769,-2.30764,9.58912,2.10584,1.98232,-0.62029,0.26240,-0.21578,-0.70699,6.50071,-20.65429,2.52916
0.04297,0.61025,0.07971,-1.06856,0.26176,-0.70299,0.02657,-0.55845,-1.99724,10.04178,0.14738,2.86633,-0.61448,0.28031,-0.22294,-0.70295,-3.35874,-45.23077,18.65291
0.03709,0.61357,0.07287,-0.91548,0.25482,-0.65259,0.10358,-0.71692,-1.82408,11.07410,-1.03274,4.75862,-0.61154,0.29240,-0.22176,-0.70096,2.54093,-22.16691,15.33497
0.03170,0.61617,0.06690,-0.79507,0.23852,-0.60144,0.16481,-0.57615,-1.59707,12.20441,-2.37698,5.81026,-0.61154,0.29705,-0.21747,-0.70035,4.43463,2.50799,12.16010
0.03426,0.61641,0.06528,-0.57303,0.18741,-0.49099,0.21109,-0.22257,-1.10943,12.47474,-3.36557,6.67922,-0.61626,0.29041,-0.21533,-0.69966,4.61053,18.53409,27.36237
0.03639,0.61616,0.06390,-0.40307,0.13851,-0.39852,0.14650,0.05542,-0.71723,12.04974,-3.88238,6.72997,-0.61869,0.28308,-0.21404,-0.70091,-2.26564,21.01608,27.25702
0.03788,0.61584,0.06232,-0.28759,0.10153,-0.33351,0.03496,0.19803,-0.42086,11.55061,-3.82991,6.46183,-0.61927,0.27657,-0.21465,-0.70281,-6.37010,17.59119,29.35865
0.04611,0.61360,0.06421,-0.08945,0.04180,-0.22682,-0.20515,0.36144,0.10287,10.73851,-2.92340,5.50347,-0.61928,0.26216,-0.22197,-0.70605,-14.18971,8.93247,29.78564
0.05439,0.61169,0.06562,0.07283,-0.00155,-0.14742,-0.32267,0.55609,0.49289,9.57210,-2.26401,4.52071,-0.62080,0.24755,-0.22679,-0.70845,-8.29481,12.27306,25.47498
0.05989,0.61068,0.06557,0.14674,-0.01833,-0.11364,-0.33750,0.67179,0.63876,8.93248,-1.71603,4.02191,-0.62248,0.23676,-0.22842,-0.71013,-4.44964,12.92616,22.74125
0.07131,0.60898,0.06772,0.29828,-0.04187,-0.05251,-0.21803,1.00254,0.79859,7.87356,-0.69601,2.83190,-0.62886,0.22049,-0.22548,-0.71069,5.31486,18.17136,9.27770
0.08229,0.60782,0.06917,0.41479,-0.05263,-0.01357,-0.02312,1.28058,0.81657,6.88439,-0.60374,2.28116,-0.63649,0.20670,-0.21909,-0.71004,11.91723,19.40868,0.37216
0.09254,0.60688,0.07046,0.49147,-0.05665,0.01289,0.04554,1.39984,0.83616,6.34859,-0.28367,2.26616,-0.64178,0.19425,-0.21511,-0.71001,8.72495,13.38165,0.04898
0.10424,0.60622,0.07249,0.57351,-0.05458,0.04578,0.00900,1.44523,0.87902,5.92158,0.31078,2.65201,-0.64502,0.18159,-0.21313,-0.71102,0.17446,5.41904,2.34487
0.11748,0.60621,0.07544,0.66430,-0.04206,0.08725,-0.18439,1.42711,0.96584,5.71468,0.81537,2.68774,-0.64464,0.16795,-0.21433,-0.71435,-11.09082,-0.86861,5.92467
0.13113,0.60643,0.07870,0.74054,-0.02842,0.12331,-0.39948,1.35616,1.07939,5.39793,1.14471,2.51599,-0.64265,0.15418,-0.21788,-0.71816,-14.21063,-5.11323,9.60360
0.14518,0.60689,0.08200,0.80446,-0.01357,0.15162,-0.54878,1.32663,1.14160,5.35666,1.43479,2.29876,-0.64076,0.14040,-0.22039,-0.72190,-12.75333,-5.20738,7.93662
0.16096,0.60785,0.08573,0.88151,0.00569,0.18025,-0.64954,1.38769,1.19220,5.40247,1.45579,1.89098,-0.63943,0.12480,-0.22125,-0.72567,-9.14371,0.87817,5.27221
0.17779,0.60883,0.08956,0.95753,0.02088,0.20303,-0.66570,1.54339,1.19862,5.38219,0.97399,1.48059,-0.63982,0.10783,-0.21882,-0.72879,-2.49863,10.37193,0.03793
0.19485,0.60697,0.09244,1.02759,0.02973,0.21723,-0.64466,1.73319,1.19296,4.79004,1.10451,0.96056,-0.64109,0.08961,-0.21469,-0.73136,-1.03282,12.07335,0.62387
0.21258,0.60523,0.09520,1.09128,0.03798,0.22447,-0.60279,1.93359,1.14985,4.68293,0.78092,0.44238,-0.64294,0.07107,-0.20836,-0.73360,1.95749,15.45746,-4.98759
0.23169,0.60499,0.09809,1.16009,0.04838,0.22605,-0.57271,2.06646,1.16214,4.34725,0.90644,-0.14786,-0.64455,0.05214,-0.20338,-0.73517,1.17094,9.57330,-0.17746
0.25119,0.60658,0.10094,1.21689,0.06419,0.22097,-0.56149,2.09858,1.19783,4.03650,1.40923,-0.68317,-0.64537,0.03422,-0.20034,-0.73634,1.41470,3.24692,2.41572
0.27090,0.60862,0.10341,1.26299,0.08331,0.21067,-0.54568,2.07923,1.24485,3.91200,1.76534,-1.06911,-0.64595,0.01690,-0.19849,-0.73693,1.25653,0.94679,2.52374
0.29203,0.61171,0.10534,1.32135,0.11660,0.19288,-0.55395,1.94703,1.38346,3.61728,2.41474,-1.22458,-0.64544,0.00006,-0.20110,-0.73686,2.04156,-7.03751,8.23427
0.31338,0.61540,0.10735,1.36881,0.15486,0.17760,-0.57416,1.82287,1.53141,3.15157,3.15497,-1.01149,-0.64430,-0.01714,-0.20505,-0.73657,0.99370,-9.51277,11.46585
0.33472,0.61995,0.10947,1.40449,0.19730,0.16895,-0.64560,1.74755,1.65133,2.67861,3.97441,-0.42871,-0.64175,-0.03525,-0.20882,-0.73710,-1.66946,-7.54524,10.63772
0.35678,0.62694,0.11154,1.44535,0.26894,0.16305,-0.81732,1.74221,1.75865,2.29356,4.88078,-0.24757,-0.63656,-0.05550,-0.21188,-0.73947,-9.20170,-2.00448,8.16942
0.37836,0.63438,0.11354,1.47031,0.33029,0.15842,-0.96113,1.79707,1.82020,1.72455,5.49439,-0.48960,-0.63111,-0.07675,-0.21315,-0.74188,-11.82076,1.85398,7.50497
0.39998,0.64322,0.11515,1.48938,0.39839,0.14865,-1.10653,1.90481,1.82745,1.35951,5.89143,-1.10290,-0.62486,-0.09898,-0.21203,-0.74485,-12.31491,5.55203,3.45547
0.42193,0.65492,0.11554,1.50891,0.49834,0.12096,-1.25584,2.07040,1.87847,0.85717,5.42477,-2.09703,-0.61776,-0.12411,-0.20999,-0.74758,-9.21788,8.94860,2.29399
0.44326,0.66638,0.11520,1.51461,0.57457,0.08680,-1.28921,2.17246,1.97175,-0.08468,5.68327,-2.90337,-0.61197,-0.14894,-0.20976,-0.74787,-3.71010,7.09425,7.40821
0.46390,0.67899,0.11382,1.50693,0.65194,0.04330,-1.29893,2.31880,1.96482,-1.26535,5.51876,-3.19361,-0.60677,-0.17366,-0.20648,-0.74769,-1.39208,9.50766,1.53503
