posX, posY, posZ, velX, velY, velZ, angVelX, angVelY, angVelZ, accX, accY, accZ, rotX, rotY, rotZ, rotW, angAccX, angAccY, angAccZ
0.08278,1.31262,-0.54487,-0.64671,0.14431,-0.22031,0.04424,0.93675,0.61649,1.44155,-0.44963,1.23642,-0.17827,-0.92708,-0.09405,-0.31607,-3.39985,-6.28423,-1.51018
0.07490,1.31431,-0.54712,-0.62880,0.13921,-0.20442,-0.00211,0.89105,0.61113,1.14826,-0.33263,1.05484,-0.17461,-0.92953,-0.09349,-0.31104,-3.23597,-3.71684,-1.22027
0.06711,1.31589,-0.54940,-0.61421,0.13369,-0.19205,-0.04761,0.86838,0.61900,0.95105,-0.47600,0.67094,-0.17051,-0.93213,-0.09267,-0.30574,-4.14176,-2.94685,1.05846
0.05937,1.31738,-0.55173,-0.60163,0.12784,-0.18438,-0.04795,0.90211,0.59138,1.02240,-0.53546,0.54381,-0.16776,-0.93488,-0.09219,-0.29894,-1.08433,1.27730,-0.97209
0.05200,1.31870,-0.55380,-0.58574,0.12025,-0.17498,-0.02166,0.96411,0.55237,0.91216,-0.53359,0.59363,-0.16585,-0.93772,-0.09206,-0.29103,1.09137,3.99843,-2.43529
0.04475,1.31991,-0.55581,-0.57130,0.11236,-0.16634,0.00180,1.01737,0.50706,1.11522,-0.64915,0.72960,-0.16437,-0.94046,-0.09188,-0.28297,1.68776,3.79797,-2.77635
0.03771,1.32100,-0.55762,-0.55636,0.10454,-0.15681,0.00516,1.02369,0.46026,1.31290,-0.59553,1.04035,-0.16303,-0.94284,-0.09137,-0.27589,0.66753,2.68477,-4.21052
0.03108,1.32200,-0.55900,-0.53950,0.09747,-0.14173,0.01179,0.97210,0.44459,1.10945,-0.40755,1.23741,-0.16107,-0.94479,-0.09143,-0.27030,0.59427,-2.44800,-2.42235
0.02459,1.32301,-0.56015,-0.52406,0.09230,-0.12587,0.00595,0.89722,0.44598,1.09569,-0.39895,1.12003,-0.15850,-0.94652,-0.09148,-0.26574,-0.64893,-5.45113,0.51383
0.01847,1.32385,-0.56104,-0.50538,0.08525,-0.10998,-0.01713,0.82253,0.42291,1.19508,-0.46003,0.96626,-0.15640,-0.94802,-0.09093,-0.26177,-0.25511,-4.31091,-1.28849
0.01235,1.32481,-0.56203,-0.49087,0.08177,-0.10005,-0.13174,0.72236,0.45536,0.85473,0.00204,0.71282,-0.15208,-0.94966,-0.08831,-0.25927,-6.91978,-6.42657,0.57062
0.00612,1.32592,-0.56299,-0.48157,0.08154,-0.09182,-0.23114,0.64808,0.52248,0.61581,0.03082,0.36100,-0.14642,-0.95149,-0.08564,-0.25669,-8.28854,-7.05697,5.91518
0.00001,1.32703,-0.56398,-0.47211,0.08131,-0.08631,-0.26770,0.64690,0.54198,0.67612,-0.15043,0.26537,-0.14205,-0.95346,-0.08353,-0.25249,-3.34661,-1.48923,2.75488
-0.00577,1.32808,-0.56496,-0.45994,0.08005,-0.08180,-0.28743,0.66185,0.51686,0.89811,-0.07415,0.36165,-0.13891,-0.95533,-0.08124,-0.24788,-2.04242,1.32591,-0.84792
-0.01130,1.32918,-0.56576,-0.44640,0.07981,-0.07507,-0.25474,0.66644,0.47499,0.95261,0.00498,0.54222,-0.13674,-0.95691,-0.08011,-0.24331,0.60625,0.20768,-2.67255
-0.01662,1.33031,-0.56629,-0.43191,0.08024,-0.06564,-0.16297,0.68243,0.39963,1.06737,-0.03992,0.68854,-0.13631,-0.95823,-0.08046,-0.23822,5.27984,0.80944,-5.15283
-0.02164,1.33137,-0.56666,-0.41591,0.07934,-0.05534,-0.09129,0.67428,0.30458,1.17201,-0.12389,0.93876,-0.13693,-0.95922,-0.08074,-0.23373,6.55225,0.97408,-7.32917
-0.02659,1.33242,-0.56692,-0.40285,0.07849,-0.04593,-0.09081,0.61862,0.25832,1.07726,0.04955,0.88340,-0.13632,-0.96008,-0.07990,-0.23083,1.38389,-3.46277,-5.11863
-0.03128,1.33358,-0.56689,-0.38811,0.07978,-0.03406,-0.08467,0.54793,0.23291,0.81475,0.12970,0.63290,-0.13536,-0.96076,-0.07941,-0.22872,0.04603,-5.33705,-1.34096
-0.03602,1.33480,-0.56693,-0.37742,0.08190,-0.02585,-0.10600,0.50862,0.23495,0.75068,0.21552,0.64499,-0.13372,-0.96169,-0.07830,-0.22616,-0.02589,-2.01497,-1.54194
-0.04082,1.33607,-0.56698,-0.37046,0.08416,-0.01999,-0.17253,0.44349,0.28508,0.51985,0.27405,0.48227,-0.13020,-0.96267,-0.07621,-0.22474,-4.73599,-5.22165,3.84742
-0.04548,1.33751,-0.56683,-0.36257,0.08899,-0.01242,-0.19888,0.42043,0.34175,0.50764,0.28165,0.34868,-0.12634,-0.96382,-0.07483,-0.22245,-2.13129,-2.40290,4.53699
-0.05000,1.33895,-0.56672,-0.35413,0.09260,-0.00737,-0.19059,0.41921,0.36315,0.85632,0.28502,0.42050,-0.12340,-0.96493,-0.07404,-0.21956,0.10623,0.48118,1.90554
-0.05418,1.34044,-0.56660,-0.34247,0.09610,-0.00324,-0.18925,0.40156,0.35865,1.01433,0.22629,0.29683,-0.12097,-0.96584,-0.07302,-0.21725,-0.05358,-1.17926,0.82779
-0.05771,1.34207,-0.56629,-0.32227,0.10099,0.00232,-0.17043,0.38538,0.30385,1.09073,0.43695,0.22427,-0.12013,-0.96649,-0.07217,-0.21507,0.29686,-1.48512,-2.52516
-0.06144,1.34404,-0.56593,-0.30954,0.11042,0.00748,-0.07192,0.39860,0.25063,0.65720,0.77856,0.38844,-0.12020,-0.96709,-0.07350,-0.21188,5.17903,0.80151,-4.39390
-0.06524,1.34631,-0.56539,-0.30063,0.12298,0.01467,0.06005,0.42052,0.19754,0.56255,0.84773,0.39046,-0.12099,-0.96758,-0.07633,-0.20814,8.82782,1.27838,-3.66549
-0.06904,1.34874,-0.56497,-0.29407,0.13572,0.01839,0.12813,0.41865,0.18543,0.40154,1.03081,0.32906,-0.12076,-0.96811,-0.07852,-0.20497,6.64305,0.61775,-2.28495
-0.07295,1.35133,-0.56457,-0.29140,0.14806,0.02089,0.13959,0.37991,0.22494,0.18995,1.13692,0.24813,-0.11883,-0.96866,-0.08001,-0.20290,1.93151,-2.00502,1.90105
-0.07687,1.35461,-0.56412,-0.28917,0.16935,0.02353,0.20055,0.36378,0.25876,-0.00962,1.53109,-0.06688,-0.11703,-0.96918,-0.08286,-0.20032,2.20461,-2.40358,3.15295
-0.08094,1.35820,-0.56378,-0.29033,0.19204,0.02424,0.33340,0.43778,0.20546,-0.22888,1.65281,-0.11510,-0.11814,-0.96969,-0.08736,-0.19520,8.73686,4.16762,-2.18281
-0.08504,1.36215,-0.56351,-0.29165,0.21488,0.02345,0.49089,0.55301,0.10358,-0.18718,2.06629,-0.14632,-0.12150,-0.97013,-0.09293,-0.18830,11.41080,8.31207,-7.06149
-0.08931,1.36739,-0.56312,-0.29568,0.25450,0.02499,0.73108,0.70009,-0.04793,-0.38212,2.92663,0.40642,-0.12788,-0.97017,-0.10125,-0.17937,15.05083,11.31540,-11.33525
-0.09395,1.37326,-0.56247,-0.30499,0.29669,0.03125,0.89695,0.73745,-0.07937,-0.74237,3.31022,0.62919,-0.13153,-0.97001,-0.10977,-0.17243,11.97661,3.50332,-4.08705
-0.09879,1.37959,-0.56168,-0.31510,0.33555,0.03823,1.02323,0.73139,-0.06625,-0.78913,3.31313,0.66259,-0.13403,-0.96968,-0.11870,-0.16633,11.46800,0.79401,-0.60973
-0.10390,1.38712,-0.56085,-0.32762,0.38560,0.04403,1.11821,0.66561,-0.03053,-0.76713,2.97100,0.17020,-0.13558,-0.96904,-0.12801,-0.16187,6.86921,-4.18262,1.67796
-0.10900,1.39465,-0.56034,-0.33695,0.42489,0.04379,1.20955,0.67724,-0.07074,-0.71668,2.60512,-0.27546,-0.13919,-0.96826,-0.13715,-0.15585,5.75748,-1.42632,-1.06798
-0.11405,1.40236,-0.55990,-0.34325,0.45703,0.04244,1.33121,0.75837,-0.18217,-0.58960,2.77342,-0.13073,-0.14561,-0.96712,-0.14709,-0.14778,7.96594,5.14993,-7.31008
-0.11941,1.41101,-0.55921,-0.35315,0.49703,0.04548,1.54399,0.87284,-0.31926,-0.94244,2.98732,0.36973,-0.15437,-0.96518,-0.15999,-0.13780,14.10071,9.37010,-10.79723
-0.12562,1.42087,-0.55843,-0.37603,0.55202,0.05146,1.84061,1.07788,-0.44496,-1.64623,3.32561,0.15690,-0.16452,-0.96259,-0.17584,-0.12422,15.53452,10.57158,-7.21901
-0.13188,1.43035,-0.55766,-0.39380,0.58515,0.05433,2.02254,1.27543,-0.50792,-1.94320,3.39928,0.28577,-0.17368,-0.96001,-0.19041,-0.10937,18.38019,16.31438,-6.09547
-0.13907,1.44142,-0.55663,-0.42268,0.63665,0.06050,2.22710,1.52903,-0.53162,-1.49760,3.02778,0.74305,-0.18286,-0.95690,-0.20651,-0.09086,15.35145,17.61859,-0.59404
-0.14600,1.45242,-0.55538,-0.44040,0.67610,0.07001,2.28681,1.59649,-0.52053,-0.93064,2.66239,1.08063,-0.19020,-0.95363,-0.22042,-0.07630,6.25320,6.87825,0.71722
-0.15270,1.46346,-0.55378,-0.44981,0.70572,0.08288,2.26149,1.53486,-0.49661,-0.43719,2.32680,1.51787,-0.19625,-0.95026,-0.23290,-0.06514,1.18575,-0.26971,1.10318
-0.15950,1.47515,-0.55165,-0.45847,0.73975,0.10151,2.10770,1.29794,-0.40985,-0.65377,2.04665,1.03352,-0.19888,-0.94759,-0.24278,-0.05974,-9.66131,-17.00773,3.95153
-0.16660,1.48694,-0.54948,-0.47025,0.76867,0.11747,2.06890,1.24442,-0.36265,-1.20353,2.17148,0.89918,-0.20287,-0.94435,-0.25398,-0.05049,-6.33870,-8.13342,3.71315
-0.17383,1.49871,-0.54723,-0.48097,0.78856,0.12979,2.12326,1.33557,-0.37201,-1.24362,1.94927,1.09125,-0.20908,-0.94012,-0.26662,-0.03719,2.30988,2.61637,1.89921
-0.18147,1.51131,-0.54409,-0.49562,0.81805,0.15484,2.25900,1.53430,-0.44987,-0.46367,1.31744,1.63340,-0.21822,-0.93439,-0.28089,-0.02001,8.19434,12.53899,-2.82824
-0.18870,1.52347,-0.54079,-0.50010,0.83419,0.17758,2.32828,1.62065,-0.55265,-0.14750,1.00726,1.77915,-0.22790,-0.92813,-0.29428,-0.00540,4.44868,7.38068,-6.47309
-0.19577,1.53558,-0.53704,-0.50106,0.84473,0.20214,2.35273,1.65681,-0.64935,0.15747,0.48360,1.93813,-0.23777,-0.92149,-0.30700,0.00811,3.43326,5.54427,-7.22970
-0.20256,1.54758,-0.53252,-0.49983,0.84972,0.22654,2.28751,1.59901,-0.70610,-0.00712,0.29520,1.69383,-0.24638,-0.91536,-0.31791,0.01880,-4.49222,-2.91335,-4.53080
-0.20946,1.55942,-0.52789,-0.50094,0.85075,0.24703,2.23377,1.58539,-0.73680,-0.28985,0.06708,1.60529,-0.25480,-0.90902,-0.32839,0.03036,-5.22942,-1.77925,-2.69454
-0.21658,1.57128,-0.52262,-0.50542,0.85190,0.27356,2.22936,1.68151,-0.77231,-0.62335,0.23605,1.99456,-0.26435,-0.90180,-0.33891,0.04494,-2.86213,4.36725,-1.71833
-0.22419,1.58314,-0.51638,-0.51695,0.85251,0.31231,2.30572,1.80703,-0.75179,-0.82180,0.01457,2.65245,-0.27293,-0.89355,-0.35106,0.06191,5.36435,8.24031,0.90476
-0.23195,1.59489,-0.50942,-0.52866,0.85092,0.35520,2.36521,1.88657,-0.69145,-0.63360,-0.13528,2.69118,-0.28003,-0.88517,-0.36312,0.07877,4.65140,4.58591,4.34208
-0.23967,1.60658,-0.50267,-0.53559,0.84856,0.38583,2.38775,1.94576,-0.65363,-0.58074,-0.32764,2.43860,-0.28720,-0.87650,-0.37440,0.09528,3.38803,3.57603,3.52359
-0.24742,1.61808,-0.49547,-0.54099,0.84288,0.41570,2.34889,1.99962,-0.60244,-0.07897,-0.61020,1.97508,-0.29386,-0.86815,-0.38398,0.11189,0.39236,5.28596,4.44861
-0.25498,1.62944,-0.48828,-0.54190,0.83632,0.43850,2.15908,1.93294,-0.53203,0.04427,-0.61955,1.62733,-0.29894,-0.86190,-0.39012,0.12475,-10.38546,-2.77229,5.88771
-0.26265,1.64059,-0.48095,-0.54453,0.82804,0.45920,1.96450,1.84726,-0.44136,-0.42346,-0.53887,1.37537,-0.30275,-0.85653,-0.39506,0.13649,-14.93800,-9.18685,7.07642
-0.27041,1.65153,-0.47338,-0.54777,0.81910,0.48164,1.90229,1.92322,-0.38838,-0.43243,-0.54835,1.72623,-0.30813,-0.84924,-0.40080,0.15233,-7.19050,2.10962,5.47727
-0.27823,1.66214,-0.46516,-0.55134,0.80660,0.50995,1.92569,2.01962,-0.34562,-0.05847,-1.09384,2.26624,-0.31359,-0.84055,-0.40780,0.16980,2.10562,8.50295,3.48403
-0.28591,1.67233,-0.45637,-0.55109,0.78984,0.54121,1.94050,2.03930,-0.30854,0.11253,-1.25603,2.35704,-0.31821,-0.83183,-0.41503,0.18585,1.04342,1.31781,3.16513
-0.29355,1.68208,-0.44724,-0.54997,0.77073,0.57381,1.99155,2.06917,-0.27427,0.03726,-1.37647,2.39592,-0.32256,-0.82224,-0.42287,0.20260,3.30573,1.76364,2.11051
-0.30120,1.69144,-0.43780,-0.54878,0.74930,0.60374,2.02410,2.09265,-0.22705,0.24372,-1.72713,2.04614,-0.32627,-0.81252,-0.43031,0.21953,4.87356,2.05545,2.95451
-0.30965,1.70027,-0.42970,-0.54877,0.72950,0.62338,2.01098,2.07807,-0.18565,0.28645,-1.75361,1.80294,-0.32950,-0.80326,-0.43688,0.23524,-0.61218,-0.85134,3.67587
-0.31967,1.70780,-0.42356,-0.55134,0.70068,0.64172,1.95711,2.01440,-0.11091,0.54864,-2.05501,1.40917,-0.33120,-0.79504,-0.44255,0.24973,-1.39318,-2.46983,4.33474
-0.32885,1.71597,-0.41637,-0.55210,0.68219,0.64873,1.86473,1.88650,-0.04769,0.50539,-1.92867,0.99863,-0.33199,-0.78802,-0.44756,0.26174,-6.33653,-9.31825,5.33181
-0.33674,1.72378,-0.40732,-0.54677,0.65514,0.65844,1.71990,1.69223,0.07661,0.43141,-1.62694,0.41644,-0.33007,-0.78344,-0.45115,0.27155,-8.29738,-13.81098,7.07287
-0.34399,1.73180,-0.39739,-0.53918,0.63189,0.66525,1.66721,1.64925,0.16671,0.32208,-1.27331,0.26741,-0.32925,-0.77696,-0.45500,0.28442,-4.47001,-6.37499,6.07117
-0.35113,1.73989,-0.38757,-0.53205,0.61661,0.67028,1.69926,1.74240,0.20136,0.55306,-1.39278,0.35251,-0.33030,-0.76780,-0.45937,0.30060,1.93361,4.90048,4.29775
-0.35788,1.74723,-0.37744,-0.52099,0.59353,0.68071,1.77557,1.86992,0.23511,0.81631,-1.51031,0.95440,-0.33141,-0.75715,-0.46409,0.31859,4.13541,8.86567,2.18143
-0.36458,1.75433,-0.36636,-0.51142,0.56992,0.70323,1.86439,1.84270,0.30834,0.79544,-1.46485,1.59634,-0.32955,-0.74731,-0.47016,0.33446,5.82660,0.51229,2.75709
-0.37128,1.76145,-0.35522,-0.50436,0.55361,0.72268,1.91003,1.69418,0.40877,0.77021,-1.47714,1.52712,-0.32505,-0.73915,-0.47651,0.34775,6.38522,-9.15141,5.28743
-0.37782,1.76812,-0.34377,-0.49661,0.53476,0.74294,1.93277,1.45576,0.56974,0.50464,-1.42160,1.24895,-0.31684,-0.73306,-0.48296,0.35914,3.71321,-18.42232,8.70960
-0.38420,1.77444,-0.33224,-0.48830,0.51418,0.75853,1.94221,1.25960,0.71954,0.71293,-1.76058,0.78732,-0.30780,-0.72729,-0.48891,0.37049,3.19098,-15.16352,9.57471
-0.39029,1.78020,-0.32105,-0.47685,0.48951,0.76583,1.87258,1.01091,0.82281,0.96155,-1.96837,0.19784,-0.29834,-0.72347,-0.49410,0.37876,-2.34058,-18.55587,6.29060
-0.39588,1.78551,-0.31007,-0.46052,0.46335,0.76790,1.82369,0.85645,0.86088,1.09360,-1.69334,0.10736,-0.29020,-0.71879,-0.49924,0.38716,-4.89000,-14.66925,2.34107
-0.40110,1.79050,-0.29901,-0.44185,0.43779,0.77071,1.86724,0.83365,0.87945,1.32882,-1.80376,0.17944,-0.28269,-0.71158,-0.50517,0.39817,2.22887,-3.37713,1.53203
-0.40601,1.79506,-0.28793,-0.42206,0.41169,0.77430,1.97118,0.86741,0.89640,1.33011,-1.83638,0.29181,-0.27501,-0.70250,-0.51196,0.41082,6.06833,1.20592,0.30403
-0.41056,1.79914,-0.27657,-0.40180,0.38353,0.78036,2.06374,0.84787,0.91682,1.66878,-2.33096,0.43903,-0.26626,-0.69348,-0.51917,0.42268,7.88337,2.18272,1.58400
-0.41461,1.80225,-0.26489,-0.37797,0.34539,0.79029,2.13635,0.66964,0.91689,1.59591,-2.52523,0.58159,-0.25538,-0.68605,-0.52781,0.43074,4.77397,-10.27053,-1.32750
-0.41874,1.80523,-0.25343,-0.35947,0.31414,0.79652,2.17278,0.51101,0.89442,1.55709,-2.76741,0.43146,-0.24470,-0.67886,-0.53636,0.43772,4.96371,-12.75874,-2.67752
-0.42238,1.80725,-0.24186,-0.33769,0.27453,0.80317,2.25510,0.37008,0.85582,1.49413,-2.88040,0.36776,-0.23336,-0.67073,-0.54625,0.44415,4.66265,-10.50265,-4.31652
-0.42571,1.80859,-0.23057,-0.31561,0.23298,0.80353,2.32810,0.24018,0.82530,1.67677,-3.14609,-0.36709,-0.22145,-0.66244,-0.55636,0.45010,7.04807,-7.56991,-3.95309
-0.42849,1.80885,-0.21978,-0.28866,0.18220,0.79603,2.33999,0.03534,0.76587,1.70664,-3.42759,-0.61979,-0.20911,-0.65578,-0.56659,0.45299,1.76508,-11.83969,-4.83577
-0.43119,1.80865,-0.20931,-0.26646,0.13486,0.78495,2.33552,-0.12893,0.70747,1.43679,-3.46544,-0.97921,-0.19698,-0.64921,-0.57656,0.45531,0.23717,-12.21764,-6.37936
-0.43386,1.80818,-0.19909,-0.24919,0.09523,0.77259,2.32102,-0.18825,0.65401,1.12466,-3.07365,-1.01644,-0.18612,-0.64183,-0.58580,0.45854,-1.45694,-7.77121,-5.17690
-0.43635,1.80708,-0.18926,-0.23335,0.05505,0.75647,2.37085,-0.10214,0.66755,0.86301,-2.71979,-1.38036,-0.17548,-0.63179,-0.59448,0.46546,3.08461,3.42577,-0.66622
-0.43845,1.80545,-0.18012,-0.21527,0.01535,0.73089,2.34599,-0.01368,0.71216,1.45050,-2.35463,-1.81892,-0.16535,-0.62249,-0.60117,0.47303,-0.31101,7.01086,4.88459
-0.44045,1.80415,-0.17109,-0.19931,-0.00949,0.71008,2.28227,-0.07345,0.70601,1.62297,-1.96890,-1.88735,-0.15444,-0.61535,-0.60821,0.47705,-4.27244,-1.44139,-0.12984
-0.44178,1.80228,-0.16291,-0.17518,-0.03861,0.68119,2.12582,-0.30140,0.62669,1.65860,-1.86444,-1.75782,-0.14327,-0.61213,-0.61519,0.47573,-8.57407,-12.92914,-6.29083
-0.44306,1.80047,-0.15461,-0.15569,-0.06004,0.66124,2.02425,-0.44134,0.54414,1.52361,-1.70513,-1.57440,-0.13277,-0.60796,-0.62249,0.47462,-8.46754,-13.96210,-8.90256
-0.44401,1.79848,-0.14647,-0.13573,-0.07867,0.64399,1.93969,-0.50073,0.46556,1.62432,-1.25638,-1.14824,-0.12353,-0.60320,-0.62949,0.47396,-8.02038,-6.55570,-7.86611
-0.44413,1.79633,-0.13840,-0.10662,-0.09589,0.62942,1.93266,-0.44891,0.39862,1.27144,-0.43648,-0.42411,-0.11533,-0.59593,-0.63707,0.47509,-0.87187,2.20306,-5.15524
-0.44463,1.79488,-0.12984,-0.09007,-0.09770,0.62610,1.96713,-0.37245,0.43323,1.42523,0.08579,-0.06622,-0.10559,-0.58752,-0.64385,0.47868,2.42234,7.75139,2.68419
-0.44474,1.79350,-0.12093,-0.07107,-0.09802,0.62951,2.04175,-0.38633,0.44735,1.08636,-0.16564,0.42762,-0.09406,-0.57898,-0.65176,0.48077,4.25108,0.12091,0.80008
-0.44512,1.79188,-0.11177,-0.06082,-0.10247,0.63632,2.09235,-0.48586,0.44330,0.92076,-0.61610,0.76026,-0.08116,-0.57159,-0.65992,0.48083,5.01485,-4.75803,0.31323
-0.44545,1.78961,-0.10200,-0.05243,-0.11660,0.65132,2.20673,-0.66567,0.39077,0.39047,-1.32650,1.29528,-0.06598,-0.56382,-0.67022,0.47807,7.08130,-11.36465,-4.94270
-0.44604,1.78633,-0.09142,-0.05030,-0.14482,0.67727,2.43637,-0.89724,0.34857,-0.05337,-1.52447,1.66221,-0.04715,-0.55430,-0.68265,0.47383,12.38125,-11.22170,-3.26547
-0.44695,1.78300,-0.08076,-0.05400,-0.16786,0.69868,2.65207,-1.11926,0.29988,-0.37933,-1.82569,1.39064,-0.02720,-0.54419,-0.69545,0.46847,16.38287,-13.90389,-4.15184
-0.44816,1.77933,-0.07012,-0.06207,-0.19109,0.71472,2.83820,-1.37052,0.23688,-0.79707,-2.01844,1.35060,-0.00565,-0.53431,-0.70860,0.46083,15.79483,-17.70224,-6.70040
-0.45014,1.77480,-0.05918,-0.08153,-0.22328,0.73139,3.11892,-1.73133,0.14282,-1.57616,-1.91651,0.58798,0.02049,-0.52323,-0.72398,0.44907,18.69072,-21.69555,-8.74095
-0.45258,1.77026,-0.04889,-0.10448,-0.24833,0.73303,3.32369,-1.96046,0.11348,-1.98166,-1.87239,-0.41203,0.04624,-0.51127,-0.73769,0.43849,15.96885,-17.27450,-5.22115
-0.45542,1.76553,-0.03931,-0.12849,-0.27025,0.72215,3.46681,-2.10875,0.12257,-2.24531,-1.82459,-1.62229,0.07191,-0.49868,-0.75003,0.42848,13.62459,-13.20210,-0.59354
-0.45907,1.76053,-0.03103,-0.16000,-0.29111,0.69179,3.54024,-2.19772,0.21223,-2.54257,-1.28949,-2.63587,0.09793,-0.48603,-0.76005,0.42013,6.56457,-9.03446,3.15615
-0.46357,1.75564,-0.02415,-0.19914,-0.30515,0.64401,3.58836,-2.34415,0.28935,-2.20482,-0.58080,-3.72483,0.12548,-0.47390,-0.76885,0.41054,3.45885,-8.16396,6.35832
-0.46798,1.75117,-0.01792,-0.22721,-0.30888,0.59703,3.58892,-2.48762,0.26863,-2.41764,-0.08869,-4.07191,0.15190,-0.46266,-0.77731,0.39833,-0.19629,-12.69151,-4.35681
-0.47307,1.74683,-0.01325,-0.25979,-0.30967,0.53532,3.62945,-2.60352,0.33488,-2.47023,-0.07161,-5.00129,0.18007,-0.44991,-0.78435,0.38725,2.56328,-8.89315,1.03009
-0.47865,1.74240,-0.01042,-0.29276,-0.31169,0.45720,3.67015,-2.75046,0.42441,-2.31977,-0.17040,-6.14192,0.21003,-0.43690,-0.78984,0.37572,2.35880,-11.26988,4.27486
-0.48440,1.73791,-0.00874,-0.32055,-0.31420,0.37935,3.71418,-2.91194,0.52654,-2.46164,-0.28503,-6.99982,0.24154,-0.42341,-0.79378,0.36373,2.65471,-13.18663,4.17523
-0.49096,1.73328,-0.01085,-0.35493,-0.31834,0.25656,3.76673,-3.17329,0.78146,-1.74751,-0.12676,-8.36426,0.27852,-0.40944,-0.79374,0.35322,1.26315,-18.92298,12.17399
-0.49696,1.72878,-0.01457,-0.37245,-0.31947,0.13381,3.85158,-3.43629,0.94926,-0.54619,-0.03120,-9.23234,0.31640,-0.39436,-0.79275,0.34047,3.13120,-20.94194,10.13345
-0.50221,1.72427,-0.01988,-0.37329,-0.32040,0.01502,3.99369,-3.70157,0.96377,0.84658,0.01154,-10.54576,0.35462,-0.37792,-0.79188,0.32303,9.48419,-21.60712,3.21248
-0.50584,1.72029,-0.03179,-0.34619,-0.31195,-0.18893,4.29228,-4.10344,0.79423,2.36325,1.04838,-12.20661,0.39608,-0.35929,-0.79131,0.29643,20.86815,-19.18709,-11.49207
-0.50808,1.71726,-0.04462,-0.30097,-0.28877,-0.36601,4.49151,-4.36141,0.78701,3.92902,2.50348,-13.29801,0.43638,-0.33910,-0.78744,0.27299,17.48394,-17.77333,-4.66214
-0.50811,1.71632,-0.06023,-0.22840,-0.23463,-0.54805,4.54443,-4.52412,0.89529,6.25759,5.35117,-13.30276,0.47543,-0.31898,-0.77991,0.25288,7.53812,-15.40998,5.45279
-0.50555,1.71850,-0.07799,-0.12851,-0.13963,-0.72292,4.32985,-4.59910,1.08530,7.76084,8.23627,-12.43262,0.51151,-0.30258,-0.76819,0.23810,-11.29100,-9.41483,4.78015
-0.50038,1.72413,-0.09739,-0.00794,-0.00804,-0.88420,3.87334,-4.68053,1.31675,9.44058,10.59233,-11.48337,0.54588,-0.29153,-0.75155,0.22849,-31.33196,-10.58280,7.66284
-0.49235,1.73333,-0.11839,0.13300,0.15326,-1.03381,3.23044,-4.82204,1.47394,11.19114,12.75209,-10.34485,0.57884,-0.28737,-0.73027,0.22151,-44.54810,-13.74588,-1.18249
-0.48099,1.74664,-0.14053,0.29764,0.34678,-1.16736,2.57501,-4.97722,1.21200,13.28502,14.96776,-8.87090,0.60737,-0.29188,-0.70887,0.20835,-42.70254,-12.57701,-22.69176
-0.46614,1.76400,-0.16347,0.48241,0.56312,-1.28226,2.05853,-5.09064,0.69102,13.99976,16.24516,-7.62869,0.63200,-0.30110,-0.68876,0.18850,-24.92488,-4.58032,-47.15639
-0.44773,1.78538,-0.18711,0.68417,0.79650,-1.38169,1.57226,-5.22492,0.13004,15.03726,17.37062,-6.79115,0.65462,-0.31482,-0.66687,0.16629,-20.38797,-4.01628,-49.07545
-0.42553,1.81081,-0.21145,0.90258,1.04347,-1.46933,1.09214,-5.47366,-0.49996,16.71390,18.15193,-5.98775,0.67641,-0.33451,-0.64097,0.14042,-18.28406,-11.47973,-53.22090
-0.39842,1.84005,-0.23607,1.15329,1.29647,-1.54046,0.52829,-5.73493,-1.14331,19.53877,18.40467,-4.38028,0.69546,-0.36074,-0.61091,0.11397,-19.76552,-15.99658,-56.85276
-0.36560,1.87290,-0.25992,1.44189,1.55056,-1.58100,-0.05427,-5.88711,-1.92408,22.39716,18.13376,-1.72322,0.70822,-0.39409,-0.57951,0.08534,-23.29468,-10.05914,-64.11954
-0.32901,1.90694,-0.28251,1.72104,1.76045,-1.59046,-0.54491,-5.91728,-2.67145,24.81524,17.15671,0.04187,0.71543,-0.43013,-0.54777,0.05571,-15.28228,-2.40177,-71.99898
-0.28323,1.94522,-0.30366,2.08341,1.98822,-1.57337,-0.97466,-5.86935,-3.70890,27.81506,15.44531,2.59386,0.71289,-0.47475,-0.51578,0.01943,-8.13345,2.22903,-77.54661
-0.22619,1.98604,-0.32220,2.55727,2.20827,-1.51585,-1.15484,-5.70608,-5.08126,32.61419,11.93432,5.04529,0.69806,-0.52495,-0.48617,-0.02797,18.79440,1.38373,-84.81772
-0.16229,2.02481,-0.33818,3.04233,2.34435,-1.42734,-1.31627,-5.50567,-6.24723,36.96120,7.77325,7.57767,0.67642,-0.57468,-0.45456,-0.07458,26.14837,6.83275,-81.58143
-0.08874,2.06200,-0.34967,3.57642,2.42115,-1.28294,-1.49547,-4.93607,-7.30418,41.04738,3.52550,12.45930,0.64227,-0.62571,-0.42729,-0.11575,18.87916,21.28142,-76.81336
-0.00425,2.09666,-0.35637,4.17240,2.43442,-1.08874,-1.64593,-4.13214,-8.97974,46.76051,-2.81533,14.73147,0.58288,-0.68756,-0.40140,-0.16245,44.17886,25.68726,-105.34960
0.09097,2.12421,-0.35868,4.80981,2.31975,-0.86190,-2.12463,-3.09484,-10.92239,45.88427,-14.39171,16.81898,0.49756,-0.75854,-0.36931,-0.20164,43.27280,47.68507,-149.70110
0.19047,2.14194,-0.35814,5.35662,2.06996,-0.64537,-2.49959,-2.14732,-12.47389,44.87629,-28.03544,19.26770,0.40108,-0.82103,-0.33205,-0.23408,39.92264,55.22416,-144.96550
0.30557,2.13497,-0.34744,6.02850,1.46181,-0.31389,-2.16146,-1.03651,-14.06104,37.48827,-47.98414,23.52366,0.28236,-0.86927,-0.30358,-0.26924,63.70293,22.53588,-113.14480
0.41600,2.10949,-0.33167,6.46423,0.67787,0.02607,-1.24570,-0.30605,-14.73097,22.78742,-63.08337,25.73233,0.17232,-0.89241,-0.28483,-0.30461,75.70713,-15.75195,-67.63000
0.51792,2.06968,-0.31274,6.65252,-0.14403,0.33350,-0.20678,0.03141,-14.49165,7.47392,-71.95050,26.47055,0.07996,-0.89724,-0.27443,-0.33654,78.88092,-39.93309,-7.28027
0.60995,1.99711,-0.28344,6.62625,-1.32126,0.73920,1.25019,-0.16163,-13.67634,-10.88042,-74.01994,24.57264,0.00365,-0.88342,-0.27931,-0.37623,51.85372,-82.68017,48.13536
0.69141,1.92620,-0.25529,6.43375,-2.19437,1.02975,2.07292,0.00492,-13.14531,-21.09063,-72.98132,22.46375,-0.07728,-0.86956,-0.27742,-0.40116,43.48392,-65.66032,44.79398
0.76333,1.84247,-0.22371,6.13891,-3.04613,1.30071,2.92341,0.55944,-12.87853,-28.11239,-71.30802,21.12734,-0.16838,-0.85019,-0.28058,-0.41244,70.63104,-32.80820,32.11533
0.81369,1.72416,-0.18280,5.55186,-4.28636,1.66526,4.70106,1.28935,-13.19857,-38.95959,-69.38657,18.05815,-0.28540,-0.80931,-0.30103,-0.41588,90.28428,-37.34985,-20.69141
0.86046,1.61609,-0.14694,5.03636,-5.08868,1.86828,6.19623,1.84297,-13.59262,-48.90429,-70.08875,14.09769,-0.40400,-0.75381,-0.31570,-0.41095,125.49540,-56.52003,-51.57924
0.88377,1.48999,-0.10974,4.26137,-5.98425,2.04368,9.33122,2.85538,-14.05219,-62.48625,-58.06091,7.22778,-0.54421,-0.65835,-0.36254,-0.37280,142.35720,-60.90521,-96.94504
0.87608,1.35759,-0.07398,3.14642,-6.80010,2.15701,13.49170,2.78431,-13.37905,-75.87990,-42.77547,7.56919,-0.65411,-0.51969,-0.45060,-0.31468,221.47480,-176.30780,-86.44559
0.85229,1.23592,-0.04229,2.00374,-7.25280,2.17423,14.47401,-0.07794,-12.44674,-84.84909,-23.56217,1.17815,-0.69494,-0.38539,-0.51240,-0.32554,-21.42198,-191.17710,-120.59330
0.81082,1.12645,-0.01709,0.83634,-7.39394,2.08143,11.84993,-3.13029,-11.92905,-82.39493,-0.66602,-8.45888,-0.69543,-0.29258,-0.52439,-0.39471,-238.32370,-64.21967,-117.26490
0.75149,1.03582,-0.00131,-0.37442,-7.17689,1.85395,6.58798,-4.62325,-12.07431,-70.17329,25.62555,-18.02559,-0.68026,-0.24798,-0.47276,-0.50224,-303.33220,151.64780,-103.10800
0.70304,0.95792,0.01151,-1.11111,-6.79922,1.63148,3.39477,-4.18715,-12.00329,-53.14957,39.10538,-21.70135,-0.68101,-0.20800,-0.41386,-0.56717,-217.61220,210.81270,-63.58543
0.65154,0.89637,0.01816,-1.71201,-6.24257,1.36194,1.54630,-2.78991,-11.03627,-33.12077,42.80687,-20.17863,-0.68932,-0.19162,-0.36040,-0.59852,-71.70155,190.81830,47.20466
0.60295,0.84683,0.02064,-2.12813,-5.60447,1.08319,1.02692,-1.38510,-9.49683,-19.74973,38.89365,-15.88898,-0.70467,-0.18292,-0.32612,-0.60301,6.36015,98.46861,102.09280
0.56058,0.79470,0.02673,-2.34372,-5.16247,0.93186,1.06482,-0.90398,-8.43432,-16.10382,36.22284,-10.10712,-0.71783,-0.15728,-0.30447,-0.60603,23.82073,51.56764,96.77045
0.51521,0.75189,0.03364,-2.55587,-4.67560,0.83270,1.03895,-0.90351,-7.43123,-14.79308,34.20708,-4.49890,-0.72370,-0.13080,-0.29284,-0.61107,1.20084,-1.02534,82.21954
0.46736,0.71873,0.04216,-2.76310,-4.13208,0.78566,0.43505,-0.97967,-6.97071,-11.66676,33.69463,-1.04437,-0.71990,-0.10232,-0.27245,-0.63011,-32.98882,1.79090,34.01043
0.42285,0.68488,0.05188,-2.86499,-3.72980,0.76809,-0.25339,-0.73853,-6.81996,-5.89925,33.79842,-1.58988,-0.71450,-0.07649,-0.24020,-0.65264,-49.33540,36.31088,6.30035
0.38031,0.66047,0.06093,-2.90773,-3.27025,0.74290,-0.79391,-0.43777,-6.24952,0.03781,31.99835,-2.07849,-0.70712,-0.06249,-0.21400,-0.67103,-31.45437,39.93864,29.98070
0.34133,0.64003,0.06916,-2.88163,-2.85247,0.71153,-1.22087,0.00807,-5.61568,3.60758,28.33158,-2.46290,-0.69988,-0.05652,-0.18758,-0.68687,-19.74468,39.31215,44.41724
0.30501,0.62250,0.07638,-2.81802,-2.48331,0.67033,-1.48627,0.34199,-4.87153,5.53461,24.94131,-3.70776,-0.69248,-0.05539,-0.16655,-0.69976,-11.84758,42.52272,45.63244
0.26976,0.60707,0.08257,-2.75155,-2.16528,0.62034,-1.50091,0.49897,-4.16955,3.86398,21.78629,-3.76220,-0.68726,-0.05355,-0.15175,-0.70836,0.77870,10.69158,57.84172
0.23521,0.59405,0.08724,-2.68833,-1.88065,0.55820,-1.42202,1.14704,-4.04250,4.37831,20.13086,-4.64758,-0.68720,-0.05280,-0.11756,-0.71495,14.00381,42.21154,12.26281
0.20172,0.58431,0.09111,-2.62201,-1.60733,0.49701,-1.20755,1.52427,-3.83790,5.28900,19.59185,-4.32266,-0.68871,-0.05102,-0.08819,-0.71785,23.21198,28.77250,6.52997
0.17079,0.58033,0.09371,-2.52588,-1.29668,0.42757,-0.90816,2.13065,-3.73332,7.14527,19.59312,-4.26639,-0.69332,-0.05380,-0.05169,-0.71676,25.37266,32.01762,0.56954
0.14154,0.57776,0.09635,-2.42228,-1.03199,0.37654,-0.62798,2.54190,-3.57839,7.96555,18.17709,-2.86327,-0.69760,-0.05708,-0.01780,-0.71398,29.73422,29.18927,6.25382
0.11517,0.57934,0.09967,-2.29168,-0.75479,0.34859,-0.38867,2.60761,-3.31129,9.38998,16.70104,-0.87025,-0.70097,-0.05836,0.00836,-0.71075,20.68711,7.01008,9.28094
0.08959,0.58060,0.10438,-2.18001,-0.54996,0.34907,-0.37977,2.37656,-2.90930,10.04851,16.98533,0.90706,-0.69989,-0.05849,0.02477,-0.71142,8.71343,-16.45533,29.19115
0.06778,0.58688,0.11022,-2.03191,-0.31214,0.36981,-0.76672,2.26611,-2.57025,10.85231,16.75631,2.53457,-0.69044,-0.06124,0.04206,-0.71956,-16.25023,-12.38350,32.93364
0.04948,0.59538,0.11610,-1.85914,-0.09340,0.38448,-1.18405,2.68924,-2.56683,13.48107,15.07954,0.32872,-0.67767,-0.06913,0.07537,-0.72822,-28.39490,30.01564,4.94696
0.03512,0.60528,0.12091,-1.66205,0.09726,0.37478,-1.50054,3.09674,-2.56226,14.75914,12.32037,-1.76326,-0.66375,-0.07865,0.11032,-0.73559,-19.53011,33.54021,3.50885
0.02428,0.61497,0.12420,-1.45205,0.23841,0.34157,-1.49353,3.37448,-2.44074,15.63846,8.14707,-3.52174,-0.65406,-0.08984,0.14179,-0.73759,-0.02533,29.79502,1.08476
0.01654,0.62377,0.12624,-1.23929,0.33115,0.29508,-1.36793,3.19756,-2.01388,15.70827,4.89732,-4.00517,-0.64722,-0.09958,0.15809,-0.73905,12.00807,-5.06814,21.71825
0.01026,0.63141,0.12783,-1.05538,0.38149,0.25290,-1.22272,2.90634,-1.44478,15.45299,3.41369,-3.68292,-0.64145,-0.11097,0.16539,-0.74086,15.77859,-21.39950,42.61624
0.01016,0.64001,0.12774,-0.81101,0.43652,0.19219,-1.13693,2.50302,-0.67326,15.53410,3.57480,-3.89011,-0.63501,-0.12494,0.16172,-0.74498,13.71363,-25.33863,48.12670
0.01142,0.64903,0.12668,-0.59704,0.48595,0.12825,-1.19800,2.38594,-0.09187,14.94051,3.36883,-4.72833,-0.62440,-0.14227,0.16255,-0.75064,4.04069,-8.57537,45.45584
0.01348,0.65776,0.12474,-0.42410,0.51838,0.06603,-1.23494,2.34411,0.35670,14.04953,2.22862,-5.67794,-0.61329,-0.16066,0.16393,-0.75578,-0.13129,-0.81106,37.79778
0.01886,0.66628,0.12056,-0.23952,0.53939,-0.01781,-1.15921,2.46503,0.67885,12.11877,1.43818,-5.95999,-0.60344,-0.18244,0.16779,-0.75791,8.54903,3.49900,32.82054
0.02766,0.67352,0.11348,-0.03489,0.53467,-0.13371,-0.98629,2.93529,0.49067,10.70917,-1.21047,-6.78972,-0.59553,-0.20435,0.18802,-0.75381,4.75285,28.15532,-15.56864
0.03426,0.68001,0.10709,0.08705,0.51820,-0.21168,-0.79345,3.06589,0.49191,10.04502,-1.85040,-6.93957,-0.58915,-0.22411,0.20057,-0.74997,12.02695,17.97627,-11.01141
0.04324,0.68602,0.09882,0.21823,0.49780,-0.30179,-0.58891,3.00514,0.67788,9.16593,-1.54460,-6.56786,-0.58384,-0.24404,0.20570,-0.74650,17.98359,0.46667,6.51883
0.05376,0.69232,0.08820,0.35198,0.48205,-0.40460,-0.38790,2.75625,1.09529,7.99441,-0.90330,-6.45425,-0.57875,-0.26455,0.20091,-0.74478,17.21933,-13.24385,22.70277
0.06308,0.69920,0.07714,0.43938,0.47467,-0.48330,-0.26894,2.57639,1.39574,7.14854,-0.58884,-6.18471,-0.57248,-0.28461,0.19659,-0.74338,16.65164,-15.09285,24.66529
0.07322,0.70596,0.06498,0.51780,0.46805,-0.56049,-0.12852,2.40566,1.68114,6.24327,-0.78138,-6.31651,-0.56676,-0.30512,0.18969,-0.74142,14.41228,-11.77545,22.77483
0.08601,0.71235,0.05000,0.61700,0.46195,-0.67563,0.13865,2.20679,2.06891,4.75442,-0.33813,-5.94455,-0.56326,-0.32774,0.17647,-0.73768,19.50973,-10.31120,22.56545
0.09750,0.71844,0.03643,0.66687,0.45610,-0.74622,0.29424,2.13053,2.15416,3.64607,-0.51635,-5.74113,-0.55951,-0.34793,0.16976,-0.73286,15.64247,-4.19186,8.37291
0.10912,0.72451,0.02208,0.70583,0.45163,-0.81100,0.45565,2.02970,2.23826,2.95648,-0.34932,-5.17092,-0.55659,-0.36755,0.16129,-0.72739,15.27777,-5.55707,3.99026
0.12127,0.73064,0.00603,0.74413,0.44896,-0.88926,0.62188,1.94898,2.24121,1.91270,0.11225,-4.50162,-0.55496,-0.38610,0.15351,-0.72068,12.53956,-5.00743,0.99688
0.13350,0.73690,-0.01050,0.77611,0.44922,-0.95995,0.68557,2.04097,2.10470,2.07380,0.24718,-4.18886,-0.55214,-0.40512,0.15190,-0.71270,2.82787,5.16536,-8.83979
0.14558,0.74343,-0.02684,0.79804,0.45382,-1.01059,0.69537,2.17257,2.02785,1.83821,0.41229,-4.12427,-0.54762,-0.42552,0.15106,-0.70443,-1.08189,10.64013,-7.88605
0.15793,0.75033,-0.04425,0.81893,0.46378,-1.06677,0.72267,2.30720,2.00175,1.08530,0.98506,-3.95527,-0.54271,-0.44704,0.14978,-0.69512,0.53962,9.58456,-1.36174
0.16992,0.75773,-0.06262,0.82909,0.47986,-1.12675,0.66498,2.53242,1.89181,0.32861,1.10503,-3.49593,-0.53630,-0.46900,0.15304,-0.68483,-5.09304,13.03938,-5.07123
0.18157,0.76524,-0.08060,0.83105,0.49404,-1.16595,0.63111,2.68692,1.84437,0.03320,1.20345,-3.15868,-0.52946,-0.49091,0.15517,-0.67424,-7.09663,14.13389,-5.29692
0.19269,0.77350,-0.09934,0.82520,0.51767,-1.21018,0.58151,2.85891,1.84528,-0.68255,1.66265,-2.58796,-0.52106,-0.51402,0.15757,-0.66291,-3.87737,10.95376,0.10077
0.20293,0.78238,-0.11811,0.80464,0.54722,-1.24600,0.49285,2.99931,1.85655,-2.05570,2.10770,-2.05570,-0.51115,-0.53683,0.16029,-0.65180,-5.88779,8.43123,3.32513
0.21247,0.79135,-0.13658,0.77599,0.57111,-1.26642,0.38988,3.08705,1.81611,-2.70713,1.96470,-1.27820,-0.50103,-0.55801,0.16409,-0.64083,-7.79510,6.95725,-0.53114
0.22093,0.80077,-0.15467,0.73652,0.59703,-1.27647,0.27883,3.12109,1.76333,-3.03747,1.90105,-0.45120,-0.49046,-0.57775,0.16836,-0.63032,-10.20947,3.32244,-2.81637
0.22844,0.81072,-0.17229,0.68987,0.62603,-1.27598,0.17918,3.09183,1.75395,-3.63626,2.24797,0.30146,-0.47921,-0.59651,0.17135,-0.62062,-6.46185,-1.71732,0.31718
0.23486,0.82134,-0.18945,0.63533,0.65944,-1.26689,0.09059,3.00489,1.77209,-4.14954,2.52711,0.85099,-0.46741,-0.61406,0.17312,-0.61195,-6.80866,-5.51530,1.85264
0.24022,0.83264,-0.20594,0.57625,0.69674,-1.24830,0.06080,2.84432,1.85445,-4.31634,2.70714,1.50308,-0.45547,-0.63076,0.17162,-0.60435,-1.52049,-10.22085,4.55842
0.24457,0.84456,-0.22172,0.51354,0.73559,-1.22233,0.08895,2.63810,1.97309,-4.68322,2.77018,2.00901,-0.44373,-0.64668,0.16699,-0.59752,3.81685,-14.51266,8.06517
0.24773,0.85690,-0.23683,0.44578,0.77262,-1.19078,0.12643,2.42727,2.07573,-5.08844,2.61998,2.50060,-0.43211,-0.66162,0.16104,-0.59127,6.60947,-14.50976,7.34339
0.24969,0.86944,-0.25107,0.37417,0.80581,-1.15297,0.14521,2.22716,2.14124,-5.26955,2.29649,2.85968,-0.42052,-0.67538,0.15494,-0.58567,3.96308,-14.42488,4.71152
0.25105,0.88206,-0.26486,0.31020,0.83152,-1.11685,0.21031,2.04747,2.16742,-5.49321,2.06898,3.01408,-0.41023,-0.68832,0.14793,-0.57970,5.77307,-14.04268,2.40289
0.25014,0.89541,-0.27725,0.22305,0.86307,-1.06524,0.31719,1.80388,2.16802,-5.51972,2.01034,3.33772,-0.40173,-0.69923,0.13878,-0.57483,8.83941,-14.30479,-1.02739
0.24925,0.90871,-0.28969,0.15681,0.88599,-1.02590,0.39515,1.64812,2.16196,-5.52046,1.87351,3.28403,-0.39293,-0.71035,0.13017,-0.56926,8.48707,-12.87439,-1.50656
