posX, posY, posZ, velX, velY, velZ, angVelX, angVelY, angVelZ, accX, accY, accZ, rotX, rotY, rotZ, rotW, angAccX, angAccY, angAccZ
0.54366,1.07172,-0.11839,-0.64105,0.74296,-0.54509,-0.27205,0.32584,1.47030,-0.61157,-2.50028,-0.57149,-0.27797,-0.62996,-0.04525,-0.72376,16.89718,8.82631,-0.11264
0.53450,1.07979,-0.12660,-0.64564,0.70538,-0.55964,-0.19075,0.45305,1.35473,-0.58578,-2.05759,-1.19871,-0.27426,-0.63627,-0.04891,-0.71941,5.68973,8.96244,-5.47598
0.52505,1.08790,-0.13558,-0.65417,0.67637,-0.58426,-0.22297,0.50874,1.17429,0.64304,-1.10625,-1.62488,-0.27033,-0.64074,-0.04925,-0.71690,0.48374,-2.99408,-19.99920
0.51638,1.09690,-0.14456,-0.64601,0.66969,-0.60148,-0.37787,0.65151,1.25056,1.36050,-0.12629,-1.10398,-0.25988,-0.64912,-0.05091,-0.71310,-8.73619,10.34673,3.45870
0.50835,1.10590,-0.15380,-0.62882,0.66512,-0.62207,-0.57379,0.79350,1.29672,0.71183,-0.08807,-1.53409,-0.24795,-0.65821,-0.05059,-0.70903,-13.42208,7.13409,0.42713
0.49136,1.12447,-0.17230,-0.62129,0.66646,-0.64186,-0.68785,0.80685,1.36737,0.39389,0.15713,-1.17953,-0.22673,-0.67189,-0.05470,-0.70297,-5.02924,1.99896,6.27183
0.48358,1.13334,-0.18258,-0.60950,0.66428,-0.66382,-0.77458,0.79526,1.37991,0.98359,-0.36450,-1.87550,-0.21489,-0.67816,-0.05553,-0.70059,-9.06970,-3.08781,0.51197
0.47607,1.14209,-0.19312,-0.59562,0.65940,-0.68468,-0.58472,0.87173,1.43323,1.12401,-0.46516,-1.64686,-0.20817,-0.68628,-0.06206,-0.69415,9.74773,5.33974,2.54176
0.46891,1.15060,-0.20384,-0.57907,0.65129,-0.70332,-0.31179,0.95697,1.47763,1.22306,-0.73685,-1.24098,-0.20418,-0.69462,-0.07114,-0.68611,17.65845,8.07346,3.15519
0.46224,1.15869,-0.21430,-0.55993,0.64088,-0.71360,0.03352,1.02915,1.47629,1.27605,-0.52491,-0.41725,-0.20388,-0.70242,-0.08222,-0.67697,22.31194,7.78450,-1.26786
0.45561,1.16720,-0.22427,-0.54464,0.63907,-0.71370,0.38271,1.02889,1.48891,0.74700,0.49355,0.34434,-0.20495,-0.70870,-0.09584,-0.66824,27.01829,5.11921,-1.36050
0.44867,1.17688,-0.23401,-0.53621,0.65469,-0.71120,0.60529,0.92036,1.52524,0.25707,1.60341,0.02795,-0.20402,-0.71272,-0.10963,-0.66210,15.48915,-4.37093,0.14818
0.44135,1.18727,-0.24411,-0.53595,0.67848,-0.71540,0.77214,0.84482,1.64157,0.04575,1.89100,-0.68405,-0.20085,-0.71723,-0.12498,-0.65545,12.19501,-5.90971,5.54459
0.43396,1.19809,-0.25465,-0.53659,0.70328,-0.72559,0.95456,0.82922,1.78991,0.04792,1.70629,-0.84274,-0.19753,-0.72255,-0.14239,-0.64701,14.25688,-0.79262,9.46482
0.42640,1.20959,-0.26508,-0.53359,0.72669,-0.73629,1.16851,0.85618,1.86588,0.47338,1.26988,-0.86117,-0.19646,-0.72787,-0.16037,-0.63709,12.39843,0.63271,5.25143
0.41901,1.22097,-0.27537,-0.52864,0.74331,-0.74215,1.34720,0.94065,1.88164,0.47971,1.42290,-0.58239,-0.19679,-0.73385,-0.17726,-0.62555,14.21294,8.06568,1.68402
0.41163,1.23292,-0.28586,-0.52529,0.76578,-0.74946,1.46810,1.01866,1.88573,0.10523,1.81951,-0.60973,-0.19702,-0.73977,-0.19356,-0.61356,11.19739,7.55849,0.54707
0.40356,1.24607,-0.29610,-0.52829,0.79361,-0.75772,1.40754,1.07677,1.85637,-0.42405,2.02310,-0.84015,-0.19500,-0.74601,-0.20589,-0.60254,-1.49753,4.94339,-0.37343
0.39459,1.26061,-0.30639,-0.54075,0.83510,-0.77047,1.16051,1.12884,1.88138,-0.17966,2.54365,-0.81909,-0.18848,-0.75345,-0.21482,-0.59215,-12.16017,1.86519,-0.48323
0.38659,1.27407,-0.31731,-0.54442,0.86125,-0.77876,0.87979,1.16071,1.91018,-0.42579,1.65007,-0.71080,-0.17951,-0.76112,-0.22158,-0.58256,-22.31554,0.21573,7.73717
0.37845,1.28739,-0.32803,-0.55016,0.87812,-0.78325,0.57727,1.14623,1.84543,-0.48567,0.63764,-0.23450,-0.17072,-0.76809,-0.22487,-0.57474,-21.72781,-1.33516,-1.70805
0.37041,1.30002,-0.33820,-0.55238,0.87953,-0.77781,0.33551,1.09907,1.71065,0.27544,-0.67549,0.49019,-0.16352,-0.77399,-0.22663,-0.56819,-17.20274,-4.81250,-6.56139
0.36310,1.31156,-0.34792,-0.54398,0.86529,-0.76202,0.32121,1.11621,1.54560,0.88672,-1.50917,1.09615,-0.16090,-0.77934,-0.23070,-0.55993,-6.97951,-1.75946,-11.07104
0.35608,1.32255,-0.35708,-0.53351,0.84596,-0.74038,0.46942,1.16258,1.41120,0.92044,-1.87448,1.88018,-0.16157,-0.78407,-0.23802,-0.54997,7.93992,5.52174,-12.41180
0.34940,1.33267,-0.36542,-0.52007,0.81700,-0.71078,0.59966,1.14250,1.22478,0.95805,-2.25709,2.28916,-0.16422,-0.78724,-0.24467,-0.54168,9.88993,2.16386,-12.93644
0.34288,1.34214,-0.37330,-0.50831,0.78587,-0.67899,0.77660,1.10515,1.07671,0.69134,-2.23886,2.07159,-0.16808,-0.78930,-0.25300,-0.53362,9.17960,-2.22568,-14.04214
0.33637,1.35077,-0.38066,-0.50059,0.75023,-0.64461,1.04000,1.12139,1.01354,0.42971,-2.20354,1.99554,-0.17306,-0.79121,-0.26494,-0.52330,16.49383,2.17032,-5.94740
0.32968,1.35973,-0.38844,-0.49706,0.72753,-0.62516,1.17727,1.13761,0.98512,0.31931,-2.24052,1.91434,-0.17645,-0.79356,-0.27570,-0.51295,15.15073,2.98960,-3.59683
0.32315,1.36728,-0.39510,-0.49228,0.68784,-0.59100,1.36075,1.15797,0.93394,0.15155,-1.95667,2.20847,-0.18183,-0.79504,-0.28774,-0.50206,10.60392,2.71764,-3.55278
0.31642,1.37515,-0.40178,-0.49199,0.66179,-0.56348,1.36276,1.06494,0.88885,-0.28224,-1.81910,2.26805,-0.18418,-0.79584,-0.29700,-0.49448,4.64563,-3.32175,-3.50207
0.30917,1.38231,-0.40812,-0.50032,0.62968,-0.53678,1.12981,0.71101,0.77864,0.77008,-1.48769,2.16003,-0.18251,-0.79402,-0.30119,-0.49549,-12.24778,-21.51988,-9.41470
0.30287,1.39010,-0.41440,-0.49031,0.61496,-0.51595,0.88096,0.60832,0.67578,0.08143,-1.03809,1.00699,-0.18148,-0.79516,-0.30261,-0.49316,-13.19340,-8.46514,-6.12915
0.29600,1.39765,-0.42137,-0.49242,0.60028,-0.51068,0.47450,0.35870,0.57551,-0.02047,-0.83653,-0.06417,-0.17613,-0.79560,-0.29932,-0.49640,-33.92337,-20.92060,-8.94916
0.28903,1.40530,-0.42778,-0.49565,0.59029,-0.49703,0.65399,0.50953,0.65831,-0.21399,-0.31734,0.53246,-0.17711,-0.79753,-0.30770,-0.48775,4.60027,5.70270,3.35743
0.28173,1.41331,-0.43374,-0.50310,0.58772,-0.47944,1.01701,0.72740,0.79456,-0.69045,0.02652,1.69596,-0.18063,-0.79912,-0.32190,-0.47452,25.46722,17.60490,9.78395
0.27406,1.42169,-0.43904,-0.51529,0.59226,-0.45445,1.37542,0.83894,0.90534,-1.06328,0.67386,1.94462,-0.18466,-0.79889,-0.33828,-0.46179,26.33098,10.81208,7.07264
0.26601,1.43056,-0.44404,-0.53054,0.60390,-0.43065,1.51694,0.83416,0.97705,-1.12999,0.96803,2.11859,-0.18633,-0.79832,-0.35209,-0.45165,17.57927,4.21411,7.43139
0.25787,1.43994,-0.44904,-0.54288,0.62185,-0.41224,1.42460,0.74035,0.96567,-0.79741,1.48600,1.15274,-0.18581,-0.79803,-0.36083,-0.44544,-3.97963,-8.22535,-0.52386
0.24972,1.44997,-0.45410,-0.55245,0.64691,-0.39959,1.28519,0.65923,0.96720,-0.63569,2.11339,0.71098,-0.18400,-0.79832,-0.36810,-0.43970,-9.09725,-6.18634,-0.22870
0.24135,1.46077,-0.45924,-0.56385,0.67844,-0.39171,1.22382,0.66787,1.02927,-0.84994,2.61042,0.23162,-0.18204,-0.79924,-0.37665,-0.43152,-7.20078,-3.42172,1.97837
0.23246,1.47235,-0.46430,-0.58124,0.71616,-0.38439,1.32966,0.81355,1.19766,-1.44779,3.07920,0.30114,-0.18058,-0.80074,-0.38934,-0.41787,3.29095,6.97767,10.06993
0.22302,1.48446,-0.46920,-0.60349,0.75303,-0.37635,1.51726,0.99352,1.43470,-1.98630,3.26446,0.77637,-0.17862,-0.80209,-0.40549,-0.40041,14.54885,13.97271,18.02024
0.21254,1.49795,-0.47352,-0.63862,0.80447,-0.36022,1.68422,1.13159,1.75357,-2.36143,3.10510,1.50360,-0.17365,-0.80330,-0.42374,-0.38078,12.90515,10.98645,21.05283
0.20176,1.51148,-0.47763,-0.67118,0.84490,-0.34392,1.61282,1.05572,1.93085,-2.29760,2.45025,1.50882,-0.16581,-0.80401,-0.43733,-0.36716,0.99146,-2.98967,14.89325
0.19105,1.52487,-0.48166,-0.69379,0.87212,-0.33056,1.44024,0.90750,1.98900,-1.68425,1.86237,1.10846,-0.15713,-0.80462,-0.44755,-0.35722,-11.10258,-13.66344,7.08342
0.18023,1.53840,-0.48532,-0.71275,0.89519,-0.31467,1.28287,0.80054,2.00171,-0.81930,0.95891,0.66198,-0.14887,-0.80532,-0.45654,-0.34766,-10.33767,-10.03653,0.82080
0.16988,1.55131,-0.48903,-0.71916,0.90263,-0.30400,1.27011,0.87038,2.00562,-0.16605,0.13740,0.35737,-0.14381,-0.80604,-0.46706,-0.33388,-3.32608,0.68190,0.52048
0.15993,1.56377,-0.49288,-0.71797,0.90119,-0.29817,1.29784,0.98924,1.98783,0.33091,-0.51181,0.53814,-0.14056,-0.80663,-0.47775,-0.31836,0.66969,10.34241,1.06335
0.15062,1.57528,-0.49660,-0.70632,0.88532,-0.28916,1.31986,1.17799,1.86079,0.82559,-1.40092,0.46950,-0.14130,-0.80749,-0.48670,-0.30188,-0.34855,11.02494,-6.10073
0.14170,1.58611,-0.50049,-0.69091,0.86253,-0.28245,1.33573,1.31271,1.72369,1.24677,-1.79758,0.55925,-0.14265,-0.80778,-0.49518,-0.28625,-1.48497,9.19074,-8.09451
0.13298,1.59621,-0.50381,-0.67595,0.83174,-0.26751,1.45824,1.53491,1.64276,0.67516,-1.90297,1.40936,-0.14606,-0.80730,-0.50564,-0.26694,5.34602,16.20626,-5.69077
0.12439,1.60628,-0.50673,-0.66896,0.80816,-0.24911,1.50914,1.58554,1.60254,0.33472,-1.98075,2.24119,-0.14713,-0.80613,-0.51572,-0.25009,5.62986,10.46620,-2.14988
0.11597,1.61577,-0.50884,-0.66560,0.78177,-0.21825,1.50080,1.47778,1.55131,-0.21920,-1.79897,2.71479,-0.14631,-0.80418,-0.52499,-0.23721,-0.55772,-4.61557,-5.28986
0.10735,1.62487,-0.50990,-0.66466,0.75367,-0.17612,1.47983,1.30500,1.49230,0.00461,-1.67226,2.80051,-0.14440,-0.80153,-0.53411,-0.22675,-0.91180,-10.86496,-3.46456
0.09850,1.63397,-0.51087,-0.66307,0.73415,-0.14438,1.48481,1.24230,1.45468,0.02876,-1.49967,2.57185,-0.14327,-0.79887,-0.54339,-0.21449,0.01291,-7.85865,-4.56401
0.08985,1.64276,-0.51145,-0.66003,0.71533,-0.11156,1.48997,1.23669,1.42506,0.03952,-0.91892,2.21618,-0.14279,-0.79625,-0.55235,-0.20127,0.72693,-2.18580,-3.20529
0.08096,1.65182,-0.51137,-0.66039,0.70408,-0.07608,1.52349,1.32839,1.45946,-0.39046,-0.29471,2.38280,-0.14256,-0.79372,-0.56175,-0.18471,1.89979,5.36250,1.99992
0.07147,1.66136,-0.51084,-0.66692,0.70194,-0.04499,1.57885,1.41544,1.51308,-0.76261,0.15428,2.98003,-0.14203,-0.79059,-0.57173,-0.16707,2.11474,5.93198,4.55633
0.06151,1.67124,-0.50883,-0.68011,0.70610,0.00391,1.72042,1.49120,1.54747,-1.24123,0.46530,4.15152,-0.14237,-0.78548,-0.58366,-0.14865,8.60964,7.99403,3.90350
0.05068,1.68159,-0.50543,-0.70443,0.71628,0.06364,1.90757,1.50563,1.58950,-2.29250,1.11823,4.47413,-0.14205,-0.77839,-0.59737,-0.13069,11.96960,1.86849,-0.38144
0.03856,1.69254,-0.50096,-0.74408,0.73305,0.12457,2.05922,1.51568,1.71983,-3.29901,1.52705,4.47104,-0.13938,-0.77094,-0.61149,-0.11090,13.71033,2.62138,6.92370
0.02543,1.70393,-0.49614,-0.79065,0.75313,0.17619,2.13101,1.47221,1.92156,-4.39873,1.84681,4.37514,-0.13302,-0.76393,-0.62491,-0.09061,8.91190,-2.37744,12.63621
0.00978,1.71600,-0.48970,-0.86839,0.77942,0.24225,2.13643,1.28882,2.22907,-5.16840,1.38524,4.05637,-0.12018,-0.75718,-0.63810,-0.07120,6.78859,-11.82704,15.82071
-0.00719,1.72818,-0.48249,-0.95173,0.80126,0.30497,1.96276,1.02669,2.55746,-5.20478,1.34026,3.85281,-0.10272,-0.75313,-0.64759,-0.05354,-4.91099,-18.96070,16.51999
-0.02447,1.73994,-0.47517,-1.02162,0.81104,0.35556,1.76202,0.80190,2.85361,-4.91135,-0.15208,3.35385,-0.08348,-0.75005,-0.65513,-0.03561,-12.07484,-20.77885,23.87712
-0.04198,1.75088,-0.46801,-1.07782,0.80444,0.39166,1.56704,0.50360,2.99203,-4.22621,-1.27407,2.88589,-0.06369,-0.74689,-0.66152,-0.02205,-9.23420,-22.26135,13.41884
-0.06040,1.76078,-0.46016,-1.13610,0.78074,0.42779,1.22423,-0.04469,3.02914,-3.01752,-2.08627,1.71866,-0.03903,-0.74635,-0.66417,-0.01742,-14.76266,-38.34078,0.40627
-0.07790,1.77003,-0.45300,-1.16471,0.75227,0.44500,0.99740,-0.39137,3.00160,-1.82213,-2.72450,0.92337,-0.01694,-0.74500,-0.66674,-0.01210,-14.15970,-36.35702,-3.24195
-0.09466,1.77777,-0.44584,-1.17325,0.70493,0.45959,0.84277,-0.56822,2.90729,0.17620,-3.13050,0.34971,0.00201,-0.74321,-0.66903,-0.00632,-8.88239,-18.14245,-7.51958
-0.10999,1.78485,-0.43885,-1.15536,0.65657,0.46748,0.81798,-0.42551,2.85210,2.14031,-3.76594,0.23757,0.01588,-0.73974,-0.67268,0.00623,-3.67755,6.86926,-3.10373
-0.12442,1.79170,-0.43206,-1.12723,0.61783,0.47065,0.83022,-0.24575,2.76581,3.25999,-4.08539,0.10026,0.02717,-0.73545,-0.67675,0.01961,-2.83931,13.83094,-5.67721
-0.13577,1.79556,-0.42526,-1.05351,0.53738,0.47395,0.87690,0.10350,2.57588,5.21800,-5.21859,0.23878,0.03148,-0.73036,-0.68141,0.03551,-0.36971,23.24232,-6.30303
-0.14602,1.79895,-0.41868,-0.97642,0.46628,0.47354,0.88795,0.19271,2.24291,5.95706,-5.18034,0.05756,0.03550,-0.72567,-0.68574,0.04360,-0.41560,7.87558,-22.40615
-0.15604,1.80242,-0.41197,-0.91630,0.41554,0.47556,0.93708,0.30176,2.05992,5.98594,-4.76760,0.20017,0.03997,-0.71994,-0.69079,0.05375,0.40792,8.59202,-23.24351
-0.16213,1.80315,-0.40492,-0.80425,0.33091,0.48296,1.07085,0.56437,1.90519,6.48147,-4.49738,0.58666,0.04051,-0.71193,-0.69782,0.06748,5.15837,16.70363,-7.32309
-0.16883,1.80477,-0.39787,-0.72758,0.28002,0.48841,1.14850,0.66410,1.80308,6.54977,-4.10073,0.41530,0.04357,-0.70426,-0.70415,0.07931,6.28920,12.89350,-7.48178
-0.17362,1.80559,-0.39107,-0.63805,0.22861,0.48815,1.17790,0.69667,1.64450,6.53251,-3.39967,-0.33677,0.04571,-0.69719,-0.70993,0.08853,2.77248,4.40780,-10.60396
-0.17708,1.80631,-0.38480,-0.54740,0.18765,0.47921,1.13923,0.72451,1.46855,6.54633,-2.70490,-0.98502,0.04658,-0.69142,-0.71444,0.09668,-2.33370,2.72782,-11.47417
-0.17873,1.80684,-0.37937,-0.44598,0.15245,0.45800,1.02939,0.68465,1.17639,6.37392,-1.90468,-1.53193,0.04535,-0.68763,-0.71765,0.10050,-7.22075,-1.06723,-16.56847
-0.18005,1.80779,-0.37429,-0.36169,0.13244,0.43558,0.92931,0.61797,0.88281,5.72283,-1.06603,-1.58625,0.04343,-0.68434,-0.72067,0.10214,-8.70582,-2.93347,-20.64620
-0.18097,1.80908,-0.36969,-0.29085,0.12305,0.41013,0.85705,0.51670,0.61553,4.47691,-0.16743,-2.09640,0.04165,-0.68113,-0.72386,0.10178,-5.28859,-6.52746,-20.78790
-0.18192,1.81085,-0.36572,-0.23801,0.12428,0.38002,0.77477,0.55018,0.56795,2.54016,0.61691,-2.41621,0.04065,-0.67797,-0.72618,0.10664,-5.89230,-1.56139,-10.60937
-0.18361,1.81297,-0.36241,-0.21041,0.13105,0.34588,0.68372,0.58327,0.71939,1.42680,0.63390,-2.57678,0.04319,-0.67504,-0.72735,0.11584,-5.85062,4.78674,11.42147
-0.18588,1.81541,-0.35954,-0.19938,0.14152,0.31290,0.55225,0.46499,0.81542,0.74770,0.88556,-2.66844,0.04824,-0.67391,-0.72710,0.12188,-8.93623,-5.53574,9.79913
-0.18844,1.81814,-0.35744,-0.19596,0.15406,0.27548,0.38672,0.15918,0.85377,0.13793,0.72088,-2.38565,0.05704,-0.67497,-0.72530,0.12286,-11.11845,-18.60711,4.17815
-0.19147,1.82080,-0.35599,-0.20115,0.16269,0.23522,0.20441,-0.33531,0.83132,-0.48127,0.36458,-2.48771,0.07012,-0.67804,-0.72217,0.11757,-10.06010,-31.77415,-1.75504
-0.19464,1.82322,-0.35435,-0.20739,0.16519,0.20775,0.09463,-0.67232,0.85047,-0.84194,0.27546,-2.13045,0.08314,-0.68020,-0.71936,0.11376,-9.02880,-31.51052,-1.87476
-0.19800,1.82557,-0.35308,-0.21520,0.16609,0.18089,0.00051,-0.98120,0.93449,-0.30934,0.00194,-1.83342,0.09874,-0.68247,-0.71575,0.11040,-5.53276,-22.64296,6.39052
-0.20111,1.82793,-0.35205,-0.21694,0.16685,0.15601,-0.06968,-1.27491,0.98181,-0.04140,0.14673,-1.30119,0.11506,-0.68473,-0.71188,0.10550,-4.36798,-20.24381,2.00100
-0.20407,1.83028,-0.35070,-0.21602,0.16729,0.14223,-0.09340,-1.47277,1.02090,0.11115,-0.05572,-1.03889,0.13092,-0.68606,-0.70848,0.10119,-1.71114,-16.27817,3.86666
-0.20709,1.83244,-0.34939,-0.21622,0.16434,0.13134,-0.07976,-1.61819,1.14103,-0.42427,-0.21403,-0.64498,0.14863,-0.68623,-0.70517,0.09864,0.61106,-14.32583,4.70056
-0.21032,1.83430,-0.34792,-0.21994,0.15731,0.12535,-0.02770,-1.67310,1.35275,-0.24553,-0.63606,-0.35325,0.16764,-0.68465,-0.70227,0.09985,2.01145,-3.01186,16.21169
-0.21365,1.83586,-0.34652,-0.22432,0.14669,0.11954,0.03398,-1.78206,1.55700,-0.21001,-0.67992,-0.31123,0.18885,-0.68231,-0.69908,0.10040,2.29065,-6.31494,13.18276
-0.21697,1.83748,-0.34516,-0.22760,0.13964,0.11446,0.06434,-1.90649,1.67183,-0.24703,-0.59145,-0.51574,0.20992,-0.68028,-0.69521,0.09918,3.36323,-8.70484,10.62726
-0.22042,1.83886,-0.34410,-0.23245,0.13013,0.10550,0.07858,-2.04551,1.89008,-0.39595,-0.61859,-0.58820,0.23435,-0.67746,-0.69006,0.09974,0.30295,-8.62537,12.70457
-0.22384,1.84005,-0.34318,-0.23547,0.11941,0.09619,0.09330,-2.21979,2.06920,0.19020,-0.93909,-0.67410,0.26019,-0.67417,-0.68408,0.09915,0.09461,-10.80363,14.56546
-0.22698,1.84099,-0.34248,-0.23323,0.10739,0.08544,0.09578,-2.38142,2.21771,0.14707,-1.05461,-1.05066,0.28672,-0.67052,-0.67718,0.09809,1.91690,-14.15145,9.84618
-0.22969,1.84136,-0.34236,-0.22393,0.08855,0.06749,0.10566,-2.60918,2.42463,1.13884,-1.25103,-1.24126,0.31701,-0.66562,-0.66865,0.09677,0.23396,-13.65772,14.02458
-0.23149,1.84185,-0.34244,-0.20132,0.07617,0.05018,0.13527,-2.86836,2.50355,2.26013,-0.61979,-1.10988,0.34709,-0.66040,-0.65951,0.09193,2.55460,-17.53069,8.74500
-0.23255,1.84259,-0.34254,-0.17202,0.07083,0.03681,0.15135,-3.02981,2.58624,2.64865,-0.36539,-1.28595,0.37655,-0.65441,-0.64978,0.08808,4.81118,-16.01832,4.07017
-0.23162,1.84300,-0.34311,-0.11608,0.06104,0.01898,0.15083,-3.18347,2.73477,4.25916,-0.82250,-1.10664,0.40787,-0.64719,-0.63837,0.08529,0.88153,-12.81689,8.39734
-0.22886,1.84293,-0.34335,-0.04166,0.04542,0.01040,0.03992,-3.01331,3.01453,6.02074,-1.28485,-0.69392,0.43604,-0.63927,-0.62664,0.09237,-9.89366,5.74142,16.56161
-0.23165,1.83457,-0.34707,0.03849,-0.04308,-0.03772,-0.07580,-2.88581,3.21834,7.88201,-1.22331,-0.31815,0.46353,-0.63128,-0.61373,0.09975,-15.65076,10.57224,16.28313
-0.24678,1.82488,-0.34913,0.04433,-0.04150,-0.03137,-0.25611,-2.78558,3.32315,9.00142,-0.38397,-0.82042,0.48937,-0.62489,-0.59882,0.10700,-10.95538,3.03598,5.93263
-0.26118,1.81466,-0.35233,0.04642,-0.03788,-0.02587,-0.49169,-2.85818,3.30247,10.11851,0.16432,-0.70956,0.51520,-0.62132,-0.57988,0.11077,-19.77023,-2.09300,-0.56940
-0.27237,1.80568,-0.35625,0.04469,-0.03404,-0.02488,-0.61242,-3.12232,3.17167,10.87391,0.37442,-1.18708,0.54231,-0.61797,-0.55901,0.10734,-6.07474,-19.36575,-9.71338
-0.28594,1.79399,-0.36538,0.04003,-0.02925,-0.02749,-0.66925,-3.67263,2.93371,12.14927,0.47413,-1.73688,0.57228,-0.61583,-0.53330,0.09404,6.34175,-33.02441,-13.82997
-0.29521,1.78393,-0.37592,0.03652,-0.02549,-0.02828,-0.78873,-4.18162,2.75152,14.12393,1.23747,-1.27055,0.60238,-0.61405,-0.50363,0.08028,6.49531,-40.02447,-12.30669
-0.30242,1.77415,-0.38941,0.03251,-0.02099,-0.02440,-1.04908,-4.55105,2.51768,17.52010,3.43778,1.98633,0.62865,-0.61567,-0.47022,0.06814,-8.83072,-32.42290,-15.42579
-0.30735,1.76422,-0.40591,0.02209,-0.01320,-0.01557,-1.35495,-4.52951,1.91830,21.48731,6.93225,7.64085,0.64168,-0.62503,-0.44082,0.05709,-11.73667,-3.08699,-41.52722
-0.30826,1.75755,-0.42155,0.00666,-0.00637,-0.01889,-1.16079,-4.55992,1.12904,24.22841,9.73132,11.49755,0.65032,-0.63291,-0.41877,0.03372,18.98326,-4.81141,-47.48200
-0.30564,1.75419,-0.43687,-0.01108,0.00006,-0.03058,-0.65759,-4.65436,0.22879,26.22762,12.60145,14.85921,0.65400,-0.64071,-0.40221,-0.00109,43.24741,-3.61672,-51.89979
-0.30057,1.75463,-0.44973,-0.02713,0.00550,-0.05142,0.11035,-5.00993,-0.59447,28.11711,14.57001,16.16709,0.65752,-0.64466,-0.38669,-0.05043,75.98586,-23.54151,-46.80280
-0.29038,1.76101,-0.46624,-0.04973,0.01762,-0.08294,1.09832,-5.75094,-1.88054,31.30509,16.96234,18.67706,0.65119,-0.65199,-0.36788,-0.12460,82.99316,-50.18803,-50.98422
-0.27512,1.77278,-0.47973,-0.07373,0.03814,-0.10455,1.64557,-6.26546,-3.44608,34.11875,16.23649,23.91586,0.62907,-0.66887,-0.34209,-0.19966,71.81333,-44.12164,-84.38203
-0.25596,1.78822,-0.48962,-0.09489,0.06435,-0.12325,2.14336,-6.53481,-5.06187,35.50566,11.80509,30.61447,0.59097,-0.68844,-0.31588,-0.27753,79.12083,-32.45267,-106.71250
-0.22483,1.81120,-0.49670,-0.11515,0.10529,-0.13773,2.60978,-6.42580,-7.09407,33.88993,0.59678,38.28085,0.52558,-0.71557,-0.28966,-0.35752,90.28120,-10.08347,-117.27700
0.16957,1.92594,-0.26907,4.59445,1.23243,2.54625,3.43527,-5.33238,-8.97407,27.12277,-16.56142,45.10668,0.43836,-0.74080,-0.28328,-0.42286,109.88980,43.96404,-91.82555
0.34817,1.96166,-0.13065,4.89415,0.93483,3.08466,4.33675,-4.48765,-9.81599,22.44864,-32.63628,44.97245,0.35616,-0.74929,-0.28217,-0.48177,122.30160,22.89112,-35.88897
0.48387,1.96564,-0.01521,5.12172,0.46745,3.62081,5.37338,-3.37558,-10.52713,15.80054,-46.20013,44.23705,0.25959,-0.75251,-0.29123,-0.53059,120.30800,26.17158,-21.07078
0.60525,1.92551,0.10627,5.31561,-0.52555,4.32372,7.05128,-1.89066,-11.43761,2.67009,-65.91889,35.66428,0.13375,-0.74559,-0.31944,-0.56936,136.27400,18.21120,-13.74933
0.68899,1.87077,0.19633,5.28277,-1.37764,4.67818,8.20990,-1.43001,-11.82288,-8.86206,-76.83804,23.57125,0.02060,-0.72002,-0.32963,-0.61032,115.30600,-26.90557,-21.77297
0.75539,1.78311,0.27995,5.05163,-2.52589,4.89307,9.02644,-0.60842,-11.99052,-24.34716,-86.53830,7.05497,-0.09460,-0.69198,-0.33936,-0.63012,86.16134,-6.12551,-2.50402
0.79751,1.66254,0.35116,4.51755,-3.94570,4.89125,9.91460,0.00538,-11.89460,-43.90169,-90.30632,-7.04913,-0.20781,-0.65192,-0.35103,-0.63921,69.30053,1.57126,14.61473
0.82135,1.53180,0.40981,3.81686,-5.20039,4.69440,11.38184,0.34399,-11.57846,-57.74072,-90.33131,-24.37015,-0.32336,-0.58981,-0.37338,-0.63887,53.01076,-56.23330,1.93991
0.81382,1.39872,0.44217,2.88799,-6.41359,4.27146,15.09039,2.17432,-9.87678,-73.39957,-82.97433,-44.37254,-0.46128,-0.50645,-0.45627,-0.56792,215.97180,-106.17580,49.03855
0.78666,1.24749,0.45968,1.73902,-7.46825,3.54281,21.14944,3.45594,-6.48759,-87.69850,-63.52131,-64.53700,-0.58938,-0.35434,-0.59368,-0.41787,416.24260,-247.77960,12.51640
0.73510,1.10590,0.44815,0.44953,-8.10018,2.49272,26.34975,1.66954,-2.37408,-93.35448,-23.71331,-79.82901,-0.63021,-0.13844,-0.72278,-0.24749,404.57260,-295.25300,-147.09770
0.66844,0.99469,0.41450,-0.78707,-8.05894,1.32523,26.97935,-3.05320,0.21258,-80.99428,23.93058,-74.21161,-0.57044,0.06055,-0.80458,-0.15353,174.77260,-224.48320,-310.26890
0.60079,0.91792,0.37953,-1.73895,-7.43470,0.41554,23.09097,-7.55816,0.52962,-58.42428,53.59875,-50.78747,-0.47024,0.18421,-0.84981,-0.15090,-105.33600,-65.39823,-404.77400
0.54085,0.86312,0.35609,-2.33368,-6.59312,-0.07225,15.41634,-7.91494,-2.42920,-36.34208,55.52745,-24.11265,-0.42751,0.20010,-0.84249,-0.25963,-327.46250,180.41670,-346.61300
0.48965,0.81823,0.34491,-2.63968,-5.78844,-0.23848,6.93318,-3.09984,-7.20038,-14.91055,62.20647,-7.88648,-0.48083,0.12839,-0.74518,-0.44389,-376.91880,690.40660,-265.43110
0.44002,0.78065,0.33679,-2.83788,-5.05060,-0.31543,2.56361,-0.17042,-8.09960,-8.49069,51.09722,-3.08693,-0.50586,0.07596,-0.67294,-0.53431,-190.03590,420.31210,-66.21266
0.39143,0.74404,0.32774,-2.97291,-4.47653,-0.39053,0.68963,1.67498,-8.30213,-6.90329,38.21529,-5.59629,-0.52739,0.05390,-0.60847,-0.59052,-78.54149,231.12030,4.31201
0.34278,0.70920,0.31592,-3.08702,-4.01100,-0.49956,0.32196,1.95227,-8.00309,-6.01105,32.32954,-8.93367,-0.53512,0.06374,-0.56730,-0.62270,-16.81941,60.97912,18.69052
0.29424,0.67819,0.30047,-3.17064,-3.59026,-0.64674,0.58636,1.39744,-7.41831,-3.71968,29.62366,-11.50673,-0.53492,0.09113,-0.54391,-0.64010,1.35708,-34.97280,33.95553
0.24763,0.64814,0.28341,-3.20314,-3.25966,-0.78300,0.92573,0.65417,-6.78309,-0.48642,26.42439,-11.23649,-0.53083,0.12378,-0.52870,-0.65067,2.44600,-67.21204,44.61112
0.20425,0.62710,0.26246,-3.17711,-2.85666,-0.95256,1.23984,0.12661,-6.01424,2.48829,24.78959,-11.04282,-0.52897,0.15266,-0.51833,-0.65438,0.29523,-60.30237,53.55495
0.16585,0.61030,0.24116,-3.06794,-2.46457,-1.09507,1.51433,1.09641,-5.95480,9.48840,23.70731,-7.93218,-0.54943,0.16602,-0.47449,-0.66739,34.43369,40.29535,6.09921
0.12975,0.58960,0.22228,-2.95201,-2.23652,-1.15899,1.61338,1.90379,-5.75086,13.95440,21.87015,-5.34856,-0.56880,0.17253,-0.43095,-0.67895,46.38631,70.39416,8.75499
0.10376,0.57950,0.20138,-2.69287,-1.88604,-1.24077,1.62562,2.84396,-4.68514,15.58634,18.01871,-4.04970,-0.59552,0.15694,-0.39923,-0.67922,26.26744,49.92774,59.02428
0.07657,0.56788,0.18047,-2.50960,-1.63409,-1.30639,1.67343,2.76854,-3.61943,11.96677,18.04834,-5.17071,-0.61145,0.15259,-0.38543,-0.67401,15.44593,-2.15992,79.13708
0.04743,0.55572,0.15932,-2.40883,-1.45788,-1.35738,1.83360,2.40174,-3.05533,9.16854,17.73827,-5.26434,-0.62395,0.15947,-0.37207,-0.66845,13.55423,-33.58154,62.25325
0.02135,0.55472,0.13593,-2.28266,-1.13517,-1.43324,2.29917,1.61791,-2.66174,4.85735,18.92850,-3.03649,-0.63589,0.18087,-0.36611,-0.65490,18.02792,-57.49172,22.77196
-0.00537,0.55443,0.11530,-2.19153,-0.86726,-1.44464,2.74704,1.69437,-3.07185,6.88196,19.40960,1.45263,-0.65325,0.20211,-0.33233,-0.64960,29.42095,-9.90582,-27.94098
-0.02935,0.55585,0.09758,-2.07713,-0.63854,-1.40371,3.07449,2.18634,-3.38304,11.53190,18.78050,5.24958,-0.67401,0.21445,-0.28947,-0.64493,27.53746,30.45362,-32.79059
-0.04666,0.56161,0.08451,-1.88148,-0.39347,-1.29371,3.05711,2.86941,-3.47945,16.42049,15.03097,10.81787,-0.69288,0.21485,-0.24388,-0.64365,28.90175,47.83025,-7.12751
-0.05675,0.56869,0.07754,-1.60609,-0.18142,-1.10456,2.19035,2.80904,-2.87144,20.07755,9.90206,13.17134,-0.69465,0.20543,-0.22696,-0.65096,-39.89252,17.80235,30.14150
-0.06638,0.57277,0.07146,-1.38918,-0.06927,-0.94615,1.23434,2.16578,-1.95617,18.08698,8.71823,13.26866,-0.68842,0.19652,-0.23371,-0.65790,-72.05013,-45.41133,82.50876
-0.07074,0.57904,0.06888,-1.13885,0.05162,-0.76935,0.42634,1.85221,-1.37413,16.70675,9.24667,12.22118,-0.68061,0.18559,-0.23602,-0.66829,-63.45750,-34.75268,62.24352
-0.07025,0.58677,0.06892,-0.86125,0.16981,-0.58707,-0.14235,2.01776,-1.14752,17.09642,6.30482,10.65624,-0.67534,0.17164,-0.22478,-0.68112,-35.56013,12.52319,20.09208
-0.06989,0.59277,0.06778,-0.65138,0.23132,-0.46801,-0.41743,2.23438,-1.06182,18.24031,4.48108,9.22643,-0.67290,0.15903,-0.20879,-0.69161,-23.76558,18.05573,10.56136
-0.06327,0.59866,0.06828,-0.38934,0.27513,-0.35138,-0.73459,2.35803,-0.72466,19.85736,1.50903,7.53560,-0.66915,0.14094,-0.19935,-0.70188,-18.34268,15.51299,17.99303
-0.05067,0.60267,0.06962,-0.08435,0.27714,-0.24650,-1.04315,2.35507,0.07410,18.77327,-0.99904,5.41169,-0.66576,0.11383,-0.20303,-0.70894,-13.91833,3.20698,51.44270
-0.03751,0.60532,0.06973,0.16193,0.25625,-0.18618,-1.13649,2.36275,0.75059,16.54162,-1.32613,3.15228,-0.66485,0.08630,-0.20707,-0.71249,-3.49948,2.91112,52.59445
-0.02289,0.60778,0.06901,0.37388,0.23726,-0.15455,-1.05100,2.44415,1.13828,13.59005,-0.83671,1.45625,-0.66650,0.06066,-0.20646,-0.71377,8.36325,7.36940,34.28520
-0.00756,0.61040,0.06759,0.54734,0.22579,-0.14220,-0.90140,2.49874,1.24682,11.46104,-0.40677,0.24167,-0.66886,0.03934,-0.20182,-0.71438,11.67529,7.65924,9.56060
0.00759,0.61252,0.06451,0.69207,0.22046,-0.14858,-0.77047,2.44981,1.26465,10.25963,-0.31845,-0.78032,-0.67058,0.02114,-0.19759,-0.71473,9.58306,-0.05568,-0.69996
0.02094,0.61259,0.05858,0.81064,0.21312,-0.17364,-0.67490,2.24354,1.37032,9.32901,-0.28937,-1.42281,-0.67112,0.00425,-0.19881,-0.71418,9.08612,-11.14608,4.80056
0.03520,0.61306,0.05278,0.90494,0.20975,-0.20138,-0.59171,2.03868,1.50865,8.73788,0.16147,-1.68481,-0.67150,-0.01258,-0.20230,-0.71275,10.11447,-16.60703,10.36975
0.05341,0.61518,0.04766,1.01665,0.21388,-0.22769,-0.52788,1.83182,1.71243,8.03057,0.54543,-1.38208,-0.67152,-0.03001,-0.20881,-0.71032,8.87216,-15.42112,13.88150
0.07489,0.61914,0.04305,1.13947,0.23089,-0.25084,-0.47940,1.79007,1.85685,7.02318,1.72871,-1.32597,-0.67188,-0.04949,-0.21259,-0.70777,5.27144,-4.95697,11.18697
0.09577,0.62388,0.03824,1.22363,0.25675,-0.27240,-0.45858,1.94926,1.82318,6.54310,2.62233,-1.95395,-0.67270,-0.07025,-0.20930,-0.70621,1.52561,8.10667,1.02573
0.11840,0.62953,0.03252,1.31387,0.29019,-0.30274,-0.44161,2.19973,1.75194,6.19969,2.15987,-2.26391,-0.67401,-0.09281,-0.20210,-0.70445,-2.00144,18.26508,-7.70421
0.14188,0.63569,0.02605,1.39490,0.32366,-0.33721,-0.42407,2.39719,1.74114,5.44715,2.79493,-2.68709,-0.67503,-0.11629,-0.19566,-0.70181,-0.53174,14.68872,-1.90670
0.16635,0.64343,0.01831,1.47516,0.37628,-0.38511,-0.42201,2.60181,1.73112,4.43870,3.79988,-3.29511,-0.67566,-0.14082,-0.18802,-0.69878,-1.74793,13.48138,-0.38551
0.19004,0.65148,0.01038,1.52496,0.42378,-0.42656,-0.44351,2.71711,1.73823,4.02595,4.03588,-3.52685,-0.67519,-0.16480,-0.18139,-0.69574,-1.91852,10.92641,-1.16028
0.21467,0.66084,0.00132,1.57707,0.48112,-0.47577,-0.45772,2.80957,1.83859,3.39557,4.27158,-3.50403,-0.67399,-0.19070,-0.17653,-0.69152,-1.05467,6.87055,6.02301
0.23984,0.67250,-0.00913,1.62842,0.56627,-0.53888,-0.52690,3.00605,1.94426,2.07165,5.38713,-3.36973,-0.67151,-0.21975,-0.16953,-0.68705,-2.28608,9.89780,6.82340
0.26417,0.68428,-0.01915,1.65158,0.63422,-0.58102,-0.65208,3.19860,1.95630,1.40116,5.86730,-3.34018,-0.66745,-0.24845,-0.15971,-0.68358,-9.61014,14.51367,2.88780
0.28842,0.69791,-0.03006,1.66688,0.71601,-0.62699,-0.85570,3.40050,1.97956,0.52431,5.93840,-3.20971,-0.66057,-0.27893,-0.14822,-0.68109,-15.59660,13.38802,3.82964
