posX, posY, posZ, velX, velY, velZ, angVelX, angVelY, angVelZ, accX, accY, accZ, rotX, rotY, rotZ, rotW, angAccX, angAccY, angAccZ
0.14645,1.05000,-0.47846,-0.56922,-0.02046,-0.41020,-0.61134,1.64542,0.19970,0.39648,1.10219,0.57590,-0.23742,-0.87139,0.10293,-0.41680,-6.72402,4.35626,5.31492
0.13898,1.05053,-0.48358,-0.56240,-0.00627,-0.40062,-0.85855,1.63227,0.32487,0.50758,0.70294,0.70021,-0.22704,-0.87600,0.11313,-0.41021,-14.87055,0.14339,9.45437
0.13168,1.05088,-0.48861,-0.55297,0.00082,-0.39145,-0.97063,1.60331,0.37069,0.89075,0.33477,0.64820,-0.21879,-0.88005,0.12201,-0.40344,-12.29541,-2.11273,7.75580
0.12490,1.05131,-0.49333,-0.53678,0.00735,-0.37941,-0.98192,1.58055,0.34392,1.25090,0.49241,0.75689,-0.21296,-0.88373,0.12988,-0.39598,-4.07462,-2.01677,-0.49600
0.11827,1.05195,-0.49785,-0.52237,0.01597,-0.36692,-0.90609,1.55280,0.29990,1.10379,0.81667,1.09453,-0.20886,-0.88732,0.13575,-0.38809,4.06545,-1.93487,-3.45830
0.11202,1.05333,-0.50178,-0.50478,0.03527,-0.34747,-0.67304,1.50242,0.23198,1.11915,1.54692,1.06461,-0.20786,-0.89092,0.13739,-0.37971,11.88301,-3.38610,-5.32064
0.10584,1.05552,-0.50561,-0.48985,0.06388,-0.33074,-0.34733,1.46524,0.19412,1.08699,2.47759,1.14329,-0.20820,-0.89513,0.13504,-0.37034,22.12731,-2.35099,-5.88729
0.09967,1.05830,-0.50933,-0.47897,0.09546,-0.31624,-0.07653,1.41431,0.21578,0.87581,2.83960,1.32651,-0.20759,-0.89944,0.13113,-0.36156,24.32263,-3.03642,-1.89916
0.09376,1.06241,-0.51251,-0.46522,0.14006,-0.29736,0.19557,1.32881,0.25809,0.96996,2.87065,1.17911,-0.20714,-0.90356,0.12485,-0.35367,18.20671,-4.97913,0.84255
0.08795,1.06643,-0.51582,-0.45350,0.17321,-0.28468,0.32267,1.24745,0.30202,0.99146,2.75255,1.15408,-0.20544,-0.90722,0.12048,-0.34675,14.04189,-5.84835,1.89546
0.08259,1.07127,-0.51883,-0.43716,0.21290,-0.26932,0.38256,1.13028,0.35346,1.06020,2.36567,0.90729,-0.20302,-0.91022,0.11655,-0.34161,4.48353,-7.63868,2.97282
0.07725,1.07606,-0.52189,-0.42394,0.24142,-0.25932,0.43539,1.05361,0.36195,1.10373,2.35366,0.70497,-0.20140,-0.91314,0.11291,-0.33597,3.52738,-6.93391,1.15562
0.07234,1.08190,-0.52467,-0.40650,0.28046,-0.24764,0.55993,0.97360,0.35211,1.06021,2.57363,0.50565,-0.20115,-0.91596,0.10705,-0.33031,6.77802,-5.42110,-0.90104
0.06733,1.08787,-0.52767,-0.39529,0.31383,-0.24104,0.73563,0.95128,0.34326,0.80858,2.92795,0.35778,-0.20160,-0.91932,0.09925,-0.32306,11.78008,-2.91373,-1.73024
0.06236,1.09500,-0.53056,-0.38670,0.35775,-0.23432,1.02119,0.95563,0.32734,0.46416,3.21185,0.40597,-0.20376,-0.92312,0.08742,-0.31414,18.62515,0.60213,-2.00419
0.05734,1.10313,-0.53327,-0.38069,0.40848,-0.22596,1.32753,0.95386,0.31939,0.32869,3.13436,0.64271,-0.20656,-0.92688,0.07314,-0.30474,19.94202,0.86724,-1.80321
0.05228,1.11096,-0.53596,-0.37683,0.44353,-0.21872,1.48352,0.93448,0.33019,0.35267,2.83606,0.85812,-0.20810,-0.93016,0.06069,-0.29635,16.19773,-0.86447,-0.78650
0.04735,1.11935,-0.53834,-0.37154,0.47774,-0.20889,1.49774,0.83669,0.38931,0.48508,2.21836,0.98251,-0.20744,-0.93261,0.05008,-0.29104,5.48592,-5.55429,1.82999
0.04250,1.12727,-0.54074,-0.36630,0.49647,-0.20174,1.41709,0.73814,0.44500,0.56920,1.65913,0.78861,-0.20552,-0.93464,0.04191,-0.28715,-3.94278,-9.47222,5.20865
0.03809,1.13583,-0.54280,-0.35541,0.52060,-0.19124,1.29841,0.58588,0.46950,0.45675,1.02291,0.31832,-0.20366,-0.93572,0.03512,-0.28586,-6.89736,-9.77085,1.95840
0.03357,1.14401,-0.54513,-0.34876,0.53434,-0.18659,1.29816,0.53287,0.41203,0.36756,0.83185,0.13414,-0.20474,-0.93701,0.02681,-0.28174,-2.03905,-4.20073,-3.87901
0.02890,1.15210,-0.54753,-0.34603,0.54351,-0.18423,1.36128,0.52080,0.34063,0.02869,0.59779,0.02138,-0.20714,-0.93833,0.01707,-0.27630,3.65766,-1.49391,-5.75833
0.02402,1.16018,-0.54997,-0.34755,0.55068,-0.18285,1.51613,0.56100,0.20431,-0.25047,0.18261,0.02747,-0.21270,-0.93947,0.00530,-0.26857,8.64428,2.98744,-8.01289
0.01894,1.16781,-0.55246,-0.35211,0.54882,-0.18263,1.58765,0.60046,0.07902,-0.26518,-0.38589,0.12351,-0.21831,-0.94036,-0.00496,-0.26085,6.87509,3.73727,-8.36807
0.01391,1.17517,-0.55506,-0.35463,0.54363,-0.18388,1.55115,0.60434,0.01823,-0.24003,-0.54094,-0.08408,-0.22212,-0.94111,-0.01300,-0.25455,-1.01491,1.97957,-6.17097
0.00857,1.18215,-0.55785,-0.36176,0.53341,-0.18798,1.40411,0.60779,-0.01421,-0.51654,-0.58656,-0.12491,-0.22461,-0.94192,-0.01779,-0.24902,-7.16823,0.49621,-2.57781
0.00298,1.18910,-0.56058,-0.37186,0.52429,-0.19038,1.20417,0.58990,0.02822,-0.66679,-0.45282,-0.08956,-0.22455,-0.94302,-0.02095,-0.24465,-13.25250,-1.11596,2.16716
-0.00281,1.19613,-0.56315,-0.38291,0.51888,-0.18930,1.07871,0.57538,0.08493,-0.92206,-0.36807,0.13758,-0.22403,-0.94421,-0.02505,-0.24011,-10.20963,-1.42621,4.44524
-0.00878,1.20304,-0.56554,-0.39436,0.51353,-0.18508,1.03928,0.57178,0.11715,-1.03862,-0.59704,0.33397,-0.22417,-0.94530,-0.03055,-0.23498,-5.19148,-0.72055,3.57779
-0.01501,1.20957,-0.56769,-0.40732,0.50292,-0.17808,1.07555,0.59459,0.07836,-0.79568,-0.78232,0.33005,-0.22646,-0.94605,-0.03720,-0.22873,0.42877,1.14658,-0.73130
-0.02123,1.21593,-0.56980,-0.41720,0.49168,-0.17171,1.15108,0.63411,0.00140,-0.77721,-0.86959,0.48050,-0.23043,-0.94648,-0.04475,-0.22154,6.13446,2.80014,-5.37371
-0.02761,1.22213,-0.57199,-0.42770,0.48113,-0.16781,1.15874,0.64720,-0.01994,-0.88243,-0.81430,0.36503,-0.23307,-0.94699,-0.05132,-0.21509,2.69235,2.22126,-3.93913
-0.03433,1.22811,-0.57428,-0.44141,0.46965,-0.16630,1.08173,0.66449,0.00127,-0.96979,-0.72122,0.09684,-0.23408,-0.94786,-0.05576,-0.20896,-3.88337,0.89727,0.86900
-0.04128,1.23408,-0.57668,-0.45538,0.46046,-0.16715,0.95543,0.65624,0.07780,-1.00625,-0.58357,-0.06027,-0.23290,-0.94908,-0.05882,-0.20384,-8.62042,-0.35291,4.82018
-0.04840,1.24003,-0.57904,-0.46946,0.45334,-0.16787,0.88583,0.67588,0.10293,-0.80620,-0.32859,-0.13563,-0.23278,-0.95016,-0.06215,-0.19786,-6.77063,0.63564,3.30477
-0.05523,1.24615,-0.58128,-0.47488,0.45048,-0.16631,0.94617,0.68240,0.02279,-0.43663,-0.24514,0.02011,-0.23618,-0.95023,-0.06815,-0.19142,1.93488,1.04975,-3.14845
-0.06195,1.25263,-0.58337,-0.47709,0.45479,-0.16239,1.25038,0.76538,-0.24625,-0.22366,0.70754,0.13626,-0.24694,-0.94859,-0.07942,-0.18138,15.50254,4.98385,-15.97341
-0.06880,1.25960,-0.58530,-0.48133,0.46609,-0.15663,1.56529,0.84112,-0.45135,-0.54628,1.22863,0.57382,-0.25823,-0.94640,-0.09307,-0.17023,25.33430,8.44724,-19.35965
-0.07626,1.26735,-0.58706,-0.49446,0.48754,-0.14959,1.88151,0.88816,-0.60810,-1.22125,1.89675,0.56614,-0.26993,-0.94343,-0.10906,-0.15868,23.43066,4.96857,-13.93884
-0.08465,1.27589,-0.58886,-0.52016,0.51704,-0.14507,2.13432,0.97476,-0.63995,-2.22833,2.37319,0.22097,-0.27911,-0.94086,-0.12541,-0.14542,19.31653,4.51740,-5.77797
-0.09446,1.28542,-0.59082,-0.56387,0.55643,-0.14484,2.28335,1.09846,-0.55856,-2.91320,2.75274,-0.04285,-0.28509,-0.93911,-0.14057,-0.13054,12.54676,6.68539,3.93473
-0.10445,1.29528,-0.59311,-0.60009,0.59225,-0.14990,2.23695,1.17363,-0.40800,-2.97450,3.22968,-0.33526,-0.28770,-0.93834,-0.15172,-0.11714,2.28221,6.01738,10.09225
-0.11589,1.30666,-0.59600,-0.65265,0.64674,-0.16295,1.93564,1.12870,-0.06031,-3.32083,3.73379,-0.72828,-0.28238,-0.94015,-0.15730,-0.10784,-15.49878,-2.67164,21.58743
-0.12781,1.31856,-0.59908,-0.70167,0.69972,-0.17517,1.63099,1.14157,0.16952,-3.76670,4.27721,-1.09207,-0.27781,-0.94211,-0.16011,-0.09807,-24.68347,-4.07604,23.49653
-0.13986,1.33156,-0.60201,-0.74047,0.75757,-0.18191,1.62867,1.31292,0.32663,-3.23485,5.33163,-0.68025,-0.27519,-0.94310,-0.16776,-0.08186,-6.72535,6.94160,14.47754
-0.15312,1.34692,-0.60431,-0.79031,0.84178,-0.17569,1.89590,1.61247,0.36670,-3.39846,5.34196,0.96282,-0.27616,-0.94206,-0.18105,-0.05898,13.76129,17.79334,5.97834
-0.16663,1.36261,-0.60545,-0.83322,0.91395,-0.15059,2.24687,1.85182,0.32619,-2.80257,5.15131,2.44116,-0.27954,-0.93885,-0.19800,-0.03487,24.90543,20.71034,-3.64865
-0.17988,1.37818,-0.60614,-0.86037,0.96374,-0.12546,2.43449,1.94593,0.32386,-2.47030,4.92828,2.97515,-0.28135,-0.93543,-0.21361,-0.01361,22.35275,14.02110,-2.73042
-0.19431,1.39638,-0.60469,-0.90069,1.04603,-0.07023,2.64637,2.01295,0.36390,-1.83486,4.35604,3.50768,-0.28186,-0.93116,-0.23114,0.00833,12.35062,4.54357,1.21144
-0.20819,1.41408,-0.60290,-0.92319,1.10285,-0.02045,2.75904,2.00282,0.41646,-1.38105,3.79848,3.82938,-0.28111,-0.92679,-0.24749,0.02811,8.83708,-0.43637,2.36687
-0.22209,1.43210,-0.60015,-0.94020,1.15026,0.03346,2.82538,1.92515,0.47754,-0.92261,3.00393,4.06422,-0.27918,-0.92216,-0.26376,0.04599,6.21332,-3.82716,2.44602
-0.23582,1.44993,-0.59670,-0.95070,1.18596,0.08696,2.83659,1.80073,0.53685,-0.53089,2.11620,3.75805,-0.27627,-0.91752,-0.27931,0.06174,2.49223,-9.68629,3.15327
-0.24931,1.46755,-0.59275,-0.95407,1.20944,0.13704,2.85966,1.73068,0.51137,-0.16116,1.31418,3.47202,-0.27523,-0.91172,-0.29490,0.07778,0.95754,-6.89599,-1.17688
-0.26238,1.48505,-0.58801,-0.94971,1.22364,0.18783,2.96149,1.79814,0.36359,0.36453,0.83122,3.68575,-0.27822,-0.90341,-0.31157,0.09678,3.75185,3.51839,-8.01915
-0.27503,1.50221,-0.58184,-0.93823,1.22981,0.25180,3.14178,1.93894,0.14148,1.02697,-0.00443,4.19585,-0.28440,-0.89228,-0.33014,0.11811,10.38302,12.52035,-13.62777
-0.28731,1.51899,-0.57531,-0.92314,1.22736,0.30723,3.23867,2.00526,0.00687,1.29961,-0.34573,3.89907,-0.28912,-0.88115,-0.34775,0.13805,6.89850,7.19206,-10.89226
-0.29915,1.53553,-0.56824,-0.90458,1.21904,0.35685,3.23796,2.04720,-0.03185,1.61305,-0.93721,3.39982,-0.29212,-0.87057,-0.36322,0.15763,2.21544,5.18262,-4.12502
-0.31046,1.55156,-0.56098,-0.88136,1.20405,0.39710,3.08478,2.01667,-0.00541,1.95833,-1.41328,2.64982,-0.29344,-0.86181,-0.37502,0.17477,-7.61434,-1.56799,2.38762
-0.32111,1.56711,-0.55356,-0.85214,1.18438,0.43037,2.86666,2.00083,0.03329,2.19129,-1.48298,2.32106,-0.29461,-0.85394,-0.38392,0.19132,-15.67501,-2.88225,4.50282
-0.33145,1.58237,-0.54599,-0.82560,1.16523,0.45935,2.71669,2.03249,0.07270,2.19107,-1.57353,2.51594,-0.29583,-0.84541,-0.39250,0.20909,-13.75984,0.60365,4.18808
-0.34090,1.59636,-0.53794,-0.78862,1.13744,0.50162,2.58704,2.06201,0.16388,2.54612,-1.59462,3.10199,-0.29559,-0.83714,-0.40014,0.22742,-8.69067,1.57916,6.45000
-0.35021,1.61053,-0.52921,-0.75821,1.11580,0.54213,2.57382,2.03952,0.25707,2.71084,-1.72339,3.94624,-0.29372,-0.82788,-0.40997,0.24550,-2.75983,-0.83080,7.27605
-0.35870,1.62411,-0.51860,-0.72170,1.08724,0.60079,2.60770,1.87161,0.41569,2.98265,-2.23806,4.61590,-0.28757,-0.81941,-0.42156,0.26108,3.76066,-9.73429,8.78591
-0.36667,1.63681,-0.50707,-0.68388,1.05135,0.66316,2.61281,1.54146,0.59373,2.83985,-2.90841,4.59360,-0.27768,-0.81280,-0.43388,0.27202,2.65428,-23.01920,8.81783
-0.37411,1.64855,-0.49483,-0.64546,1.00698,0.72215,2.60767,1.17093,0.75722,2.93845,-3.40211,4.14408,-0.26558,-0.80714,-0.44661,0.28024,2.23540,-27.95652,7.71097
-0.38027,1.65917,-0.48138,-0.59614,0.95033,0.78398,2.61266,0.80599,0.85212,3.16244,-3.84795,3.67411,-0.25308,-0.80146,-0.46011,0.28620,1.95307,-24.89157,3.36927
-0.38626,1.66961,-0.46827,-0.55615,0.90294,0.82356,2.61375,0.57858,0.86941,3.38723,-4.14115,3.03770,-0.24241,-0.79471,-0.47329,0.29270,1.73929,-20.65285,-0.70177
-0.39136,1.67922,-0.45495,-0.51212,0.85442,0.85632,2.61990,0.45779,0.82122,3.63993,-4.01660,2.54667,-0.23369,-0.78681,-0.48645,0.29949,-0.11949,-14.46047,-4.11356
-0.39424,1.68673,-0.44059,-0.44218,0.78015,0.89613,2.68090,0.45205,0.69613,3.88354,-4.20370,1.85482,-0.22769,-0.77640,-0.50078,0.30755,3.28344,0.96746,-7.77684
-0.39702,1.69431,-0.42665,-0.38563,0.72200,0.91940,2.74569,0.52703,0.59445,4.00271,-4.25657,1.52847,-0.22250,-0.76474,-0.51470,0.31741,3.90401,4.78102,-6.27767
-0.39864,1.70032,-0.41243,-0.32151,0.64992,0.94283,2.86067,0.66493,0.46647,3.94313,-4.82021,1.29638,-0.21891,-0.75072,-0.52961,0.32865,6.34133,11.06315,-6.82421
-0.39995,1.70563,-0.39838,-0.26814,0.58169,0.95639,2.90406,0.71168,0.37405,3.98363,-5.14871,0.58950,-0.21463,-0.73748,-0.54376,0.33821,5.10683,6.59456,-5.98624
-0.40089,1.71038,-0.38470,-0.22208,0.52162,0.96000,2.88104,0.64717,0.26967,4.04501,-5.16926,-0.07881,-0.21015,-0.72546,-0.55751,0.34457,-0.72195,0.23946,-7.90690
-0.40031,1.71326,-0.37182,-0.16036,0.44396,0.94874,2.72563,0.39443,0.11672,4.10223,-4.80833,-1.31324,-0.20547,-0.71686,-0.57027,0.34452,-8.14934,-13.24515,-11.09219
-0.39936,1.71598,-0.35982,-0.10458,0.38215,0.92599,2.52702,0.18845,-0.07119,3.67555,-4.22628,-1.93932,-0.20264,-0.70917,-0.58198,0.34250,-14.81386,-15.72575,-15.34965
-0.39828,1.71864,-0.34827,-0.06123,0.33540,0.90122,2.38517,0.15702,-0.21529,3.13632,-3.53873,-2.25840,-0.20164,-0.70010,-0.59300,0.34286,-13.50972,-6.35620,-14.48456
-0.39648,1.72064,-0.33758,-0.01634,0.28952,0.86900,2.27431,0.34560,-0.33072,2.64432,-3.04076,-2.30490,-0.20422,-0.68889,-0.60249,0.34747,-9.27963,11.16334,-7.73217
-0.39508,1.72237,-0.32710,0.01684,0.24870,0.83968,2.24817,0.64439,-0.36990,2.08441,-2.64333,-2.06954,-0.20775,-0.67519,-0.61154,0.35632,-3.45681,21.00675,-1.54695
-0.39355,1.72393,-0.31693,0.04408,0.21493,0.81234,2.26317,0.94228,-0.36973,1.99188,-2.27725,-1.96613,-0.21146,-0.66003,-0.62034,0.36719,1.87108,22.39091,2.87714
-0.39182,1.72517,-0.30710,0.06566,0.18437,0.78642,2.25403,1.02057,-0.39953,1.86546,-2.24064,-1.89400,-0.21351,-0.64626,-0.62976,0.37439,1.41129,13.23795,1.44731
-0.39005,1.72643,-0.29748,0.07997,0.16246,0.76397,2.16202,0.82809,-0.50276,1.30545,-1.68529,-1.89131,-0.21362,-0.63619,-0.63992,0.37435,-5.85646,-8.66070,-7.41044
-0.38842,1.72753,-0.28838,0.08828,0.14343,0.73860,2.02074,0.48969,-0.63948,0.31700,-1.19421,-1.82967,-0.21210,-0.62919,-0.65050,0.36876,-10.82156,-20.73956,-12.25948
-0.38728,1.72877,-0.27962,0.08674,0.13106,0.71365,1.88431,0.14446,-0.77640,-0.66356,-0.47550,-1.74774,-0.20976,-0.62341,-0.66132,0.36058,-12.25370,-24.87913,-13.13458
-0.38694,1.73047,-0.27142,0.07177,0.12932,0.68445,1.88110,0.09179,-0.76849,-2.11831,0.58635,-1.90525,-0.20791,-0.61404,-0.67142,0.35906,-3.28016,-9.56019,-4.79531
-0.38743,1.73300,-0.26342,0.04619,0.14209,0.65847,2.03380,0.48889,-0.42518,-2.56120,1.62641,-1.71309,-0.20624,-0.59884,-0.67791,0.37321,9.40330,20.49383,20.91975
-0.38878,1.73649,-0.25570,0.01233,0.16788,0.63374,2.11405,0.75700,0.02152,-2.03522,1.73931,-1.92222,-0.20095,-0.58539,-0.68165,0.39024,11.64768,22.58249,36.43658
-0.39064,1.74033,-0.24823,-0.02210,0.19318,0.61109,2.03975,0.66932,0.35570,-1.92949,1.48016,-1.35762,-0.19176,-0.57771,-0.68464,0.40092,-2.96759,-3.43326,26.19835
-0.39248,1.74394,-0.24041,-0.04772,0.20856,0.59961,1.90983,0.33007,0.50966,-1.46216,0.85069,-0.70772,-0.17979,-0.57403,-0.68901,0.40427,-7.09951,-21.57442,16.01267
-0.39469,1.74720,-0.23219,-0.07300,0.21401,0.59793,1.75694,-0.28794,0.57223,-1.14518,-0.08406,0.67701,-0.16220,-0.57532,-0.69501,0.39958,-10.91891,-41.10726,-0.22025
-0.39616,1.74969,-0.22306,-0.08049,0.20551,0.61174,1.77945,-0.78917,0.49775,0.13594,-0.68354,1.37713,-0.14461,-0.57299,-0.70454,0.39293,0.78744,-34.69488,-5.21454
-0.39703,1.75201,-0.21354,-0.07613,0.19656,0.62850,1.85058,-1.12812,0.41523,0.31518,-0.67767,1.53258,-0.12749,-0.56877,-0.71483,0.38636,5.68192,-33.85912,-14.66118
-0.39682,1.75395,-0.20324,-0.05462,0.18334,0.65450,2.02463,-1.33450,0.33192,1.80636,-0.94804,1.80084,-0.11023,-0.56105,-0.72665,0.38085,11.15446,-13.94738,-4.46343
-0.39574,1.75543,-0.19273,-0.02335,0.16506,0.67804,2.28950,-1.25284,0.31978,2.13154,-1.38964,1.70513,-0.09557,-0.54792,-0.73866,0.38082,16.28889,-0.27700,-3.41516
-0.39435,1.75677,-0.18230,0.00471,0.14935,0.69419,2.53741,-1.03032,0.38703,2.78935,-1.55989,1.66852,-0.08249,-0.53172,-0.74961,0.38543,22.00033,15.73198,8.62917
-0.39107,1.75671,-0.17105,0.05695,0.11416,0.71958,2.96743,-0.64483,0.54099,2.92335,-2.49041,0.92883,-0.06952,-0.50737,-0.76189,0.39656,23.84005,22.00961,14.31306
-0.38821,1.75630,-0.16041,0.09164,0.08052,0.73018,3.13424,-0.62015,0.49934,2.78002,-2.59903,0.52441,-0.05524,-0.48920,-0.77378,0.39862,15.33711,8.50573,4.87593
-0.38551,1.75568,-0.14992,0.11512,0.05159,0.73541,3.20868,-0.78027,0.33800,1.87758,-2.45333,0.17304,-0.03965,-0.47369,-0.78651,0.39427,7.82443,-6.76414,-13.08037
-0.38272,1.75448,-0.13966,0.13419,0.02053,0.73560,3.23439,-1.04294,0.11716,1.02414,-2.05250,-0.07963,-0.02263,-0.46007,-0.79976,0.38498,3.47734,-14.80604,-19.44297
-0.38012,1.75289,-0.12967,0.14610,-0.01042,0.73125,3.33443,-1.19406,0.07130,0.03348,-1.82701,-0.56578,-0.00385,-0.44399,-0.81188,0.37909,5.37128,-10.52767,-9.38864
-0.37796,1.75122,-0.12034,0.14815,-0.03598,0.71690,3.41671,-1.25298,0.16368,-0.09731,-1.81868,-1.39282,0.01559,-0.42695,-0.82177,0.37706,6.45528,-5.39759,6.49594
-0.37609,1.74938,-0.11169,0.14477,-0.05834,0.69448,3.48791,-1.28357,0.30024,-0.54541,-1.34898,-2.06204,0.03570,-0.40926,-0.83037,0.37644,4.91403,-5.48966,6.81506
-0.37417,1.74767,-0.10417,0.14329,-0.07329,0.65818,3.52738,-1.17421,0.59455,-0.19613,-0.85559,-3.13649,0.05505,-0.39022,-0.83598,0.38188,1.78655,-0.27749,17.87379
-0.37200,1.74611,-0.09783,0.14631,-0.08213,0.61083,3.58178,-0.97520,1.02592,0.41139,-0.22532,-3.76649,0.07441,-0.36876,-0.83877,0.39362,2.24976,8.54616,33.78133
-0.36983,1.74515,-0.09251,0.14845,-0.07877,0.55749,3.49797,-0.98472,1.21090,0.59771,0.50356,-4.03066,0.09418,-0.35185,-0.84112,0.39982,-4.73979,0.01413,21.95561
-0.36803,1.74487,-0.08807,0.14384,-0.06491,0.50193,3.35004,-1.19526,1.12512,-0.59786,1.45638,-4.24111,0.11499,-0.33946,-0.84461,0.39772,-8.70981,-11.88560,-7.89866
-0.36695,1.74562,-0.08474,0.12806,-0.03720,0.44088,3.12300,-1.54826,1.01981,-1.52535,2.36785,-4.67583,0.13875,-0.33206,-0.84645,0.39243,-12.16706,-21.53210,-13.13608
-0.36676,1.74742,-0.08250,0.10144,0.00174,0.37574,2.89027,-1.95985,0.95521,-2.24263,3.42934,-4.83807,0.16547,-0.32758,-0.84641,0.38589,-13.66933,-27.38318,-13.96957
-0.36693,1.75038,-0.08078,0.07548,0.05013,0.31823,2.63961,-2.33917,0.90799,-2.25869,4.59670,-5.00243,0.19305,-0.32560,-0.84453,0.37878,-15.53279,-30.90667,-11.46487
-0.36816,1.75609,-0.08093,0.03811,0.13230,0.24312,2.24762,-2.86163,0.99044,-2.65299,5.64886,-4.63135,0.22536,-0.33067,-0.83728,0.37259,-21.66500,-32.87994,-7.07709
-0.36946,1.76280,-0.08141,0.00781,0.21312,0.17890,1.84868,-3.32956,1.06815,-1.75680,5.74820,-4.87715,0.25801,-0.33823,-0.82741,0.36663,-25.79584,-36.27840,-0.91870
-0.37052,1.76971,-0.08258,-0.01123,0.27770,0.11916,1.51981,-3.71147,1.03447,-1.21082,5.02280,-5.14849,0.28964,-0.34689,-0.81708,0.35798,-25.75283,-34.40633,-10.77298
-0.37125,1.77797,-0.08630,-0.02008,0.34910,0.03131,1.19340,-4.16562,0.84849,0.65073,4.08656,-5.69163,0.32257,-0.35958,-0.80525,0.34382,-16.99370,-29.70793,-13.39367
-0.37075,1.78584,-0.09075,-0.00671,0.39880,-0.04972,1.03221,-4.47390,0.53752,1.35247,3.15741,-5.73871,0.35309,-0.37015,-0.79543,0.32497,-5.56153,-22.59572,-30.31899
-0.36950,1.79317,-0.09509,0.01493,0.42722,-0.10830,0.96632,-4.61889,0.43222,2.48902,2.65972,-5.95432,0.38304,-0.37699,-0.78437,0.30972,-1.66921,-17.14746,-18.43008
-0.36505,1.80185,-0.10401,0.08479,0.47125,-0.22900,0.90805,-4.83070,0.29399,4.22257,1.88686,-6.15788,0.41413,-0.38497,-0.77154,0.29159,0.33229,-10.18160,-8.51886
-0.35995,1.80976,-0.11233,0.15221,0.49432,-0.31669,0.89152,-4.95769,0.32642,5.20036,1.52322,-6.47155,0.44540,-0.38996,-0.75695,0.27671,-0.45029,-9.09873,-2.41309
-0.35295,1.81793,-0.12203,0.23588,0.51638,-0.40704,0.86645,-5.07654,0.41508,6.76444,1.73428,-6.51392,0.47714,-0.39416,-0.74016,0.26293,-4.20416,-9.00125,6.50293
-0.34444,1.82645,-0.13234,0.32368,0.53866,-0.48505,0.85599,-5.18402,0.45843,8.20686,2.06987,-6.54160,0.50840,-0.39792,-0.72232,0.24789,-2.65653,-9.45113,3.26950
-0.33165,1.83648,-0.14542,0.46303,0.58169,-0.59101,0.91210,-5.35165,0.29866,9.72679,3.61981,-6.67071,0.53905,-0.40242,-0.70443,0.22642,5.21070,-8.31218,-3.97755
-0.31730,1.84835,-0.15903,0.59769,0.64638,-0.68260,0.93183,-5.60826,-0.14100,10.39382,5.63430,-6.64808,0.56744,-0.41176,-0.68554,0.19620,12.17025,-15.06099,-25.59769
-0.30146,1.86184,-0.17304,0.72368,0.72178,-0.75802,0.84510,-5.88871,-0.57223,11.01053,6.99377,-6.45008,0.59429,-0.42468,-0.66310,0.16363,11.27151,-19.07496,-36.82244
-0.28127,1.87824,-0.18843,0.89054,0.82648,-0.83732,0.54488,-6.23964,-1.00446,12.95253,7.97490,-5.53302,0.61939,-0.44421,-0.63411,0.13016,-4.11913,-23.73424,-37.62975
-0.25505,1.89727,-0.20420,1.12242,0.95197,-0.90525,0.04951,-6.54159,-1.44472,16.39268,7.71932,-3.17655,0.64033,-0.46981,-0.59965,0.09841,-20.51368,-18.46755,-37.93475
-0.22684,1.91596,-0.21839,1.33278,1.04263,-0.93134,-0.18139,-6.62918,-1.88195,19.17962,7.58310,-0.83151,0.65649,-0.49197,-0.56819,0.06437,-11.48178,-10.24437,-38.77610
-0.19125,1.93683,-0.23099,1.61280,1.14687,-0.92450,-0.38485,-6.55911,-2.50696,21.42210,7.41283,1.95399,0.66414,-0.51799,-0.53842,0.02682,6.58651,0.42336,-45.91371
-0.14994,1.95903,-0.24066,1.92208,1.24893,-0.87120,-0.77003,-6.27327,-3.16397,23.11230,7.29991,4.91191,0.66250,-0.54965,-0.50886,-0.00621,2.16483,16.97365,-50.53267
-0.10013,1.98289,-0.24581,2.30641,1.35612,-0.75382,-1.36141,-5.74352,-4.08351,25.70254,5.91881,9.54760,0.64683,-0.59187,-0.47960,-0.03583,-10.97229,31.90751,-66.45610
-0.04933,2.00554,-0.24865,2.61727,1.41855,-0.62608,-1.55011,-5.23048,-4.93116,27.01473,4.33490,12.17149,0.62579,-0.63014,-0.45430,-0.07019,12.91191,34.33059,-71.56593
0.01057,2.02773,-0.24610,3.00109,1.45753,-0.44138,-1.81972,-4.47450,-5.95636,28.39249,1.07783,13.98664,0.58946,-0.67506,-0.43183,-0.10174,26.08728,39.11752,-78.05496
0.08014,2.04699,-0.23743,3.46245,1.43873,-0.19496,-1.96500,-3.56402,-7.16346,29.78664,-3.69035,17.17247,0.53776,-0.72308,-0.41256,-0.13325,24.16260,46.36681,-79.27834
0.15320,2.06179,-0.22589,3.88154,1.34907,0.04570,-1.63647,-2.84796,-8.25772,30.62803,-9.50837,18.01299,0.47943,-0.76309,-0.39748,-0.17275,54.69730,25.91618,-76.45982
0.23254,2.07000,-0.21022,4.30758,1.16940,0.29899,-1.24609,-2.22111,-9.32505,30.63914,-16.59136,18.29909,0.41110,-0.79960,-0.38194,-0.21390,57.25958,12.36147,-73.23643
0.31750,2.06926,-0.19042,4.72760,0.88068,0.56225,-0.97486,-1.42037,-10.35591,29.56255,-25.12707,19.12199,0.33002,-0.83410,-0.36590,-0.24798,52.39276,22.09307,-73.77402
0.40381,2.06069,-0.16832,5.06569,0.53487,0.79820,-0.60353,-0.60492,-11.19830,27.08631,-33.13319,20.09839,0.24078,-0.86098,-0.35194,-0.27725,63.29953,30.28858,-71.73232
0.49772,2.03125,-0.13815,5.44967,-0.07801,1.11256,0.25194,0.42515,-12.15774,20.58498,-43.96097,19.26458,0.13273,-0.87641,-0.34894,-0.30418,82.75443,14.69606,-66.36179
0.58746,1.98927,-0.10764,5.68013,-0.76685,1.36395,1.21804,1.22257,-12.83333,11.45486,-54.64767,16.41693,0.02318,-0.87812,-0.34751,-0.32802,76.56979,-3.58941,-53.94650
0.67126,1.93631,-0.07757,5.75588,-1.46497,1.54619,2.14506,1.84547,-13.11415,0.83979,-61.30841,14.34849,-0.08283,-0.86750,-0.34867,-0.34498,95.59737,-9.39685,-40.21647
0.74302,1.85653,-0.04453,5.64353,-2.47548,1.72884,3.48622,1.88958,-13.09038,-15.08369,-65.08631,9.16229,-0.18225,-0.83699,-0.36077,-0.36888,66.20446,-55.35979,-19.94638
0.80148,1.77145,-0.01447,5.34021,-3.38558,1.81338,4.30577,1.35841,-12.77717,-27.91796,-65.71964,3.40154,-0.26449,-0.79888,-0.36574,-0.39758,26.15036,-71.00636,1.89996
0.85554,1.68755,0.01201,5.02134,-4.02599,1.81851,4.64637,0.96119,-12.58982,-36.15262,-63.80733,-2.99942,-0.34337,-0.75757,-0.36079,-0.42192,-11.41387,-71.78619,0.83202
0.87794,1.56441,0.03071,4.24362,-5.12294,1.69944,5.77710,1.78249,-12.36781,-51.42752,-57.73163,-12.51697,-0.43848,-0.70810,-0.37199,-0.40983,65.56799,-15.78625,10.85670
0.89065,1.44961,0.04362,3.46183,-5.84181,1.51596,7.27311,2.61939,-12.02560,-60.46659,-44.41704,-14.01369,-0.53425,-0.64569,-0.39140,-0.38008,124.76100,-23.07766,7.63241
0.89339,1.33927,0.05406,2.71203,-6.31146,1.33905,8.67612,2.53335,-11.84657,-65.76853,-34.97613,-15.57287,-0.61923,-0.56304,-0.41316,-0.35893,89.81290,-76.14204,-4.57874
0.86520,1.22616,0.05705,1.62454,-6.71014,1.07607,11.78487,2.31120,-11.37686,-69.15944,-11.60147,-17.72449,-0.70239,-0.43955,-0.46989,-0.30437,127.12800,-109.14430,-66.26261
0.82394,1.13265,0.05866,0.54283,-6.69000,0.84766,13.76027,0.70794,-9.45475,-62.48176,12.10754,-7.43886,-0.72760,-0.32733,-0.54599,-0.25563,78.97200,-199.85200,-26.70971
0.79045,1.05322,0.06598,-0.14882,-6.45084,0.77305,12.59574,-1.42282,-7.97341,-52.41606,21.77141,0.18099,-0.71924,-0.25388,-0.59194,-0.26046,-108.26170,-178.17580,-25.20622
0.74922,0.98540,0.07689,-0.79513,-6.08081,0.77150,9.01606,-3.10583,-7.13148,-42.76775,26.91206,2.49205,-0.69545,-0.22463,-0.60390,-0.31811,-282.54530,-43.01748,-35.29381
0.70739,0.92429,0.09034,-1.30102,-5.68516,0.81240,3.99484,-3.17783,-7.16396,-34.68111,27.60777,3.34604,-0.67849,-0.23409,-0.56243,-0.41052,-311.06520,109.29860,-38.06407
0.66414,0.87053,0.10390,-1.71455,-5.26032,0.84754,-0.77050,-1.96662,-7.77363,-26.31221,35.20919,0.98678,-0.66852,-0.25689,-0.47526,-0.51110,-285.99330,253.50490,-100.24380
0.61862,0.82542,0.11673,-2.05979,-4.78224,0.86136,-3.43771,-0.97155,-7.62084,-20.50040,36.88122,-1.52142,-0.65305,-0.27235,-0.40422,-0.57962,-163.12190,171.39680,-41.47848
0.57327,0.78704,0.12672,-2.32131,-4.30727,0.82485,-4.51890,-0.37386,-7.08646,-14.85021,34.76889,-5.93474,-0.63871,-0.27784,-0.35353,-0.62439,-73.94151,101.14500,3.01895
0.52827,0.75299,0.13235,-2.52089,-3.87581,0.72527,-4.27544,-0.38613,-6.32242,-12.20978,29.71438,-10.29856,-0.62972,-0.26876,-0.33093,-0.64939,2.23292,22.66538,53.05932
0.48341,0.72090,0.13303,-2.66755,-3.51050,0.56672,-3.31553,-0.65311,-5.72028,-7.97757,24.48227,-13.65944,-0.63017,-0.24571,-0.32216,-0.66237,47.90482,-23.86646,51.17393
0.44049,0.69037,0.12928,-2.74822,-3.20600,0.37213,-1.87290,-1.08292,-5.00429,-3.14714,20.56577,-14.90268,-0.63891,-0.21520,-0.32901,-0.66124,80.93995,-53.26295,58.33727
0.40080,0.66219,0.12212,-2.76392,-2.93411,0.16726,-0.57043,-1.25577,-4.29819,0.05229,18.98219,-14.21235,-0.65227,-0.18812,-0.33698,-0.65238,87.40143,-47.91436,64.62204
0.36396,0.63812,0.11258,-2.72992,-2.65702,-0.02993,0.13038,-0.85096,-3.85619,3.48038,20.13555,-12.67920,-0.66738,-0.17230,-0.32918,-0.64541,63.60357,1.67653,39.61655
0.33030,0.61864,0.10227,-2.65159,-2.36908,-0.19365,0.29165,-0.00695,-3.54990,6.64947,20.25101,-9.78686,-0.68157,-0.17023,-0.30669,-0.64220,31.88246,46.35085,25.42025
0.30014,0.60280,0.09205,-2.53848,-2.08744,-0.31772,0.03263,1.25890,-3.46305,8.34570,19.46461,-7.21387,-0.69490,-0.18078,-0.26574,-0.64329,9.68759,81.02921,11.94274
0.27264,0.58969,0.08175,-2.40864,-1.82533,-0.41501,-0.42020,2.82134,-3.53815,9.34110,17.96556,-6.53463,-0.70716,-0.20164,-0.20692,-0.64533,-8.59116,114.76310,-4.34440
0.24566,0.57709,0.07125,-2.30369,-1.61931,-0.49252,-0.68642,4.10559,-3.62737,8.14128,16.93947,-6.98955,-0.71836,-0.22215,-0.14485,-0.64314,-2.07272,114.27550,-6.91156
0.22084,0.57142,0.05709,-2.18692,-1.34352,-0.61376,-0.59621,5.39655,-3.82867,5.79994,14.54546,-7.52919,-0.73360,-0.24221,-0.07440,-0.63058,13.73270,80.98521,-18.10248
0.19375,0.56386,0.04369,-2.13143,-1.15464,-0.69722,-0.03738,5.37825,-3.91715,3.98392,13.07594,-5.73388,-0.75030,-0.24090,-0.03109,-0.61485,33.84359,4.69686,-17.16644
0.16753,0.55780,0.03103,-2.07324,-0.98489,-0.74766,0.55105,4.81824,-3.99303,5.86952,11.62684,-2.55322,-0.76725,-0.22867,-0.00044,-0.59919,29.70961,-39.06675,-23.23126
0.14328,0.55274,0.01982,-1.99732,-0.84044,-0.76208,1.00346,4.04335,-3.76688,7.92585,12.18709,-0.29558,-0.78166,-0.21649,0.01656,-0.58469,25.65303,-67.56610,-3.10904
0.12443,0.55340,0.01012,-1.84935,-0.63374,-0.74850,1.32661,3.14399,-3.29311,10.82759,12.89292,2.55337,-0.79366,-0.20598,0.02085,-0.57205,17.98678,-66.80489,19.74388
0.10873,0.55517,0.00218,-1.68057,-0.45445,-0.70724,1.17006,2.72347,-2.79651,12.96250,12.23256,4.58670,-0.79795,-0.20467,0.03177,-0.56602,-2.42849,-40.11165,32.12329
0.09520,0.55734,-0.00451,-1.51787,-0.31312,-0.65619,0.79942,2.75029,-2.56081,13.52346,11.34760,5.30282,-0.79809,-0.20672,0.05476,-0.56331,-22.89118,-9.53941,35.04696
0.08657,0.56110,-0.00952,-1.31501,-0.18041,-0.59068,0.24108,3.00357,-2.52975,15.25096,8.17067,4.06649,-0.79316,-0.20933,0.08812,-0.56508,-36.45197,27.09030,11.39222
0.08353,0.56496,-0.01414,-1.06314,-0.07484,-0.53316,-0.02260,2.90167,-2.27613,17.13877,5.02517,2.69851,-0.78987,-0.21157,0.10955,-0.56510,-18.74027,0.79017,13.57086
0.08126,0.56719,-0.01979,-0.85645,-0.02030,-0.50492,-0.09123,2.74797,-1.87211,17.75151,4.17928,1.75955,-0.78784,-0.21741,0.12421,-0.56268,-3.90789,-14.23785,32.60280
0.08480,0.57033,-0.02578,-0.60568,0.03604,-0.48905,-0.08959,2.62286,-1.31046,18.24694,3.85359,0.70772,-0.78516,-0.22927,0.13379,-0.55952,5.35611,-9.72688,36.55865
0.09174,0.57399,-0.03228,-0.35678,0.08740,-0.48449,-0.09211,2.62022,-0.71539,17.48870,3.42195,0.30694,-0.78071,-0.24664,0.14276,-0.55612,7.38503,-2.72097,42.79641
0.10310,0.57810,-0.03864,-0.08844,0.13550,-0.47863,-0.13275,2.71678,-0.09910,16.00414,3.02153,0.67079,-0.77372,-0.26900,0.15168,-0.55317,5.70404,4.47083,39.61414
0.11288,0.58208,-0.04483,0.09218,0.17024,-0.47119,-0.26804,2.86497,0.24190,14.22953,2.96247,0.76953,-0.76485,-0.28891,0.16542,-0.55151,-1.91612,11.26436,33.94405
0.12694,0.58688,-0.05082,0.30170,0.21025,-0.46222,-0.47815,3.01789,0.56072,12.12724,2.45668,0.30221,-0.75285,-0.31019,0.17991,-0.55194,-9.45059,10.63133,23.40944
0.14046,0.59170,-0.05713,0.45860,0.24197,-0.46070,-0.61673,3.07553,0.77186,10.54584,2.26650,-0.35832,-0.74133,-0.32931,0.19344,-0.55188,-8.56770,6.91319,17.34458
0.15494,0.59687,-0.06389,0.59478,0.27201,-0.46697,-0.65465,2.99859,1.00768,9.12315,2.10498,-0.85033,-0.73054,-0.34821,0.20238,-0.55146,-1.50061,-2.44453,17.40239
0.17012,0.60251,-0.07099,0.71018,0.30289,-0.47729,-0.62433,2.84846,1.23268,7.39712,2.45040,-0.73709,-0.72053,-0.36667,0.20787,-0.55062,5.56888,-9.37675,16.81675
0.18552,0.60866,-0.07802,0.80250,0.33501,-0.48358,-0.60228,2.62807,1.41292,5.68240,2.56228,-0.00122,-0.71075,-0.38345,0.21086,-0.55076,6.62587,-13.08869,14.79028
0.20076,0.61519,-0.08447,0.87028,0.36579,-0.47865,-0.64425,2.32515,1.52005,4.43748,1.87837,0.54867,-0.70086,-0.39692,0.21205,-0.55343,0.96462,-18.64772,9.32390
0.21588,0.62195,-0.09046,0.92182,0.39417,-0.46703,-0.66823,1.94959,1.59427,3.36871,2.06592,0.86189,-0.69200,-0.40773,0.21012,-0.55744,1.14184,-25.95872,6.06236
0.23086,0.62912,-0.09607,0.96100,0.42377,-0.45125,-0.73508,1.59522,1.65752,2.57183,1.96920,1.44522,-0.68251,-0.41717,0.20718,-0.56323,-0.25582,-26.40500,6.03450
0.24564,0.63622,-0.10133,0.98750,0.44516,-0.43430,-0.80794,1.30705,1.69481,1.97189,1.79161,1.48753,-0.67268,-0.42573,0.20426,-0.56967,-2.78332,-24.99488,5.95858
0.26079,0.64419,-0.10604,1.01434,0.47765,-0.41146,-0.89334,0.91301,1.73157,1.14492,1.98632,1.04224,-0.66317,-0.43136,0.19805,-0.57872,-2.28553,-22.37935,3.00510
0.27537,0.65200,-0.11115,1.02497,0.49961,-0.40041,-0.91768,0.67076,1.77169,0.79893,1.60033,0.88659,-0.65362,-0.43841,0.19257,-0.58608,-0.80404,-20.57949,4.46594
0.28999,0.65996,-0.11608,1.03300,0.51851,-0.38935,-0.92003,0.40788,1.81207,0.40803,1.31157,0.72763,-0.64455,-0.44428,0.18505,-0.59408,1.88248,-18.96067,4.33637
0.30425,0.66826,-0.12118,1.03461,0.54043,-0.38220,-0.93125,0.21094,1.83422,-0.05581,1.59489,0.32194,-0.63524,-0.44987,0.17797,-0.60201,1.30553,-13.29725,2.14218
0.31829,0.67681,-0.12666,1.03156,0.56122,-0.38327,-0.91249,0.08215,1.87790,-0.21401,1.78120,-0.44264,-0.62572,-0.45638,0.17057,-0.60918,0.51864,-10.94434,2.48800
0.33223,0.68595,-0.13256,1.02751,0.58646,-0.39116,-0.78350,-0.09158,1.97856,-0.25243,1.79366,-0.77831,-0.61759,-0.46337,0.15893,-0.61531,8.57841,-10.67617,6.89105
0.34568,0.69594,-0.13914,1.01697,0.62304,-0.40805,-0.60856,-0.25711,2.15140,-0.81293,2.32541,-1.02213,-0.60945,-0.47177,0.14404,-0.62069,11.15419,-8.43168,10.06756
0.35890,0.70607,-0.14576,1.00307,0.65213,-0.42283,-0.52331,-0.31304,2.26450,-1.40607,2.62786,-1.22956,-0.60011,-0.48058,0.13148,-0.62580,8.48616,-4.18501,10.25666
0.37136,0.71703,-0.15275,0.97879,0.68610,-0.44053,-0.46365,-0.33038,2.35241,-2.05104,2.23953,-1.04785,-0.59033,-0.48971,0.11927,-0.63046,5.69471,-0.79116,8.24531
0.38306,0.72775,-0.15977,0.94843,0.70900,-0.45380,-0.44969,-0.29744,2.35638,-2.35902,1.31191,-0.61446,-0.58050,-0.49825,0.10943,-0.63466,1.50974,1.67712,1.95452
0.39436,0.73813,-0.16656,0.91836,0.72058,-0.46032,-0.48838,-0.24263,2.29341,-2.78535,0.93644,-0.25473,-0.57049,-0.50582,0.10204,-0.63896,-1.62045,3.10882,-3.22222
0.40429,0.74863,-0.17333,0.87218,0.73063,-0.46520,-0.63376,-0.13828,2.15107,-2.90117,0.38890,-0.32563,-0.55939,-0.51235,0.09923,-0.64400,-9.87840,4.75300,-9.56573
