posX, posY, posZ, velX, velY, velZ, angVelX, angVelY, angVelZ, accX, accY, accZ, rotX, rotY, rotZ, rotW, angAccX, angAccY, angAccZ
0.55894,1.09935,-0.30857,-0.40121,0.85664,-0.82703,-1.19076,1.67597,1.51108,-4.38202,-4.00190,1.23906,-0.25706,-0.71595,0.04614,-0.64746,2.99981,1.83476,-7.08331
0.55047,1.10866,-0.31892,-0.45208,0.81102,-0.80785,-0.98517,1.70183,1.45380,-4.09583,-3.79685,1.66625,-0.24864,-0.72611,0.04558,-0.63943,13.35151,3.61041,-6.83968
0.54074,1.11691,-0.32821,-0.51221,0.75796,-0.77453,-0.58311,1.68411,1.42640,-3.61204,-2.95871,2.19709,-0.24454,-0.73596,0.03950,-0.63009,23.62608,1.80470,-5.09402
0.53081,1.12530,-0.33713,-0.56207,0.71982,-0.74217,-0.25677,1.61374,1.43034,-3.58424,-2.57330,2.53025,-0.24030,-0.74478,0.03193,-0.62172,25.86458,-1.57555,-1.84312
0.52009,1.13305,-0.34532,-0.61402,0.67845,-0.70364,0.00077,1.49075,1.36009,-3.04704,-2.52150,2.51338,-0.23758,-0.75176,0.02496,-0.61464,16.47840,-6.59483,-5.30306
0.50039,1.14953,-0.36250,-0.65216,0.64339,-0.66903,0.14089,1.36188,1.24410,-2.51635,-2.37830,2.66066,-0.22900,-0.76533,0.01608,-0.60131,13.36757,-7.02563,-8.70976
0.48924,1.15641,-0.36947,-0.68278,0.61329,-0.63573,0.29189,1.25106,1.13692,-2.00357,-1.95001,1.95279,-0.22891,-0.76998,0.00994,-0.59551,7.18698,-8.56351,-9.84563
0.47775,1.16348,-0.37644,-0.71236,0.59213,-0.60922,0.52993,1.20053,1.11394,-2.05206,-1.16990,1.75678,-0.22969,-0.77587,-0.00034,-0.58760,18.19120,-2.43447,-4.82960
0.46483,1.17027,-0.38314,-0.75768,0.57052,-0.58377,0.68579,1.06076,1.05494,-1.76753,-0.69997,1.18853,-0.23078,-0.77938,-0.00969,-0.58242,10.73779,-10.28577,-7.63214
0.45328,1.17773,-0.39048,-0.77343,0.56348,-0.57339,0.53717,1.15183,1.04968,-0.72396,-0.41512,0.77817,-0.22514,-0.78698,-0.01156,-0.57433,-7.87823,7.37231,-0.54261
0.44158,1.18519,-0.39777,-0.78881,0.55772,-0.56411,0.59076,1.30983,1.04150,-1.25526,-0.41275,0.30219,-0.22256,-0.79593,-0.01666,-0.56274,-2.43723,9.49120,0.17402
0.42957,1.19290,-0.40490,-0.80567,0.55713,-0.55338,0.75834,1.40621,1.03756,-1.21506,0.26386,1.04138,-0.22240,-0.80416,-0.02529,-0.55065,12.39280,9.61712,-0.87244
0.41717,1.20109,-0.41124,-0.82572,0.56438,-0.53250,0.87843,1.43846,1.04894,-1.48303,0.65017,1.82426,-0.22162,-0.81154,-0.03424,-0.53955,9.01006,4.41547,0.27263
0.40462,1.20941,-0.41693,-0.84344,0.57191,-0.50479,0.86188,1.33601,1.04759,-1.18679,0.48803,2.36160,-0.21907,-0.81664,-0.04127,-0.53237,1.40258,-5.09997,0.14944
0.39224,1.21761,-0.42194,-0.85454,0.57623,-0.47246,0.75436,1.16051,0.98933,-0.65125,0.20970,2.51362,-0.21622,-0.81981,-0.04567,-0.52828,-5.08683,-11.29236,-3.25482
0.38016,1.22574,-0.42651,-0.85821,0.57851,-0.44026,0.65214,0.95073,0.91123,0.02240,0.16813,1.90827,-0.21373,-0.82151,-0.04940,-0.52631,-10.41356,-16.52159,-5.97160
0.36819,1.23421,-0.43065,-0.85901,0.58595,-0.40793,0.90723,0.85412,0.85691,-0.02455,0.48615,1.51152,-0.21656,-0.82379,-0.06081,-0.52037,12.48219,-7.06320,-5.08434
0.35621,1.24285,-0.43506,-0.85963,0.59421,-0.38755,1.23603,0.85020,0.85055,0.08436,0.76593,1.51556,-0.22074,-0.82701,-0.07573,-0.51147,25.44765,0.50880,-3.28726
0.34435,1.25177,-0.43917,-0.85818,0.60495,-0.36718,1.59976,0.86748,0.84329,0.14993,0.82004,1.43400,-0.22680,-0.82995,-0.09342,-0.50102,28.43893,2.87724,-1.81309
0.33259,1.26079,-0.44319,-0.85558,0.61511,-0.34990,1.83796,0.87739,0.81476,0.09968,0.54174,1.03907,-0.23252,-0.83243,-0.10965,-0.49090,15.99076,0.98472,-1.89880
0.32087,1.26973,-0.44715,-0.85285,0.62214,-0.33547,1.96999,0.86653,0.76747,0.22082,0.63900,1.26764,-0.23788,-0.83434,-0.12423,-0.48151,10.86122,1.81253,-4.42376
0.30915,1.27872,-0.45108,-0.85077,0.62802,-0.32384,1.97834,0.82714,0.75590,0.20433,0.71356,1.43156,-0.24110,-0.83601,-0.13713,-0.47345,6.44566,-1.57352,-3.02208
0.29753,1.28809,-0.45427,-0.84776,0.63857,-0.30301,1.80733,0.67203,0.77076,0.11129,0.53103,1.14556,-0.24069,-0.83656,-0.14680,-0.46976,-8.37440,-9.25668,0.15832
0.28595,1.29742,-0.45779,-0.84467,0.64660,-0.29167,1.67937,0.57541,0.78829,0.38104,0.61225,0.29759,-0.24018,-0.83740,-0.15645,-0.46541,-11.34011,-9.89885,-0.00458
0.27445,1.30681,-0.46161,-0.84104,0.65342,-0.28796,1.71427,0.61106,0.79866,0.36362,0.72514,-0.20224,-0.24198,-0.83908,-0.16856,-0.45715,-4.13286,-2.63717,1.61246
0.26306,1.31674,-0.46543,-0.83650,0.66704,-0.28641,1.86850,0.76378,0.86236,0.22043,0.63471,0.19824,-0.24473,-0.84206,-0.18389,-0.44410,11.03276,10.05912,4.16370
0.25180,1.32635,-0.46944,-0.83052,0.67232,-0.28911,1.78444,0.81466,0.88006,0.44358,0.04935,-0.08295,-0.24508,-0.84466,-0.19411,-0.43451,-3.54904,3.43040,2.27473
0.24073,1.33558,-0.47359,-0.82244,0.67021,-0.29244,1.61520,0.80825,0.85542,0.73649,-0.38172,-0.23799,-0.24471,-0.84688,-0.20146,-0.42700,-11.43611,0.13079,0.14493
0.23006,1.34450,-0.47794,-0.80981,0.66318,-0.29793,1.44853,0.81054,0.79900,0.92503,-0.62765,-0.63789,-0.24475,-0.84907,-0.20716,-0.41984,-14.50622,-1.57786,-2.83501
0.21961,1.35331,-0.48232,-0.79638,0.65595,-0.30273,1.40568,0.87136,0.73407,0.93688,-0.41022,-0.39508,-0.24677,-0.85127,-0.21420,-0.41057,-6.68090,3.94628,-4.29735
0.20924,1.36213,-0.48649,-0.78456,0.65067,-0.30253,1.45555,0.93010,0.68314,0.56772,-0.19643,0.20641,-0.24993,-0.85293,-0.22323,-0.40026,2.96367,4.88064,-3.29017
0.19864,1.37106,-0.49046,-0.77949,0.64912,-0.29913,1.49446,0.93929,0.67227,0.35802,0.00993,0.37807,-0.25217,-0.85415,-0.23289,-0.39064,3.21352,1.81740,-2.07278
0.18800,1.38015,-0.49420,-0.77631,0.65091,-0.29278,1.51984,0.94377,0.67129,0.12641,0.30193,0.60298,-0.25413,-0.85525,-0.24254,-0.38098,2.20450,0.88876,-0.11594
0.17716,1.38955,-0.49778,-0.77741,0.65768,-0.28491,1.41927,0.89372,0.73198,-0.20882,0.55174,0.54731,-0.25277,-0.85686,-0.25034,-0.37312,-4.05597,-2.94639,3.07943
0.16622,1.39898,-0.50157,-0.78037,0.66440,-0.28148,1.27553,0.85104,0.80510,-0.21916,0.62890,0.18800,-0.24983,-0.85903,-0.25672,-0.36571,-10.62431,-4.75237,5.80846
0.15528,1.40850,-0.50548,-0.78276,0.67104,-0.28075,1.09700,0.83017,0.88622,-0.14236,0.32101,-0.08803,-0.24542,-0.86198,-0.26147,-0.35832,-12.42452,-3.63283,6.71023
0.14448,1.41785,-0.50951,-0.78158,0.67289,-0.28193,0.95243,0.83312,0.93248,0.20167,-0.08840,-0.20144,-0.24147,-0.86500,-0.26565,-0.35057,-10.38190,-1.45074,4.05161
0.13395,1.42695,-0.51350,-0.77660,0.67085,-0.28157,0.93708,0.88643,0.93040,0.34198,-0.11641,0.05558,-0.23994,-0.86745,-0.27140,-0.34103,-3.18659,3.01587,0.24728
0.12343,1.43600,-0.51730,-0.77264,0.66789,-0.27839,0.96846,0.91988,0.91335,0.30992,-0.29990,0.40375,-0.23923,-0.86927,-0.27812,-0.33134,1.62842,4.51953,-0.80876
0.11303,1.44491,-0.52084,-0.76691,0.66248,-0.27212,0.99507,0.91695,0.87490,0.33719,-0.28521,0.36653,-0.23892,-0.87050,-0.28478,-0.32256,0.55545,-0.21872,-2.51309
0.10259,1.45388,-0.52408,-0.76299,0.65878,-0.26252,1.13189,0.94770,0.85513,0.22726,-0.23412,0.73412,-0.23972,-0.87102,-0.29415,-0.31199,7.92000,2.74326,-1.38597
0.09211,1.46286,-0.52729,-0.76064,0.65588,-0.25493,1.21096,0.93946,0.84169,0.25137,-0.35507,0.86254,-0.23997,-0.87127,-0.30318,-0.30230,9.10072,1.63151,-1.43302
0.08183,1.47151,-0.53005,-0.75555,0.64916,-0.24044,1.35144,0.93598,0.79242,0.25112,-0.37547,0.81343,-0.24192,-0.87040,-0.31380,-0.29226,7.92482,0.46831,-3.26404
0.07151,1.48006,-0.53307,-0.75265,0.64381,-0.23193,1.42113,0.94067,0.76558,0.27347,-0.32249,0.46344,-0.24322,-0.86984,-0.32343,-0.28216,5.58512,0.46090,-2.52721
0.06123,1.48872,-0.53622,-0.74964,0.64069,-0.22863,1.47349,0.98256,0.74907,0.25042,-0.20375,0.10290,-0.24470,-0.86944,-0.33277,-0.27102,3.69706,1.38811,-1.70424
0.05098,1.49740,-0.53915,-0.74668,0.63796,-0.22339,1.62953,1.11832,0.74612,0.20704,-0.14428,0.52156,-0.24787,-0.86857,-0.34436,-0.25604,10.19909,10.33469,0.10583
0.04073,1.50614,-0.54185,-0.74323,0.63505,-0.21613,1.65356,1.15427,0.75000,0.29667,-0.26529,0.65498,-0.24936,-0.86790,-0.35401,-0.24339,2.47583,3.30081,0.95385
0.03056,1.51480,-0.54444,-0.73998,0.63223,-0.20893,1.59825,1.13193,0.75219,0.28718,-0.35439,0.82300,-0.24978,-0.86742,-0.36206,-0.23259,-1.86782,-0.41067,0.06013
0.02041,1.52325,-0.54685,-0.73686,0.62722,-0.19987,1.42960,1.01366,0.75172,0.20768,-0.35968,0.76713,-0.24826,-0.86744,-0.36759,-0.22538,-10.23234,-7.51276,-0.22846
0.01019,1.53156,-0.54903,-0.73611,0.62188,-0.18897,1.28124,0.89816,0.77600,0.03031,-0.39661,0.84212,-0.24569,-0.86761,-0.37287,-0.21875,-11.11507,-8.76414,0.88612
-0.00011,1.53985,-0.55089,-0.73644,0.61680,-0.17507,1.18661,0.79244,0.81088,-0.09312,-0.22443,1.06659,-0.24261,-0.86752,-0.37882,-0.21225,-8.43835,-9.13579,1.93525
-0.01054,1.54809,-0.55234,-0.73871,0.61132,-0.15819,1.19069,0.72253,0.85257,-0.14434,-0.45106,1.02789,-0.23975,-0.86664,-0.38674,-0.20467,-0.18918,-6.22925,3.03821
-0.02077,1.55621,-0.55378,-0.73707,0.60544,-0.14495,1.20683,0.70009,0.86811,0.19916,-0.45357,0.86577,-0.23768,-0.86560,-0.39461,-0.19631,1.87559,-2.17781,1.44872
-0.03090,1.56421,-0.55531,-0.73443,0.59876,-0.13661,1.13260,0.65536,0.86411,0.26069,-0.62828,0.47309,-0.23515,-0.86518,-0.40035,-0.18942,-2.82606,-2.90216,0.23888
-0.04086,1.57203,-0.55695,-0.72934,0.58973,-0.13335,0.99788,0.62114,0.85250,0.24023,-0.50429,0.00502,-0.23233,-0.86556,-0.40403,-0.18325,-8.87476,-4.42631,-1.10618
-0.05093,1.57976,-0.55858,-0.72715,0.58113,-0.13026,0.92956,0.64525,0.85850,0.16324,-0.78331,0.36066,-0.22993,-0.86586,-0.40828,-0.17528,-5.59279,2.10772,0.81530
-0.06075,1.58705,-0.56000,-0.72214,0.56759,-0.12299,0.86658,0.63648,0.82242,0.55771,-1.06616,0.77308,-0.22813,-0.86584,-0.41217,-0.16852,-5.18112,-1.01013,-0.95283
-0.07008,1.59393,-0.56117,-0.71234,0.55209,-0.10888,0.89369,0.67586,0.74855,0.62688,-1.09210,1.12897,-0.22842,-0.86480,-0.41729,-0.16068,-0.42294,1.47175,-4.97043
-0.07919,1.60061,-0.56190,-0.70080,0.53652,-0.09091,1.01715,0.79275,0.65498,0.72448,-0.90262,1.26628,-0.23115,-0.86259,-0.42414,-0.15038,6.46184,6.49792,-6.34793
-0.08826,1.60730,-0.56202,-0.69024,0.52472,-0.06815,1.21268,0.98627,0.59684,0.69871,-0.75448,1.95815,-0.23531,-0.85947,-0.43279,-0.13649,13.21523,16.15413,-4.93566
-0.09737,1.61382,-0.56172,-0.68254,0.51436,-0.04252,1.31784,1.05436,0.55090,0.63298,-0.73287,2.03729,-0.23832,-0.85629,-0.44088,-0.12487,9.25919,7.43964,-3.43468
-0.10626,1.62031,-0.56109,-0.67260,0.50548,-0.01739,1.35447,1.08062,0.49666,0.80579,-0.57112,1.90937,-0.24124,-0.85327,-0.44793,-0.11442,3.11570,2.49571,-3.56513
-0.11491,1.62682,-0.56009,-0.66036,0.49833,0.00834,1.35078,1.09584,0.43379,0.94561,-0.49230,1.98080,-0.24446,-0.85036,-0.45410,-0.10455,0.29599,1.89003,-3.88137
-0.12317,1.63319,-0.55877,-0.64474,0.49205,0.03835,1.29185,1.05423,0.34716,0.98751,-0.32810,2.04341,-0.24774,-0.84764,-0.45908,-0.09686,-3.04470,-1.53979,-5.25958
-0.14024,1.64649,-0.55626,-0.63237,0.48848,0.06500,1.28356,1.05852,0.29436,0.63377,0.00658,1.86111,-0.25363,-0.84151,-0.47048,-0.07861,-3.97755,-2.56560,-4.80858
-0.14842,1.65329,-0.55311,-0.62323,0.48977,0.10135,1.41343,1.20178,0.28578,0.32952,0.47426,2.60892,-0.25895,-0.83654,-0.47858,-0.06406,6.29415,8.53465,-1.37451
-0.15708,1.66038,-0.54925,-0.62262,0.49513,0.14148,1.58076,1.29921,0.33316,0.00057,0.40942,3.20461,-0.26256,-0.83059,-0.48871,-0.04852,12.91472,9.29960,2.85648
-0.16592,1.66796,-0.54396,-0.62496,0.50650,0.19498,1.63821,1.25092,0.42537,-0.17576,0.74610,3.07308,-0.26249,-0.82577,-0.49788,-0.03630,5.08223,-2.11164,4.13436
-0.17501,1.67589,-0.53887,-0.63047,0.51996,0.23358,1.60920,1.15756,0.52865,-0.44687,1.03644,2.59344,-0.26054,-0.82221,-0.50538,-0.02584,-1.50969,-8.11148,5.82733
-0.18420,1.68406,-0.53354,-0.63653,0.53451,0.26739,1.53644,1.08657,0.64534,-0.51783,1.10787,2.44207,-0.25750,-0.81966,-0.51149,-0.01519,-4.05493,-6.96545,7.44731
-0.19369,1.69250,-0.52722,-0.64662,0.55020,0.30907,1.46108,1.02206,0.86271,-0.68528,0.82058,2.83520,-0.25099,-0.81821,-0.51724,-0.00288,-3.74328,-4.11549,13.49494
-0.20330,1.70070,-0.51999,-0.65648,0.55885,0.35697,1.44923,0.93742,1.04769,-0.57106,0.34859,3.22509,-0.24370,-0.81588,-0.52428,0.00915,-0.22443,-6.57371,11.46982
-0.21279,1.70857,-0.51290,-0.66201,0.56019,0.39090,1.47528,0.88568,1.14769,-0.51211,-0.04381,3.55229,-0.23768,-0.81247,-0.53193,0.02120,2.36625,-5.85665,9.68251
-0.22235,1.71613,-0.50357,-0.66824,0.55540,0.45219,1.54237,0.80993,1.27106,-0.20932,-0.44360,3.14988,-0.22977,-0.80840,-0.54091,0.03335,4.33208,-5.81728,6.39035
-0.23154,1.72347,-0.49464,-0.66726,0.54803,0.49461,1.58718,0.82209,1.33038,0.19302,-0.70738,2.90599,-0.22396,-0.80397,-0.54890,0.04671,3.55472,0.40718,4.78295
-0.24044,1.73048,-0.48529,-0.66129,0.53736,0.53449,1.66424,0.89182,1.36997,0.48518,-0.73755,2.90831,-0.21915,-0.79851,-0.55727,0.06171,4.18871,2.63918,2.75096
-0.24909,1.73701,-0.47450,-0.65215,0.52106,0.58946,1.80913,0.94565,1.41691,0.74636,-1.34875,3.97026,-0.21391,-0.79136,-0.56740,0.07776,9.71665,8.28055,3.60712
-0.25783,1.74333,-0.46350,-0.64653,0.50548,0.63515,1.85685,0.81886,1.44186,0.65166,-1.39414,3.91820,-0.20613,-0.78521,-0.57711,0.08895,6.86537,-7.62967,1.26387
-0.26641,1.74923,-0.45116,-0.63977,0.48671,0.69197,1.91575,0.66287,1.48686,0.27337,-1.33705,4.26888,-0.19659,-0.77870,-0.58749,0.09915,3.88518,-11.84163,0.09672
-0.27576,1.75478,-0.43776,-0.63729,0.46456,0.76153,2.05137,0.54789,1.56374,0.13556,-1.40229,4.45565,-0.18582,-0.77056,-0.59954,0.11075,9.05463,-8.65296,3.50067
-0.28505,1.75997,-0.42349,-0.63583,0.44161,0.82946,2.29705,0.62162,1.67998,0.05579,-1.74505,5.11696,-0.17599,-0.75944,-0.61313,0.12791,15.09522,3.87830,6.95134
-0.29410,1.76474,-0.40832,-0.63594,0.41822,0.89205,2.51620,0.66472,1.79691,0.06962,-2.09463,5.53002,-0.16503,-0.74724,-0.62708,0.14547,19.30924,6.36572,9.18526
-0.30325,1.76842,-0.39002,-0.64117,0.38228,0.99052,2.83054,0.52924,1.99716,-0.30137,-2.63855,7.03773,-0.14797,-0.73268,-0.64426,0.16192,20.14066,-2.90506,11.59119
-0.31293,1.77143,-0.37063,-0.65405,0.34299,1.08519,3.00039,0.03259,2.13409,-0.80406,-3.13145,6.85538,-0.12436,-0.72014,-0.66144,0.16865,18.93012,-29.13415,5.29344
-0.32306,1.77359,-0.35025,-0.67136,0.29873,1.17416,3.13796,-0.56465,2.28571,-1.40272,-3.42404,5.86418,-0.09533,-0.70779,-0.67871,0.17115,15.50568,-42.60059,1.91912
-0.33339,1.77491,-0.32970,-0.68789,0.25075,1.24455,3.21260,-1.15354,2.42996,-1.00258,-3.55537,4.22453,-0.06295,-0.69581,-0.69470,0.17109,13.64415,-42.92377,3.27115
-0.34343,1.77549,-0.30928,-0.69539,0.20153,1.29659,3.30649,-1.55011,2.57583,-0.36128,-3.57990,3.05450,-0.03040,-0.68218,-0.70982,0.17284,9.39333,-33.77504,3.38228
-0.35254,1.77509,-0.28906,-0.68544,0.14739,1.33295,3.48115,-1.62361,2.72297,1.21490,-4.02927,1.89825,-0.00095,-0.66466,-0.72506,0.18034,12.50985,-13.40341,8.53699
-0.36001,1.77357,-0.26907,-0.64995,0.08708,1.35682,3.69962,-1.43100,2.82540,3.47541,-4.78101,1.29408,0.02364,-0.64325,-0.74053,0.19308,12.83735,12.54521,15.00182
-0.36630,1.77136,-0.24952,-0.60414,0.03043,1.36756,3.84294,-1.33132,2.75284,4.48604,-5.04215,0.53429,0.04576,-0.62151,-0.75569,0.20140,11.17963,13.94760,3.41818
-0.37035,1.76724,-0.23055,-0.53188,-0.04464,1.36592,3.94604,-1.35505,2.46881,4.92461,-4.72474,-0.69853,0.06529,-0.59968,-0.77143,0.20254,8.23715,4.93962,-14.37409
-0.37400,1.76309,-0.21254,-0.46884,-0.10376,1.34888,3.97888,-1.42342,2.14981,4.35520,-4.00745,-1.69207,0.08382,-0.57877,-0.78610,0.20011,5.53615,0.81691,-22.26988
-0.37803,1.75934,-0.19495,-0.42843,-0.14112,1.32946,4.02734,-1.42066,1.98390,3.56856,-3.21349,-2.29325,0.10268,-0.55646,-0.79989,0.19996,4.33182,2.70467,-22.75917
-0.38031,1.75467,-0.17948,-0.36912,-0.18429,1.27977,4.12314,-1.31586,1.83568,2.37617,-1.43295,-3.34505,0.11899,-0.53162,-0.81417,0.20088,5.64598,8.37666,-8.56551
-0.38393,1.75139,-0.16468,-0.34414,-0.19579,1.22890,4.15170,-1.22887,1.93615,0.70621,-0.22841,-4.24377,0.13880,-0.50682,-0.82534,0.20659,3.29105,6.58873,4.35379
-0.38848,1.74856,-0.15150,-0.34045,-0.19740,1.16283,4.06288,-1.15886,2.33247,-0.41809,0.13823,-5.31115,0.16319,-0.48314,-0.83164,0.21982,-6.65858,-0.92014,24.87811
-0.39399,1.74588,-0.13990,-0.35358,-0.19645,1.08611,3.90921,-1.27485,2.74183,-1.29213,-0.19934,-5.69325,0.19238,-0.46141,-0.83417,0.23291,-11.51623,-12.68924,28.02330
-0.40046,1.74276,-0.12990,-0.37965,-0.20297,1.00033,3.76747,-1.66253,2.95988,-1.72032,-0.90286,-6.31883,0.22666,-0.44158,-0.83457,0.23900,-7.96464,-27.90917,15.05058
-0.40772,1.73911,-0.12162,-0.41258,-0.21682,0.90592,3.66145,-2.25524,2.95346,-2.42474,-1.28242,-7.23445,0.26505,-0.42364,-0.83340,0.23604,0.19392,-40.64027,-9.33813
-0.41552,1.73468,-0.11645,-0.44725,-0.24096,0.77916,3.55681,-2.90982,2.97397,-1.75738,-1.68729,-8.79841,0.30786,-0.40651,-0.82867,0.23082,1.89226,-41.03518,-7.90610
-0.42272,1.73007,-0.11219,-0.46358,-0.26227,0.66750,3.50418,-3.38458,2.89453,-0.86167,-1.99336,-10.05830,0.34838,-0.38848,-0.82324,0.22356,2.97082,-38.16988,-11.10898
-0.42954,1.72444,-0.11198,-0.46932,-0.29538,0.51577,3.48674,-3.86085,2.92601,-0.22238,-2.65299,-11.90697,0.39238,-0.36914,-0.81429,0.21611,7.27713,-34.99977,-13.54668
-0.43502,1.71771,-0.11541,-0.45137,-0.33901,0.33900,3.49126,-4.18274,3.25134,1.97566,-3.28368,-13.54434,0.43826,-0.34544,-0.80114,0.21629,0.41944,-29.03154,14.36251
-0.43883,1.71023,-0.12269,-0.40986,-0.38493,0.13920,3.52239,-4.50378,3.68866,3.89178,-3.11536,-15.30161,0.48673,-0.31826,-0.78338,0.21937,-0.18506,-27.25910,25.24870
-0.44037,1.70258,-0.13435,-0.34018,-0.42273,-0.08697,3.55984,-4.90317,4.08022,6.25861,-2.19530,-17.18840,0.53759,-0.28952,-0.76045,0.22111,1.30707,-32.44785,23.63311
-0.43905,1.69565,-0.15067,-0.23909,-0.43953,-0.33806,3.63964,-5.42323,4.24887,8.95901,-0.17780,-18.85938,0.58997,-0.26096,-0.73292,0.21599,8.72170,-36.36163,13.26150
-0.43409,1.69078,-0.17177,-0.10106,-0.41774,-0.60966,3.80072,-6.02856,4.07371,11.62972,3.41606,-19.94489,0.64206,-0.23426,-0.70222,0.19943,23.87953,-35.75790,-9.91383
-0.42631,1.68890,-0.19489,0.04908,-0.35298,-0.84817,3.89462,-6.58916,3.78542,14.12915,7.72623,-20.34475,0.69195,-0.21046,-0.66727,0.17792,31.97753,-34.83165,-21.50575
-0.41057,1.69416,-0.22534,0.29516,-0.18558,-1.15059,3.81560,-7.33174,3.41918,16.97284,13.53981,-18.01321,0.74280,-0.19364,-0.62262,0.15195,20.95805,-36.23888,-35.99514
-0.39270,1.70375,-0.25332,0.51928,0.01343,-1.34449,3.41370,-7.92443,2.82531,20.87869,19.95962,-15.15350,0.78678,-0.18943,-0.57382,0.12580,7.01783,-39.83539,-39.85571
-0.36732,1.72292,-0.28219,0.80982,0.31788,-1.50521,2.87499,-8.52578,1.79284,22.20522,24.10184,-8.65775,0.82467,-0.20203,-0.52042,0.09089,10.34256,-33.84433,-87.06432
-0.33569,1.74963,-0.30809,1.13557,0.67453,-1.58255,2.46407,-8.86095,0.56780,25.18221,27.22420,-2.33194,0.85337,-0.22217,-0.46900,0.04945,24.43775,-15.36568,-90.75726
-0.30031,1.78018,-0.32953,1.44276,1.00681,-1.57147,2.18985,-8.90151,-0.57736,26.66709,28.60323,4.39183,0.87329,-0.24504,-0.42105,0.00615,29.09648,2.22425,-92.62772
-0.25598,1.82005,-0.34456,1.81782,1.40645,-1.46440,2.00981,-8.67245,-2.00584,27.83306,28.84886,10.96051,0.88090,-0.27923,-0.37953,-0.04482,49.32247,23.75679,-87.51163
-0.19867,1.87082,-0.34769,2.32857,1.90247,-1.18608,1.60410,-8.22715,-3.80753,29.67314,26.64815,19.87114,0.87412,-0.33271,-0.34055,-0.09614,37.32350,31.25208,-92.10423
-0.14758,1.91330,-0.35016,2.62583,2.15669,-0.96198,1.41486,-7.85904,-4.80071,30.70739,24.82426,25.44102,0.86664,-0.37329,-0.29939,-0.14123,40.56042,35.95298,-93.03030
-0.07585,1.96903,-0.33020,3.18506,2.56322,-0.42795,1.33361,-6.65317,-6.69453,31.93973,20.30052,34.43404,0.83095,-0.44040,-0.27967,-0.19328,63.18597,61.59207,-86.47010
-0.00421,2.02008,-0.30461,3.63367,2.81446,0.09086,1.57494,-5.34563,-8.29934,33.76054,15.71247,39.98341,0.78334,-0.50433,-0.26710,-0.24635,91.46944,67.44548,-81.26950
0.07497,2.06942,-0.26773,4.10228,2.97853,0.67534,1.78529,-3.77499,-10.21877,35.12556,7.67210,43.46695,0.71082,-0.58183,-0.26128,-0.29654,109.28080,79.27427,-105.68650
0.16292,2.11220,-0.22060,4.60812,2.99647,1.29318,2.21852,-2.13888,-12.22148,38.13258,-6.23641,44.73359,0.61220,-0.66212,-0.25928,-0.34582,126.73550,74.28471,-119.29820
0.26099,2.14044,-0.16458,5.16386,2.77073,1.91486,2.89502,-0.59411,-13.70416,40.57633,-26.81234,44.79200,0.49828,-0.72910,-0.26158,-0.38949,126.04320,56.28038,-106.00450
0.36815,2.14679,-0.10134,5.73998,2.23848,2.51206,4.44370,0.31503,-14.22705,39.11480,-49.43033,42.37211,0.38329,-0.76176,-0.27355,-0.44496,125.84880,-11.56670,-45.65075
0.47700,2.12934,-0.03564,6.24828,1.41709,3.05100,6.21557,0.54085,-14.21575,32.84528,-68.50071,36.53646,0.26956,-0.76706,-0.28667,-0.50673,101.40100,-82.15161,-15.71426
0.58585,2.08743,0.03219,6.63246,0.36680,3.50227,7.86444,0.28971,-14.56776,23.40799,-83.51432,28.45306,0.14139,-0.75546,-0.28859,-0.57097,61.84866,-103.60770,-48.90989
0.69211,2.01703,0.10155,6.86478,-0.90297,3.85582,8.97276,1.28098,-15.79752,12.44232,-103.27120,17.82243,-0.02332,-0.74960,-0.28340,-0.59769,73.10489,-23.09374,-73.23418
0.78658,1.90893,0.16695,6.82976,-2.46606,4.03424,10.32452,4.44657,-17.08662,-18.35880,-119.76910,3.42896,-0.22767,-0.74367,-0.29480,-0.55518,226.97540,74.16697,-58.84984
0.85019,1.76967,0.22023,6.29865,-4.17045,3.97602,13.10083,6.90063,-16.26958,-57.37487,-121.24440,-10.63325,-0.40914,-0.68684,-0.35169,-0.48700,265.30360,-55.47433,-19.90444
0.87613,1.61201,0.26005,5.28041,-5.78129,3.71176,17.96609,8.50986,-14.16800,-86.78769,-105.97540,-31.73161,-0.57736,-0.55787,-0.45643,-0.38354,224.77170,-196.26200,-147.60680
0.85204,1.44349,0.27615,3.65309,-7.21024,3.09903,25.71335,9.49499,-8.62052,-109.45610,-66.37445,-43.24213,-0.67362,-0.33464,-0.63502,-0.17607,465.58010,-289.65960,-280.41060
0.81214,1.30339,0.27734,2.12813,-7.84890,2.38891,27.81887,4.20714,-5.15601,-107.31170,-30.70237,-44.67852,-0.64695,-0.11650,-0.74613,-0.10569,167.20310,-263.89720,-429.84430
0.75992,1.19024,0.26823,0.76146,-7.90137,1.67757,22.77795,-2.03870,-6.10204,-91.87299,9.23569,-45.41613,-0.59432,0.00440,-0.77862,-0.20128,-305.05290,38.73060,-463.09150
0.71339,1.09858,0.26344,-0.17575,-7.58959,1.20857,15.16724,-3.63890,-8.42962,-71.97100,34.28649,-33.37887,-0.58436,0.02611,-0.73841,-0.33553,-486.40980,335.22340,-292.40580
0.65838,1.02727,0.26043,-1.02127,-7.02238,0.88637,6.06120,-2.01119,-11.31851,-54.01322,47.21572,-18.41257,-0.59720,-0.03522,-0.61482,-0.51392,-392.64230,576.62280,-169.31840
0.59588,0.97209,0.25726,-1.80841,-6.31703,0.63138,1.02806,0.13580,-12.34184,-39.81264,47.52743,-15.22338,-0.60692,-0.07165,-0.49253,-0.61962,-153.16010,384.18520,-77.87010
0.53923,0.91735,0.25444,-2.32778,-5.75803,0.43722,-0.08718,0.91107,-11.95365,-30.98990,40.27065,-14.88360,-0.61484,-0.05592,-0.42376,-0.66277,-34.13412,137.05440,18.36959
0.48828,0.85986,0.25149,-2.62404,-5.39095,0.29090,0.11765,0.75355,-11.33840,-25.29103,37.13759,-15.47793,-0.62018,-0.01463,-0.38041,-0.68590,5.11210,29.34848,48.21650
0.42826,0.82230,0.23804,-2.99865,-4.78896,0.00757,1.38477,-0.63785,-9.84613,-14.29390,33.01333,-16.87983,-0.62089,0.04801,-0.38474,-0.68130,8.09510,-101.65250,68.71632
0.37719,0.78224,0.22434,-3.15626,-4.34922,-0.22270,2.46922,-2.22576,-8.23471,-8.24012,30.63212,-16.00314,-0.61568,0.11309,-0.40439,-0.66680,-4.39995,-156.40990,99.68320
0.33041,0.74051,0.21200,-3.20441,-4.04712,-0.37166,2.86966,-2.80490,-7.43176,-4.81734,29.59702,-13.65340,-0.61219,0.16770,-0.40180,-0.66005,-17.47909,-131.29690,89.12370
0.28770,0.71807,0.19452,-3.17866,-3.50422,-0.56826,2.98164,-2.24954,-6.79732,3.80501,30.38168,-8.13614,-0.62059,0.19987,-0.38088,-0.65563,9.70982,12.26168,41.89126
0.25002,0.69469,0.18174,-3.07823,-3.08445,-0.64951,2.78230,-1.08696,-6.34292,8.69196,29.49689,-3.68325,-0.63361,0.21443,-0.34451,-0.65869,16.10634,70.91695,42.66288
0.21560,0.67639,0.17121,-2.94609,-2.67617,-0.67491,2.45805,-0.10628,-5.72377,10.10334,28.85191,0.19630,-0.64472,0.21955,-0.31182,-0.66249,10.78744,73.82612,54.92875
0.18167,0.65992,0.16269,-2.83583,-2.33790,-0.66099,1.94215,0.23885,-5.21116,9.68115,26.97147,2.23523,-0.64478,0.22814,-0.28836,-0.67011,-18.24748,49.70493,50.23109
0.15234,0.65469,0.15621,-2.67673,-1.88632,-0.61713,1.06088,0.10492,-4.43599,8.91239,23.76935,2.34187,-0.63288,0.23242,-0.28280,-0.68225,-51.28860,2.76874,44.88237
0.12271,0.64638,0.14966,-2.55019,-1.57947,-0.58262,0.52023,0.02986,-4.00372,8.85083,20.77412,2.52303,-0.62255,0.24162,-0.27260,-0.69263,-43.29011,-1.68392,35.01800
0.09474,0.63812,0.14342,-2.42544,-1.34880,-0.55138,0.29322,0.36571,-3.72975,11.39222,19.11255,2.41936,-0.61892,0.24587,-0.25295,-0.70179,-22.86297,19.37822,22.76595
0.07363,0.63678,0.13738,-2.21524,-1.05591,-0.52468,0.40381,1.09724,-3.20280,13.30207,18.26028,0.35359,-0.62709,0.23704,-0.22933,-0.70567,10.42402,43.21518,36.14173
0.05277,0.63508,0.13042,-2.04679,-0.83498,-0.51859,0.86117,1.51692,-2.92985,11.83084,14.34688,0.64514,-0.64002,0.23648,-0.20279,-0.70238,42.79953,35.34480,17.40714
0.03243,0.63546,0.12403,-1.90783,-0.63088,-0.50247,0.87220,1.12494,-2.52467,9.73216,14.27981,1.92055,-0.64218,0.24393,-0.19580,-0.69983,12.45672,-19.52154,29.65406
0.01224,0.63703,0.11861,-1.80127,-0.45823,-0.47455,0.55926,0.62221,-2.40417,8.73203,13.74873,3.08522,-0.63464,0.25679,-0.19129,-0.70334,-23.55054,-39.42997,16.47289
-0.00488,0.64175,0.11470,-1.66968,-0.27661,-0.42905,0.03518,0.17206,-2.35238,10.11177,12.03822,3.53572,-0.61999,0.26995,-0.18936,-0.71196,-42.61012,-31.96960,3.69623
-0.01727,0.64801,0.11169,-1.48663,-0.11004,-0.37694,-0.47169,-0.00014,-2.20441,11.91657,9.19516,3.33493,-0.60508,0.27680,-0.18706,-0.72268,-36.40664,-10.87593,10.18139
-0.02886,0.65185,0.10844,-1.33397,-0.02168,-0.34180,-0.38727,0.38146,-2.09407,12.48698,7.00021,2.49172,-0.60337,0.27593,-0.17162,-0.72826,-12.49545,18.05823,9.18507
-0.03665,0.65594,0.10567,-1.15641,0.04907,-0.30754,0.04454,0.77057,-1.89232,13.08109,4.31868,2.42073,-0.61136,0.27284,-0.15368,-0.72676,36.44964,29.69919,9.35807
-0.04087,0.66082,0.10382,-0.95694,0.11696,-0.26272,0.32963,0.94586,-1.63492,12.72477,3.74576,3.52237,-0.61822,0.27017,-0.14065,-0.72459,24.77528,11.33463,14.38420
-0.04676,0.66499,0.10233,-0.83409,0.15738,-0.22501,0.29928,0.96412,-1.46708,12.38566,3.66594,4.38119,-0.61863,0.26905,-0.13130,-0.72640,8.26181,3.20125,16.72911
-0.04616,0.67131,0.10360,-0.63626,0.22266,-0.15133,0.06428,1.04916,-1.28873,12.60291,4.20123,5.04852,-0.61512,0.26422,-0.12357,-0.73249,-11.33481,4.67063,14.23909
-0.04417,0.67794,0.10548,-0.45728,0.27849,-0.08291,-0.28816,1.20350,-1.18924,12.92359,3.06095,5.11822,-0.60767,0.25743,-0.11441,-0.74254,-21.21129,13.25270,5.64286
-0.03989,0.68402,0.10820,-0.28213,0.31230,-0.01663,-0.84456,1.26103,-0.86368,12.94723,1.26467,4.20327,-0.59541,0.24606,-0.11406,-0.75626,-34.98074,10.61348,17.90758
-0.03209,0.68940,0.11093,-0.08646,0.32820,0.03377,-1.38326,1.10941,-0.29845,11.92524,0.86889,2.11020,-0.58205,0.23290,-0.12536,-0.76893,-35.91622,-7.99886,41.10836
-0.02394,0.69398,0.11239,0.07264,0.32673,0.05314,-1.49825,1.13284,-0.00397,10.69586,-0.37321,0.78795,-0.57469,0.22058,-0.12855,-0.77753,-11.48594,2.75054,25.56987
-0.01372,0.69771,0.11334,0.23157,0.31131,0.05919,-1.53969,1.09728,0.30406,9.47813,-1.17388,0.08901,-0.56865,0.20830,-0.13395,-0.78441,-0.56517,0.09757,19.33112
-0.00417,0.70121,0.11389,0.34136,0.29626,0.05677,-1.47198,1.16355,0.40295,8.76559,-0.77104,-0.46491,-0.56403,0.19673,-0.13425,-0.79066,0.13222,0.07394,15.77739
0.00792,0.70423,0.11378,0.46695,0.27648,0.04468,-1.17236,1.51087,0.23068,8.60195,-1.67248,-0.95448,-0.56454,0.18361,-0.12207,-0.79542,17.53688,20.50102,-10.86207
0.02227,0.70593,0.11322,0.60288,0.23888,0.02685,-0.88009,1.85451,0.14755,8.83607,-3.08153,-1.34335,-0.56693,0.16808,-0.10899,-0.79903,19.29325,24.37181,-13.77795
0.03640,0.70723,0.11242,0.70155,0.20440,0.00849,-0.75426,1.99888,0.25207,8.24254,-3.10134,-1.74931,-0.56751,0.15185,-0.10264,-0.80271,12.28781,15.02943,3.93634
0.05256,0.70757,0.11070,0.80962,0.16277,-0.02088,-0.60225,2.10517,0.41531,7.48608,-3.01931,-2.47018,-0.56971,0.13433,-0.09804,-0.80484,11.24905,9.18747,9.80123
0.06948,0.70721,0.10824,0.90464,0.11885,-0.05612,-0.43963,2.11673,0.63201,6.55826,-3.35509,-2.63921,-0.57311,0.11701,-0.09649,-0.80532,13.68998,4.92983,10.66735
0.08693,0.70650,0.10541,0.98539,0.07960,-0.09038,-0.35944,2.00608,0.96541,5.45609,-2.37237,-2.36544,-0.57574,0.09946,-0.10128,-0.80521,11.43074,-5.12349,22.29795
0.10491,0.70638,0.10211,1.05651,0.05963,-0.12445,-0.36867,1.89838,1.19659,4.64120,-0.46406,-2.44417,-0.57623,0.08263,-0.10637,-0.80611,3.93951,-8.85659,20.07958
0.12283,0.70747,0.09854,1.10983,0.05992,-0.15510,-0.39750,1.88489,1.21157,3.94048,0.49530,-2.57071,-0.57552,0.06685,-0.10647,-0.80807,-1.16244,-3.67626,8.16845
0.14146,0.71093,0.09404,1.16823,0.06965,-0.19711,-0.45044,1.85474,1.19383,3.66651,0.22086,-2.84561,-0.57377,0.05196,-0.10602,-0.81046,-3.20372,-0.00296,-3.09922
0.16004,0.71413,0.08908,1.21296,0.07832,-0.23710,-0.50421,1.75558,1.31447,3.18209,0.35920,-3.06667,-0.57174,0.03652,-0.11023,-0.81218,-2.73759,-6.95137,8.26173
0.17952,0.71602,0.08298,1.25835,0.08512,-0.28516,-0.51871,1.58599,1.54132,2.75881,0.27102,-2.97664,-0.57016,0.02116,-0.11898,-0.81260,1.11249,-9.38188,12.23035
0.19896,0.71754,0.07686,1.29079,0.09088,-0.32219,-0.51972,1.38692,1.84900,2.05818,0.50791,-2.35155,-0.56855,0.00518,-0.13197,-0.81198,3.04906,-12.94721,21.33776
0.21823,0.71933,0.07089,1.31230,0.10002,-0.34717,-0.53063,1.24192,2.07805,1.47519,1.11326,-1.87225,-0.56637,-0.01091,-0.14489,-0.81124,3.11168,-12.32369,22.19664
0.23776,0.72215,0.06440,1.33364,0.12438,-0.37478,-0.56143,1.12589,2.27158,1.01760,2.05210,-1.36355,-0.56334,-0.02727,-0.15835,-0.81045,0.99488,-7.60462,13.15134
0.25697,0.72560,0.05822,1.34490,0.15325,-0.39034,-0.63159,1.07956,2.36668,0.71476,2.72426,-1.10337,-0.55900,-0.04393,-0.16974,-0.81042,-2.58585,-5.08552,9.95816
0.27612,0.72979,0.05194,1.35263,0.18685,-0.40353,-0.71130,1.07083,2.41372,0.45967,2.92212,-1.05004,-0.55380,-0.06090,-0.18002,-0.81068,-6.66115,-2.80394,5.92209
0.29546,0.73546,0.04492,1.36093,0.23747,-0.42517,-0.71813,1.24873,2.33014,0.05289,2.99552,-1.17610,-0.55051,-0.08004,-0.18442,-0.81026,-2.46794,6.86444,-1.94773
0.31463,0.74071,0.03800,1.36419,0.26987,-0.44010,-0.66443,1.50913,2.12164,0.03999,2.80229,-1.22028,-0.54939,-0.09948,-0.18306,-0.80918,-0.14093,19.16104,-15.77379
0.33367,0.74650,0.03073,1.36448,0.30278,-0.45673,-0.61430,1.80869,1.88169,-0.24621,2.81974,-1.40192,-0.54906,-0.12002,-0.17769,-0.80781,-0.32791,23.26742,-20.17104
0.35200,0.75383,0.02264,1.35321,0.35397,-0.48429,-0.56704,2.24863,1.43997,-0.97600,2.99692,-1.59996,-0.55030,-0.14125,-0.16262,-0.80670,-2.97456,23.86687,-25.92003
0.37001,0.76098,0.01470,1.33927,0.39083,-0.50374,-0.59410,2.50368,1.17314,-1.23025,3.03010,-1.60917,-0.54927,-0.16186,-0.15068,-0.80586,-5.81788,21.75214,-24.34174
0.38742,0.76900,0.00628,1.31898,0.43301,-0.52608,-0.64613,2.73810,0.95431,-1.43241,2.87930,-1.66276,-0.54746,-0.18325,-0.13740,-0.80488,-7.79098,16.31621,-17.46233
0.40417,0.77780,-0.00274,1.29242,0.47902,-0.55391,-0.69610,2.93972,0.83531,-1.63128,2.84277,-1.85331,-0.54503,-0.20585,-0.12490,-0.80310,-6.04575,12.89075,-9.01083
0.42075,0.78663,-0.01168,1.26903,0.51482,-0.57388,-0.74463,3.03067,0.86103,-2.02813,3.01964,-1.57827,-0.54134,-0.22881,-0.11623,-0.80068,-3.63425,9.63289,-0.22884
0.43639,0.79646,-0.02092,1.23591,0.55837,-0.59421,-0.83343,3.11034,0.89994,-2.67079,3.13691,-1.34613,-0.53596,-0.25243,-0.10755,-0.79841,-5.17598,6.04997,3.57878
