posX, posY, posZ, velX, velY, velZ, angVelX, angVelY, angVelZ, accX, accY, accZ, rotX, rotY, rotZ, rotW, angAccX, angAccY, angAccZ
-0.04983,1.17599,-0.59081,-0.60142,0.47213,-0.23618,1.55607,1.16982,0.55515,0.21755,0.26597,0.66296,-0.26964,-0.90161,-0.04575,-0.33512,5.88474,6.10116,-0.70276
-0.05784,1.18244,-0.59391,-0.59551,0.47139,-0.23241,1.34348,1.11589,0.53921,0.47292,-0.25381,0.41218,-0.26828,-0.90450,-0.04930,-0.32784,-13.83640,-3.37804,0.37714
-0.06569,1.18876,-0.59689,-0.58836,0.46795,-0.22773,1.17072,1.04715,0.48224,0.43756,-0.22177,0.07785,-0.26795,-0.90671,-0.05221,-0.32148,-15.76447,-6.11697,-2.52233
-0.07358,1.19518,-0.59984,-0.58358,0.46736,-0.22331,1.20083,1.05060,0.37690,0.16565,0.02839,0.04504,-0.27097,-0.90864,-0.05833,-0.31234,-2.30572,-1.16853,-6.96365
-0.08163,1.20185,-0.60273,-0.58265,0.47099,-0.21904,1.39716,1.12950,0.25208,-0.06235,0.33573,0.13514,-0.27684,-0.91043,-0.06795,-0.29976,10.04079,5.29792,-8.51624
-0.08984,1.20850,-0.60559,-0.58494,0.47375,-0.21527,1.57149,1.21230,0.16396,-0.09449,0.02062,0.50871,-0.28268,-0.91216,-0.07822,-0.28625,14.41138,7.73160,-7.16241
-0.09798,1.21468,-0.60832,-0.58530,0.46765,-0.21005,1.54445,1.20037,0.13492,0.19161,-0.74250,0.63614,-0.28596,-0.91370,-0.08533,-0.27584,2.33811,1.47928,-3.02803
-0.10584,1.22043,-0.61095,-0.58065,0.45528,-0.20471,1.54375,1.18291,0.11168,0.34277,-1.02428,0.10242,-0.28930,-0.91495,-0.09286,-0.26560,-4.03202,-2.48077,-1.54178
-0.11368,1.22568,-0.61362,-0.57759,0.43815,-0.20053,1.67147,1.22156,0.09508,0.11185,-1.45318,0.08851,-0.29372,-0.91604,-0.10333,-0.25283,6.89708,2.25520,-1.85824
-0.12155,1.23037,-0.61643,-0.57554,0.41557,-0.20001,1.74941,1.26376,0.10446,0.31285,-2.39535,0.17095,-0.29738,-0.91720,-0.11350,-0.23966,10.54677,4.15633,-0.01385
-0.12899,1.23316,-0.61937,-0.56634,0.36541,-0.20193,1.62261,1.25316,0.09834,0.87615,-4.01998,0.18897,-0.29980,-0.91839,-0.11903,-0.22917,-4.01916,0.34552,0.33601
-0.13573,1.23449,-0.62242,-0.54685,0.30138,-0.20542,1.19346,1.11719,0.07844,1.80239,-5.20903,0.03496,-0.29986,-0.91969,-0.11678,-0.22498,-24.40608,-7.59687,0.42685
-0.14185,1.23489,-0.62556,-0.52178,0.23796,-0.20951,0.71000,0.99732,0.03234,2.29800,-5.38199,-0.27592,-0.29950,-0.92116,-0.10990,-0.22291,-39.94360,-10.73441,-0.75108
-0.14695,1.23328,-0.62859,-0.48545,0.15574,-0.21058,0.21295,0.87350,-0.05736,2.10371,-4.88169,-0.22472,-0.29955,-0.92230,-0.09929,-0.22312,-35.11552,-8.91948,-2.99806
-0.15181,1.23171,-0.63140,-0.45335,0.09326,-0.20744,0.06049,0.89799,-0.20198,2.31772,-4.10564,0.07483,-0.30364,-0.92274,-0.09335,-0.21826,-16.72389,-0.10063,-8.61437
-0.15640,1.23023,-0.63391,-0.42456,0.04777,-0.20012,0.07586,0.94660,-0.33791,2.44875,-3.50279,0.74201,-0.30951,-0.92267,-0.09052,-0.21142,-2.95834,4.65654,-10.98303
-0.16003,1.22793,-0.63567,-0.38626,-0.00109,-0.18188,0.17375,0.97605,-0.44987,2.45618,-2.54758,1.38543,-0.31617,-0.92212,-0.09002,-0.20402,4.44776,2.50645,-8.29534
-0.16351,1.22601,-0.63690,-0.35356,-0.03289,-0.15901,0.27933,0.95634,-0.46936,2.43984,-1.97497,1.92170,-0.32111,-0.92177,-0.09123,-0.19725,8.75993,-0.30504,-3.76029
-0.16683,1.22427,-0.63783,-0.32663,-0.05388,-0.13681,0.30880,0.91043,-0.42728,2.29801,-1.53383,1.99493,-0.32407,-0.92186,-0.09174,-0.19165,3.94040,-3.79800,1.22905
-0.16910,1.22199,-0.63788,-0.28743,-0.07971,-0.10478,0.20150,0.81014,-0.29034,2.29130,-1.47673,1.87777,-0.32332,-0.92291,-0.09013,-0.18864,-4.27994,-5.37270,7.25026
-0.17126,1.21967,-0.63807,-0.25439,-0.10075,-0.08183,-0.06649,0.68717,-0.16351,2.58804,-1.51805,1.83547,-0.32084,-0.92439,-0.08417,-0.18838,-15.85147,-7.49514,9.83694
-0.17278,1.21732,-0.63790,-0.21842,-0.11696,-0.05819,-0.30241,0.56086,-0.08793,2.37007,-0.73906,1.42029,-0.31849,-0.92556,-0.07732,-0.18951,-21.33704,-10.75730,8.37555
-0.17419,1.21543,-0.63752,-0.18997,-0.12087,-0.03720,-0.32707,0.52187,-0.08990,2.22715,0.09492,1.55784,-0.31876,-0.92610,-0.07366,-0.18790,-6.52343,-4.28085,1.20433
-0.17510,1.21405,-0.63667,-0.16019,-0.11466,-0.01340,-0.27103,0.48318,-0.10615,1.96439,0.78394,1.60467,-0.31985,-0.92626,-0.07204,-0.18587,3.21298,-2.84571,-0.94147
-0.17576,1.21342,-0.63544,-0.13287,-0.09693,0.01176,-0.18219,0.42538,-0.09019,1.66807,1.49987,1.54838,-0.32043,-0.92641,-0.07206,-0.18410,5.64188,-3.47756,-0.28051
-0.17661,1.21315,-0.63432,-0.11519,-0.07734,0.02921,-0.14213,0.35614,-0.02724,1.43680,1.81259,1.51242,-0.31940,-0.92697,-0.07188,-0.18313,4.49322,-4.22888,4.18460
-0.17722,1.21358,-0.63286,-0.09770,-0.05070,0.04829,-0.06880,0.26064,0.06505,1.13195,2.02099,1.17625,-0.31726,-0.92763,-0.07355,-0.18287,4.83542,-7.44286,6.56098
-0.17772,1.21458,-0.63142,-0.08248,-0.02024,0.06248,-0.01037,0.17302,0.15058,0.79294,1.76912,0.62680,-0.31471,-0.92833,-0.07547,-0.18293,4.00040,-5.53608,5.72376
-0.17836,1.21543,-0.63027,-0.07378,-0.00115,0.06705,-0.02343,0.11341,0.20363,0.65846,1.42529,0.29559,-0.31220,-0.92908,-0.07573,-0.18334,1.58109,-4.59744,4.20550
-0.17892,1.21654,-0.62930,-0.06607,0.01761,0.06743,-0.01948,0.04825,0.23436,0.31458,1.29265,-0.26871,-0.30989,-0.92961,-0.07644,-0.18426,-2.18487,-5.49665,4.02136
-0.17965,1.21791,-0.62859,-0.06256,0.03688,0.06383,0.07014,0.03283,0.19302,0.07605,1.08157,-0.38006,-0.30993,-0.92953,-0.07884,-0.18356,5.90267,-0.83429,-2.83616
-0.18057,1.21905,-0.62820,-0.06245,0.04844,0.05666,0.15809,0.04059,0.13389,-0.14210,0.89926,-0.93934,-0.31084,-0.92927,-0.08145,-0.18224,5.85186,-0.90385,-2.80051
-0.18167,1.22037,-0.62837,-0.06546,0.06037,0.04221,0.28278,0.10838,0.03380,-0.34130,0.72452,-1.05041,-0.31377,-0.92865,-0.08484,-0.17877,10.29256,4.83188,-7.37343
-0.18296,1.22171,-0.62891,-0.07120,0.06929,0.02407,0.30839,0.14957,-0.03879,-0.42215,0.64226,-1.37837,-0.31619,-0.92817,-0.08644,-0.17621,3.25979,3.22531,-4.96856
-0.18459,1.22332,-0.63001,-0.08093,0.08168,0.00168,0.26394,0.17938,-0.09094,-0.64389,0.93861,-1.10199,-0.31826,-0.92785,-0.08639,-0.17421,0.01004,3.42950,-5.12488
-0.18658,1.22526,-0.63121,-0.09504,0.09689,-0.01782,0.07733,0.13125,-0.03634,-1.14756,1.34192,-1.48227,-0.31678,-0.92841,-0.08336,-0.17537,-13.06480,-3.81599,3.35610
-0.18901,1.22797,-0.63260,-0.11372,0.12146,-0.03678,0.02418,0.15085,-0.00482,-1.64089,2.27057,-1.48654,-0.31607,-0.92897,-0.08201,-0.17434,-7.88743,-0.31978,3.22320
-0.19205,1.23163,-0.63405,-0.13821,0.15686,-0.05142,0.13389,0.21949,0.02441,-1.80071,2.83685,-1.02827,-0.31614,-0.92947,-0.08423,-0.17045,5.59453,4.76801,2.04452
-0.19524,1.23580,-0.63542,-0.15894,0.19157,-0.06121,0.26995,0.26921,0.04072,-1.66068,2.98866,-0.72734,-0.31664,-0.92974,-0.08795,-0.16607,11.08425,4.66796,1.17669
-0.19902,1.24114,-0.63698,-0.18475,0.23812,-0.07192,0.42905,0.30938,0.03749,-1.53272,2.81915,-0.55805,-0.31781,-0.92971,-0.09310,-0.16112,10.36377,2.92078,0.31076
-0.20266,1.24638,-0.63854,-0.20193,0.27218,-0.07984,0.49133,0.31529,0.01663,-1.48017,2.89254,-0.55767,-0.31914,-0.92951,-0.09680,-0.15744,7.59418,1.08460,-1.82628
-0.20686,1.25273,-0.64043,-0.22424,0.31646,-0.09122,0.48242,0.30937,0.01377,-1.67797,3.58477,-0.80799,-0.31981,-0.92952,-0.09911,-0.15455,0.10541,-0.61426,-0.44585
-0.21191,1.26086,-0.64240,-0.25665,0.38149,-0.10193,0.43042,0.27135,0.08728,-2.21305,4.68174,-0.47371,-0.31817,-0.93019,-0.10083,-0.15277,-3.09242,-2.22492,3.56001
-0.21741,1.27011,-0.64412,-0.28924,0.45136,-0.10580,0.51086,0.26706,0.13831,-2.56742,5.42199,-0.36570,-0.31714,-0.93060,-0.10544,-0.14932,0.81585,-2.26081,5.94585
-0.22293,1.27965,-0.64555,-0.31366,0.50692,-0.10410,0.72450,0.31298,0.09286,-2.69830,5.83465,0.06364,-0.31931,-0.92986,-0.11354,-0.14321,13.32113,2.35022,-0.47732
-0.23022,1.29306,-0.64623,-0.36213,0.61480,-0.09034,1.32333,0.40785,-0.08596,-3.20308,5.93161,1.39284,-0.32743,-0.92626,-0.13237,-0.13158,33.61610,7.30734,-9.12090
-0.23784,1.30652,-0.64653,-0.40592,0.70121,-0.07370,1.70136,0.43449,-0.17060,-2.43231,6.53136,1.01549,-0.33351,-0.92281,-0.14945,-0.12192,31.25500,4.16683,-11.14094
-0.24580,1.32158,-0.64741,-0.44536,0.79378,-0.07089,1.79067,0.43930,-0.01377,-3.60058,6.00607,0.26708,-0.33252,-0.92201,-0.16238,-0.11380,12.38760,-2.89288,12.99209
-0.25519,1.33747,-0.64833,-0.50020,0.87865,-0.06999,1.84794,0.48099,0.00324,-4.22376,6.28791,-0.20876,-0.33439,-0.92024,-0.17407,-0.10510,4.86308,2.69948,0.36963
-0.26652,1.35563,-0.64960,-0.57675,0.98442,-0.07512,2.00047,0.67667,-0.04440,-5.59764,7.19762,-0.50391,-0.33867,-0.91766,-0.18664,-0.09146,5.74137,10.22834,-1.03617
-0.27860,1.37436,-0.65059,-0.64774,1.07348,-0.07396,2.24372,0.92684,-0.10156,-6.51319,7.94445,0.40270,-0.34426,-0.91402,-0.20148,-0.07381,17.17976,19.46860,-2.67668
-0.29410,1.39657,-0.65103,-0.75949,1.21119,-0.05822,2.69545,1.40706,-0.02879,-7.15935,9.47562,1.44053,-0.34878,-0.90971,-0.22072,-0.04546,28.17455,27.43747,2.11813
-0.31079,1.42010,-0.65049,-0.86607,1.33919,-0.02805,2.93432,1.71966,0.26918,-7.50547,9.06746,3.43962,-0.34621,-0.90725,-0.23815,-0.01794,24.16260,25.94754,19.67399
-0.32834,1.44453,-0.64863,-0.96087,1.44477,0.01478,2.94918,1.79790,0.68331,-7.68700,8.50749,4.43813,-0.33721,-0.90678,-0.25300,0.00501,10.25912,5.64751,30.40133
-0.34827,1.47062,-0.64498,-1.07024,1.55533,0.07837,2.83815,1.77228,1.21519,-7.87079,7.49202,4.97230,-0.32126,-0.90866,-0.26545,0.02589,-4.14602,-9.10093,39.59370
-0.37016,1.49798,-0.63885,-1.18873,1.66344,0.17254,3.02429,1.97084,1.54056,-7.57733,6.25283,6.51918,-0.30854,-0.90681,-0.28202,0.05449,9.12945,5.18967,25.05828
-0.39205,1.52506,-0.63065,-1.28093,1.73738,0.27875,3.36506,2.26850,1.60026,-6.11674,4.58485,8.39501,-0.30146,-0.90019,-0.30183,0.08761,22.53793,21.72177,7.78451
-0.41386,1.55168,-0.62074,-1.34692,1.78509,0.38667,3.67366,2.50740,1.57825,-5.02130,3.51809,9.75637,-0.29580,-0.89096,-0.32254,0.12109,23.69151,23.10997,0.26542
-0.43654,1.57835,-0.60712,-1.41051,1.82176,0.53116,3.95663,2.65650,1.63954,-3.54409,1.69943,11.26542,-0.28735,-0.88028,-0.34434,0.15479,22.38720,18.54905,1.05663
-0.45937,1.60433,-0.58948,-1.46326,1.83522,0.71118,4.06101,2.50636,1.88425,-2.60350,-0.06674,11.76477,-0.27142,-0.87188,-0.36475,0.18196,9.96613,-10.03423,10.98818
-0.48141,1.62918,-0.57145,-1.49015,1.82495,0.85289,4.17938,2.41426,2.05572,-1.91236,-1.61627,11.94735,-0.25532,-0.86167,-0.38525,0.20957,11.19525,-13.67556,11.56881
-0.50317,1.65230,-0.54990,-1.50507,1.78775,1.01852,4.33922,2.39325,2.18198,-0.42011,-3.72426,11.66368,-0.23888,-0.84897,-0.40644,0.23872,13.83918,-4.03141,7.31281
-0.52389,1.67301,-0.52716,-1.49701,1.72351,1.17274,4.41903,2.40756,2.27704,1.66282,-5.66120,10.76435,-0.22258,-0.83519,-0.42557,0.26799,9.05327,0.96514,6.56623
-0.54302,1.69091,-0.50380,-1.45907,1.63323,1.31181,4.42110,2.36950,2.30420,4.05357,-7.30411,9.78894,-0.20690,-0.82091,-0.44318,0.29477,1.67836,-2.04092,3.28426
-0.55908,1.70546,-0.47867,-1.37533,1.50446,1.45267,4.37585,2.22230,2.21049,6.75856,-8.93362,8.29400,-0.19285,-0.80636,-0.46070,0.31677,-1.94712,-6.99941,-5.49236
-0.57210,1.71879,-0.45304,-1.26495,1.37220,1.55125,4.29718,2.04584,1.95375,8.98343,-10.14861,5.92726,-0.18255,-0.79105,-0.47853,0.33456,-5.42220,-10.25902,-16.26816
-0.58202,1.72956,-0.42820,-1.12614,1.22928,1.61557,4.23341,2.12109,1.51762,10.39767,-10.37974,3.41187,-0.18028,-0.77205,-0.49628,0.35375,-9.76747,4.87675,-27.64927
-0.58893,1.73831,-0.40409,-0.96860,1.08495,1.65073,4.19719,2.44416,1.01850,11.73239,-10.28982,1.94173,-0.18490,-0.74856,-0.51354,0.37649,-9.95917,27.37551,-28.03124
-0.59282,1.74533,-0.37998,-0.80169,0.94264,1.67003,4.18677,2.76672,0.49480,12.21843,-10.02199,0.80201,-0.19355,-0.72197,-0.53152,0.39848,-6.94983,35.40352,-29.00508
-0.59591,1.75181,-0.35658,-0.66425,0.82736,1.67173,4.14211,2.90424,0.14805,11.20082,-9.34432,-0.35451,-0.19985,-0.69620,-0.54856,0.41767,-8.22707,22.50072,-27.74212
-0.59553,1.75504,-0.33377,-0.50046,0.68377,1.66301,4.08033,2.95560,-0.11483,9.89868,-8.87730,-0.70956,-0.20547,-0.67051,-0.56482,0.43495,-6.99558,11.68092,-14.30272
-0.59546,1.75786,-0.31132,-0.38010,0.56542,1.64876,3.99651,2.69833,-0.20600,8.10858,-8.16391,-1.50583,-0.20450,-0.64890,-0.58078,0.44699,-6.86552,-10.36236,-11.49516
-0.59510,1.75979,-0.28981,-0.28429,0.46050,1.62135,3.82706,2.18313,-0.18285,6.11773,-7.12882,-2.47046,-0.19777,-0.63317,-0.59547,0.45320,-11.17783,-32.99467,-6.66911
-0.59470,1.76102,-0.26933,-0.21022,0.36972,1.58346,3.65472,1.70047,-0.05981,4.60313,-6.03748,-3.01361,-0.18773,-0.61980,-0.60832,0.45886,-12.53230,-36.57935,0.14297
-0.59462,1.76226,-0.24950,-0.15899,0.30293,1.54537,3.49976,1.29216,0.06336,4.05076,-5.24381,-3.33965,-0.17639,-0.60745,-0.62020,0.46394,-11.89766,-35.14462,3.48181
-0.59371,1.76245,-0.23065,-0.10645,0.23535,1.50065,3.39236,0.92442,0.20412,3.31371,-4.35976,-2.92040,-0.16277,-0.59592,-0.63159,0.46848,-10.34274,-32.70936,2.94697
-0.59187,1.76172,-0.21255,-0.04972,0.16684,1.45285,3.36560,0.54437,0.29339,3.83648,-4.17354,-3.33578,-0.14699,-0.58401,-0.64432,0.47136,-0.03477,-22.23046,3.51299
-0.59001,1.76139,-0.19481,-0.00603,0.12165,1.41025,3.30068,0.24732,0.26549,3.53792,-3.59560,-3.85635,-0.13330,-0.57236,-0.65719,0.47195,-4.47405,-27.22636,-6.85834
-0.58700,1.76025,-0.17862,0.04584,0.07417,1.35238,3.20425,0.00060,0.19848,3.79151,-3.30234,-4.51914,-0.12052,-0.56151,-0.66960,0.47097,-6.15503,-17.57789,-6.40810
-0.58264,1.75839,-0.16476,0.11036,0.02441,1.26592,2.99640,-0.25859,0.03949,3.31561,-2.40850,-5.01114,-0.11001,-0.55344,-0.68134,0.46625,-11.17790,-14.69254,-12.24521
-0.57876,1.75721,-0.15040,0.15162,-0.00216,1.20842,2.90713,-0.27897,-0.01935,3.20459,-1.96217,-4.48515,-0.10068,-0.54179,-0.69230,0.46589,-10.43843,-4.92969,-7.74873
-0.57401,1.75565,-0.13704,0.19733,-0.02858,1.14872,2.87954,-0.21787,-0.06913,3.14760,-1.70703,-3.96978,-0.09234,-0.52816,-0.70338,0.46667,-3.10264,4.14589,-3.07037
-0.56855,1.75367,-0.12427,0.24472,-0.05645,1.09219,2.91505,-0.16599,-0.14428,2.86943,-1.79973,-3.04296,-0.08390,-0.51295,-0.71548,0.46683,1.10609,4.84579,-3.31270
-0.56343,1.75154,-0.11094,0.27481,-0.08014,1.05917,2.98318,-0.20196,-0.23950,2.38322,-2.01143,-2.45016,-0.07399,-0.49752,-0.72862,0.46488,5.21909,0.79085,-6.62118
-0.55811,1.74862,-0.09791,0.30021,-0.11132,1.02970,3.13026,-0.25786,-0.30893,1.33216,-2.42454,-1.79418,-0.06214,-0.48021,-0.74279,0.46238,8.73885,-2.47582,-6.86924
-0.55330,1.74487,-0.08500,0.31087,-0.14946,1.00547,3.29726,-0.42402,-0.36435,0.36939,-3.00125,-1.77898,-0.04697,-0.46299,-0.75754,0.45778,12.34502,-8.18273,-4.85717
-0.54926,1.74029,-0.07231,0.30562,-0.19254,0.98304,3.45901,-0.68420,-0.39128,-1.00816,-3.13959,-1.49443,-0.02824,-0.44649,-0.77223,0.45112,10.48233,-16.93195,-7.31017
-0.54598,1.73535,-0.05979,0.28898,-0.23083,0.96318,3.59289,-0.97709,-0.39962,-1.63152,-3.34431,-1.91035,-0.00686,-0.43058,-0.78633,0.44299,12.44265,-21.34097,-3.34237
-0.54402,1.72889,-0.04834,0.25387,-0.28582,0.92986,3.74991,-1.39306,-0.40775,-2.77438,-3.54852,-2.36620,0.01952,-0.41550,-0.80046,0.43156,9.03259,-25.92337,-7.57825
-0.54281,1.72210,-0.03768,0.21374,-0.33397,0.89047,3.90444,-1.70436,-0.33646,-3.05093,-3.18310,-3.33223,0.04722,-0.39903,-0.81286,0.42167,10.69232,-23.44545,-0.68979
-0.54156,1.71567,-0.02747,0.18514,-0.36347,0.85393,3.98036,-1.88995,-0.26441,-2.93020,-2.94433,-4.13108,0.07366,-0.38241,-0.82353,0.41247,8.49581,-22.30273,1.08943
-0.54173,1.70734,-0.02075,0.13991,-0.41779,0.76776,4.09241,-2.21256,-0.27189,-2.03752,-3.08573,-5.75413,0.10423,-0.36612,-0.83415,0.39910,6.78490,-17.46000,-0.83076
-0.54157,1.69916,-0.01513,0.10934,-0.45810,0.68054,4.13641,-2.46903,-0.41510,-2.06856,-2.69091,-6.94263,0.13243,-0.35053,-0.84482,0.38192,5.20803,-16.24091,-13.62428
-0.54152,1.69117,-0.01081,0.08445,-0.48508,0.59363,4.15064,-2.66241,-0.56998,-2.23716,-1.77180,-7.65096,0.15977,-0.33505,-0.85461,0.36312,3.22764,-13.67889,-16.46283
-0.54229,1.68342,-0.01015,0.05171,-0.50115,0.46539,4.16993,-2.80671,-0.49537,-2.37986,-0.24819,-8.59210,0.18923,-0.31846,-0.86102,0.34844,1.90981,-10.14799,-0.74129
-0.54351,1.67681,-0.01168,0.01807,-0.49444,0.32625,4.11484,-2.93785,-0.21407,-2.10586,1.02385,-9.00489,0.22038,-0.30264,-0.86308,0.33901,-6.12695,-11.23090,13.66090
-0.54468,1.67118,-0.01440,-0.00692,-0.47204,0.19790,4.00324,-3.11182,0.02414,-1.33602,2.14017,-9.56661,0.25249,-0.28852,-0.86283,0.32945,-9.65260,-15.30466,15.15161
-0.54567,1.66641,-0.01828,-0.02226,-0.44057,0.08270,3.85297,-3.32927,0.08053,-0.78789,3.07177,-9.92563,0.28451,-0.27703,-0.86162,0.31609,-12.15851,-17.60261,3.15652
-0.54640,1.66325,-0.02531,-0.02908,-0.38961,-0.05669,3.63880,-3.58079,0.07232,-0.04235,4.30725,-10.26349,0.31690,-0.26892,-0.85834,0.30085,-13.31706,-18.10504,-9.11615
-0.54618,1.66229,-0.03545,-0.01786,-0.31195,-0.21851,3.34182,-3.83111,0.08254,1.36168,5.38969,-10.18721,0.34926,-0.26411,-0.85222,0.28633,-17.92686,-15.63369,-5.40763
-0.54533,1.66185,-0.04545,0.00120,-0.24446,-0.33883,3.12972,-4.01492,0.04604,1.88907,5.95312,-10.00426,0.38072,-0.25883,-0.84550,0.27054,-16.87885,-13.47721,-10.22021
-0.54338,1.66365,-0.05821,0.03439,-0.15580,-0.47525,2.87442,-4.24659,-0.03213,2.94703,6.79975,-9.67393,0.41282,-0.25685,-0.83634,0.25327,-15.27755,-15.16618,-11.12728
-0.54016,1.66727,-0.07254,0.08107,-0.05756,-0.60607,2.63505,-4.49787,-0.11782,3.81647,7.36192,-9.28908,0.44556,-0.25644,-0.82495,0.23490,-14.63996,-15.05698,-14.63362
-0.53527,1.67267,-0.08856,0.14518,0.04771,-0.73460,2.40126,-4.76670,-0.16650,5.27509,7.89687,-9.22564,0.47930,-0.25730,-0.81063,0.21668,-14.93870,-18.37221,-10.84448
-0.52834,1.68007,-0.10621,0.22875,0.16209,-0.86021,2.15032,-5.04176,-0.25813,6.98118,8.67451,-8.84513,0.51300,-0.26054,-0.79376,0.19723,-15.31581,-19.03310,-12.37478
-0.51897,1.68974,-0.12510,0.33373,0.28758,-0.97692,1.89663,-5.26395,-0.50288,8.40758,9.35019,-8.04848,0.54431,-0.26696,-0.77599,0.17406,-12.95331,-14.08665,-21.64496
-0.50708,1.70158,-0.14490,0.45643,0.42017,-1.08148,1.61487,-5.43717,-0.85034,9.36425,9.67364,-7.19784,0.57288,-0.27718,-0.75702,0.14800,-10.17673,-9.83135,-30.86315
-0.49365,1.71422,-0.16498,0.57424,0.53295,-1.16490,1.32358,-5.61070,-1.08950,10.28365,9.31960,-7.24424,0.60104,-0.28881,-0.73495,0.12321,-13.19654,-8.48976,-30.98773
-0.47448,1.73016,-0.18831,0.76061,0.67413,-1.28314,0.90916,-5.96433,-1.29477,13.15795,8.56249,-7.58740,0.63147,-0.30578,-0.70567,0.09889,-21.86095,-17.88773,-22.77928
-0.45019,1.74728,-0.21305,0.99684,0.80643,-1.40073,0.59558,-6.34048,-1.54949,16.78311,8.17229,-6.85189,0.66161,-0.32313,-0.67285,0.07157,-14.99942,-21.66788,-23.29023
-0.42582,1.76334,-0.23635,1.17380,0.88797,-1.46464,0.47419,-6.54748,-1.76093,19.06307,8.28108,-5.74828,0.68879,-0.33703,-0.64044,0.04264,-10.18565,-20.24802,-23.75816
-0.38985,1.78390,-0.26107,1.49975,1.02365,-1.53528,0.31698,-6.84392,-2.22432,22.47651,8.84714,-2.88569,0.71328,-0.35691,-0.60316,0.00687,0.24920,-18.41152,-29.37924
-0.34681,1.80667,-0.28312,1.87939,1.16950,-1.54494,0.15894,-6.95530,-2.82723,25.76438,9.71278,1.79805,0.73068,-0.38032,-0.56610,-0.03159,5.57121,-9.38901,-37.68015
-0.29922,1.83110,-0.30096,2.25249,1.31155,-1.48001,-0.18941,-6.70673,-3.59222,28.39990,10.75891,6.93410,0.73656,-0.41220,-0.53198,-0.06759,4.15021,11.60767,-51.03767
-0.24505,1.85786,-0.31385,2.64867,1.45897,-1.34485,-0.70095,-6.21702,-4.56952,29.59152,10.56296,11.58919,0.73028,-0.45501,-0.49925,-0.10196,2.41753,31.98263,-72.91753
-0.18410,1.88598,-0.32158,3.06645,1.59383,-1.15314,-1.33143,-5.52616,-5.76263,31.31494,8.71929,15.46900,0.71032,-0.50928,-0.46695,-0.13431,0.72808,45.70557,-92.14262
-0.11583,1.91372,-0.32413,3.50996,1.68867,-0.91860,-1.76573,-4.69202,-7.18341,33.24508,4.30697,18.25716,0.67456,-0.57049,-0.43653,-0.17015,18.04846,50.86357,-107.35570
-0.03968,1.93814,-0.32169,3.98265,1.70262,-0.65468,-1.77436,-3.89331,-8.67574,34.76552,-2.78146,20.12173,0.62446,-0.63098,-0.40774,-0.21371,43.76675,39.27361,-107.96630
0.04031,1.95726,-0.31649,4.39985,1.62308,-0.41105,-1.63219,-3.26720,-9.80761,34.71375,-10.97191,21.17167,0.56787,-0.68500,-0.37706,-0.25714,54.09618,15.35588,-103.89970
0.13467,1.96365,-0.30182,4.96200,1.34315,-0.06443,-1.18812,-2.33641,-10.95090,34.74873,-23.99205,22.19575,0.49336,-0.73530,-0.35490,-0.29996,66.18944,19.08755,-69.93890
0.23034,1.95863,-0.28429,5.41954,0.93094,0.25373,-0.75881,-1.54789,-11.68739,30.14960,-34.92462,23.18381,0.41584,-0.77680,-0.33226,-0.33654,65.22967,20.77700,-54.98834
0.32531,1.94361,-0.26418,5.74930,0.45489,0.53486,-0.31411,-0.95292,-12.05940,24.55457,-44.52197,23.98893,0.33777,-0.80856,-0.31001,-0.36883,60.54400,13.44150,-38.80848
0.42357,1.90431,-0.23321,6.06522,-0.33783,0.91903,0.64791,-0.43895,-12.17919,14.52429,-54.76442,24.46215,0.25516,-0.82595,-0.29975,-0.40356,64.98907,-11.21924,-11.11697
0.51470,1.85687,-0.19838,6.20722,-1.13820,1.24862,1.57630,-0.35013,-12.21574,5.95932,-61.33939,22.49586,0.17345,-0.83200,-0.28748,-0.44164,57.92803,-40.08048,1.06634
0.60192,1.79353,-0.16057,6.22590,-2.02049,1.54923,2.33416,-0.42347,-12.51296,-2.95848,-66.89500,19.66101,0.08390,-0.83064,-0.26916,-0.48015,40.09478,-43.42476,-16.62829
0.68148,1.70352,-0.12066,6.09419,-3.11889,1.85550,3.14312,-0.17098,-13.24527,-12.78529,-73.92352,19.04624,-0.02440,-0.82286,-0.24892,-0.51025,41.11934,-14.65656,-37.08055
0.75209,1.59958,-0.08019,5.82782,-4.19432,2.10899,4.73166,0.59492,-14.37915,-26.55242,-81.75986,14.16334,-0.16306,-0.79880,-0.24026,-0.52689,94.10438,-25.54450,-90.33176
0.80972,1.48257,-0.04250,5.40827,-5.21330,2.24840,6.63280,1.64894,-15.41639,-44.91909,-88.85345,7.20563,-0.31655,-0.75551,-0.24017,-0.52088,163.58110,-32.11550,-78.22517
0.83846,1.33857,-0.01088,4.59898,-6.43082,2.24498,8.95976,1.96070,-16.26971,-72.43702,-84.30776,-8.28396,-0.47213,-0.67546,-0.24895,-0.50879,134.07450,-82.46863,-107.87140
0.82190,1.17894,0.00514,3.17888,-7.63179,1.96272,12.03864,2.10411,-16.34211,-103.99490,-62.17823,-27.49608,-0.61704,-0.56449,-0.28289,-0.46966,118.65660,-117.79720,-83.53966
0.80155,1.04228,0.01473,2.07192,-8.13887,1.65386,14.19935,1.68289,-15.83799,-116.09140,-37.60821,-35.06221,-0.72783,-0.44015,-0.31552,-0.42068,103.69910,-161.35360,-89.87196
0.70544,0.91234,-0.00289,-0.06031,-8.38319,0.95405,18.55231,-0.59024,-13.89740,-115.05610,12.41918,-43.50898,-0.79870,-0.25943,-0.42151,-0.34221,48.11466,-225.50040,-129.55040
0.61890,0.81878,-0.02171,-1.56633,-7.97400,0.38832,21.34387,-3.84716,-11.87206,-97.06056,44.19767,-34.00864,-0.80850,-0.06878,-0.52307,-0.26075,52.18066,-313.59020,-217.81850
0.54731,0.74177,-0.03527,-2.41411,-7.40261,0.06547,20.17763,-6.04653,-10.85738,-75.52328,62.21686,-21.98588,-0.78789,0.07385,-0.56713,-0.22835,-93.82135,-153.22400,-221.99790
0.46025,0.70888,-0.04661,-3.29512,-6.22354,-0.13244,14.36992,-7.43769,-9.97798,-39.99643,73.41370,1.11138,-0.74537,0.12974,-0.58200,-0.29810,-312.02330,121.07090,-136.74640
0.39667,0.67928,-0.04085,-3.58392,-5.25421,0.00184,6.37626,-4.16736,-9.27511,-7.90165,58.51766,18.84066,-0.74797,0.07619,-0.51235,-0.41501,-363.53000,416.42560,29.55309
0.34538,0.65159,-0.02575,-3.60162,-4.48172,0.25803,-0.13621,-0.53553,-8.38669,4.67056,59.21273,14.20060,-0.73970,-0.00582,-0.41461,-0.53001,-355.06480,528.03980,38.62552
0.29888,0.63090,-0.01082,-3.53813,-3.77527,0.45013,-3.40820,1.72692,-7.08352,8.25347,48.97282,9.56361,-0.72372,-0.06660,-0.34025,-0.59668,-146.89890,301.60960,67.50390
0.25640,0.61404,0.00034,-3.42197,-3.17205,0.53252,-5.08943,3.18901,-6.13260,11.10656,40.80822,0.89025,-0.70547,-0.10971,-0.27355,-0.64455,-71.38595,181.98790,43.59053
0.21725,0.59981,0.00519,-3.27736,-2.66656,0.48811,-5.29358,3.76362,-5.11740,11.84575,33.55757,-8.05192,-0.69384,-0.13693,-0.22860,-0.66901,-2.58464,86.63237,45.51831
0.18170,0.58839,0.00202,-3.10774,-2.22750,0.31473,-4.54914,4.02494,-4.34696,10.64469,24.43377,-14.38295,-0.69441,-0.15146,-0.19258,-0.67658,53.18044,19.37947,33.76527
0.14647,0.57446,-0.00565,-2.97192,-1.92975,0.10439,-3.34493,3.92226,-3.73311,8.84401,19.59765,-15.74592,-0.70343,-0.15589,-0.16645,-0.67319,88.78064,-17.17959,27.36850
0.11112,0.56042,-0.01491,-2.87121,-1.70928,-0.07858,-2.42802,4.03828,-3.47446,7.22783,17.88400,-14.44815,-0.71381,-0.15974,-0.13278,-0.66883,88.18750,-17.83480,11.68402
0.07789,0.55141,-0.02776,-2.76099,-1.45865,-0.27664,-1.71957,4.58646,-3.41666,7.58609,17.75879,-13.19781,-0.72618,-0.16912,-0.08631,-0.66077,62.73476,17.24406,-13.18205
0.04751,0.54681,-0.04379,-2.63020,-1.18985,-0.48473,-1.07517,5.33700,-3.23955,8.61662,15.03210,-12.85173,-0.73885,-0.18705,-0.03506,-0.64645,45.01742,45.33972,-12.45499
0.01588,0.53986,-0.05870,-2.54770,-1.02485,-0.62375,-0.37095,5.51681,-2.96769,5.85091,13.25606,-11.27139,-0.75175,-0.20024,0.00383,-0.62830,61.15144,14.38624,5.28575
-0.01591,0.53601,-0.07531,-2.49067,-0.84872,-0.75631,0.48937,5.46714,-3.12274,2.25263,13.21341,-8.10821,-0.77020,-0.20126,0.04351,-0.60365,63.78925,-9.47607,-16.95289
-0.04780,0.53619,-0.09176,-2.44694,-0.64197,-0.85521,1.30089,5.16115,-3.87934,4.33981,13.12359,-4.58065,-0.79120,-0.18311,0.08855,-0.57674,29.12088,-17.54887,-64.75476
-0.07778,0.53683,-0.10542,-2.37797,-0.47743,-0.88406,1.62308,4.52782,-4.23970,8.61808,13.58391,-0.74558,-0.80511,-0.16330,0.12172,-0.55706,19.05675,-45.77875,-52.09225
-0.10093,0.54231,-0.11746,-2.21107,-0.27290,-0.87915,1.70776,3.97967,-4.21954,15.68966,14.38477,1.59017,-0.81446,-0.14880,0.14831,-0.54084,-8.83151,-47.22350,-14.49363
-0.11588,0.55023,-0.12806,-1.94579,-0.07593,-0.85079,1.48392,3.97952,-3.74107,22.22763,12.07294,4.01833,-0.81596,-0.15223,0.17759,-0.52867,2.55088,-14.69490,20.55782
-0.11988,0.55945,-0.13710,-1.55273,0.09813,-0.80245,0.89695,4.52441,-2.57749,26.33598,7.96004,2.91649,-0.80455,-0.18239,0.20834,-0.52539,-17.31469,32.21228,75.98387
-0.12282,0.56528,-0.14696,-1.23681,0.17414,-0.77952,0.73960,5.09957,-1.63562,26.51227,4.96890,1.08048,-0.79453,-0.21666,0.24039,-0.51380,10.62415,44.08768,82.03215
-0.11870,0.57107,-0.15784,-0.88262,0.23096,-0.77901,0.68361,5.75359,-0.70265,23.77123,3.84260,-0.94161,-0.78033,-0.25952,0.27306,-0.49917,24.04252,44.50215,72.71792
-0.10857,0.57144,-0.16786,-0.49938,0.18162,-0.76517,0.94779,5.68423,-1.40038,35.47284,-6.33255,-4.69379,-0.77934,-0.26049,0.31532,-0.47471,-57.36669,47.54610,-88.12672
-0.08826,0.57800,-0.17856,-0.03134,0.25316,-0.76561,1.23551,4.36961,0.80435,30.81478,8.07540,5.27317,-0.77572,-0.30734,0.28244,-0.47332,113.84920,-163.43510,164.95130
-0.06780,0.58466,-0.18861,0.32120,0.30627,-0.75462,0.64949,5.50490,1.68415,27.30507,4.07913,1.70028,-0.74261,-0.36076,0.31618,-0.46734,-4.77899,54.64029,89.05325
-0.04137,0.59316,-0.19901,0.68907,0.37841,-0.75325,0.05193,5.89391,2.86711,18.41523,5.43374,-1.92967,-0.70316,-0.41655,0.33276,-0.47045,-13.21701,35.62345,91.88550
-0.01947,0.60213,-0.21078,0.89741,0.44226,-0.77590,-0.26531,5.62378,3.51077,11.03006,4.99115,-2.67356,-0.67194,-0.45755,0.33911,-0.47345,-3.10694,-16.70225,60.45577
-0.00001,0.61135,-0.22371,1.01439,0.49462,-0.81235,-0.35146,4.98587,3.73255,5.58088,3.46805,-3.39777,-0.64902,-0.48735,0.33905,-0.47572,3.16904,-37.90597,24.27223
0.01775,0.62052,-0.23723,1.07563,0.53369,-0.85104,-0.15102,3.84648,3.61997,2.21221,2.12140,-2.11775,-0.63953,-0.50496,0.32750,-0.47829,24.09292,-64.55363,-6.92348
0.03406,0.62948,-0.25002,1.09775,0.56041,-0.86756,0.06035,2.88206,3.44307,1.46451,2.68520,-1.06547,-0.63278,-0.51944,0.31452,-0.48046,30.48889,-73.97240,-20.11374
0.05051,0.63989,-0.26259,1.11674,0.60482,-0.87576,0.28128,1.85632,3.33367,1.54701,3.40718,0.12103,-0.62936,-0.53039,0.29418,-0.48585,31.73131,-72.36891,-14.64206
0.06705,0.65094,-0.27475,1.13284,0.64884,-0.87547,0.40719,1.17030,3.32113,1.39846,3.91105,0.48019,-0.62289,-0.54300,0.27484,-0.49155,24.84573,-59.68541,-6.26697
0.08358,0.66425,-0.28678,1.14428,0.72045,-0.87307,0.50528,0.58381,3.33866,0.12382,5.24009,0.47949,-0.61606,-0.55482,0.25360,-0.49833,16.70525,-39.26514,-0.13689
0.09911,0.67850,-0.29886,1.13697,0.79214,-0.87166,0.46031,0.35245,3.37984,-0.84677,4.81217,0.31044,-0.60446,-0.56895,0.23807,-0.50424,2.51435,-19.65883,1.88685
0.11406,0.69270,-0.31101,1.12154,0.84506,-0.87192,0.45006,0.20433,3.37581,-1.86391,4.31170,-0.28533,-0.59307,-0.58268,0.22322,-0.50884,-0.95918,-12.91195,0.96597
0.12725,0.70866,-0.32354,1.07955,0.91504,-0.87832,0.55788,0.03300,3.29340,-3.36823,4.49047,-0.54382,-0.58484,-0.59476,0.20654,-0.51143,8.11057,-9.79245,-4.79737
0.13935,0.72495,-0.33618,1.02921,0.97537,-0.88525,0.65044,-0.05545,3.18646,-3.83064,4.27561,-0.31125,-0.57690,-0.60648,0.19109,-0.51269,8.97816,-5.87682,-8.00527
0.15036,0.74201,-0.34872,0.97192,1.03463,-0.88980,0.70857,-0.07859,3.09981,-4.38688,4.28347,-0.21115,-0.56829,-0.61839,0.17664,-0.51327,5.05442,-1.78593,-6.85750
0.15962,0.76026,-0.36122,0.89735,1.10130,-0.89292,0.70325,-0.05081,3.06222,-4.87695,4.01734,-0.09365,-0.55794,-0.63082,0.16328,-0.51391,0.42067,1.97521,-3.17893
0.16856,0.77823,-0.37371,0.83569,1.14695,-0.89434,0.74615,-0.03896,3.04864,-5.56659,3.77556,-0.39228,-0.54769,-0.64340,0.14870,-0.51377,-0.72904,2.43475,0.16435
0.17589,0.79699,-0.38647,0.76341,1.19414,-0.90103,0.84328,-0.00173,3.04636,-6.46209,3.89315,-0.92539,-0.53791,-0.65652,0.13319,-0.51175,7.00794,1.87600,-2.21249
0.18032,0.81685,-0.40000,0.65932,1.24745,-0.91853,1.07788,0.11522,3.08016,-6.39632,2.58370,-1.28236,-0.52898,-0.67201,0.11554,-0.50521,12.26434,9.11753,2.30404
0.18416,0.83595,-0.41360,0.56859,1.27711,-0.93481,1.29482,0.29348,3.07684,-6.89614,1.90790,-0.98179,-0.52051,-0.68792,0.09898,-0.49601,14.55765,13.61594,1.42114
0.18623,0.85517,-0.42704,0.46814,1.29950,-0.94722,1.38478,0.55582,3.05277,-7.43493,1.29622,-0.61363,-0.51052,-0.70461,0.08604,-0.48526,5.20359,19.02575,-0.13211
0.18757,0.87396,-0.44031,0.38103,1.30944,-0.95253,1.39200,0.81671,3.01842,-7.24065,0.45249,-0.13928,-0.49946,-0.72132,0.07548,-0.47385,-1.54947,21.22081,-0.73366
0.18595,0.89223,-0.45327,0.26557,1.30959,-0.94981,1.20404,1.19596,2.97050,-7.47320,-0.24986,0.81134,-0.48520,-0.73925,0.07186,-0.46144,-13.14414,21.96602,-0.63655
0.18331,0.90991,-0.46567,0.15855,1.30106,-0.93708,0.81724,1.54358,2.94105,-7.85937,-0.86229,1.36553,-0.46697,-0.75684,0.07374,-0.45133,-27.87760,19.29515,1.96204
0.17996,0.92709,-0.47768,0.06626,1.28614,-0.92085,0.37880,1.84954,2.90206,-7.66250,-1.49412,1.65745,-0.44664,-0.77383,0.07970,-0.44197,-37.68145,18.50059,1.44603
0.17360,0.94323,-0.48873,-0.05429,1.25780,-0.89268,-0.29247,2.21677,2.89832,-7.59703,-1.99774,2.13825,-0.42025,-0.79127,0.09448,-0.43401,-44.04922,15.69261,4.85767
