posX, posY, posZ, velX, velY, velZ, angVelX, angVelY, angVelZ, accX, accY, accZ, rotX, rotY, rotZ, rotW, angAccX, angAccY, angAccZ
0.28772,1.19161,-0.37927,-0.60293,0.32652,-0.46457,0.46013,0.78296,0.32756,0.06919,0.15260,0.26783,-0.27305,-0.75733,-0.00710,-0.59317,-11.46422,-0.75950,1.43186
0.27925,1.19639,-0.38542,-0.60478,0.33039,-0.45954,0.28634,0.75335,0.38154,-0.24861,0.13173,-0.00463,-0.26887,-0.76111,-0.00662,-0.59023,-11.19427,-1.61554,2.89549
0.27085,1.20134,-0.39157,-0.60448,0.33632,-0.45576,0.22896,0.78179,0.47876,0.56589,0.64659,0.33703,-0.26492,-0.76612,-0.00854,-0.58550,-4.12566,-0.87860,6.64048
0.26282,1.20647,-0.39744,-0.59816,0.34377,-0.44827,0.17197,0.78694,0.57594,0.18362,0.35973,0.46247,-0.26007,-0.77103,-0.01063,-0.58117,-6.24767,2.26104,7.69004
0.25463,1.21153,-0.40314,-0.59685,0.34867,-0.43916,0.16931,0.77728,0.64181,-0.03559,0.25610,0.84677,-0.25627,-0.77558,-0.01377,-0.57673,4.20303,0.23567,5.03021
0.24655,1.21637,-0.40893,-0.59417,0.34890,-0.43385,-0.15114,0.69272,0.62966,0.10876,0.06740,0.41491,-0.24840,-0.77842,-0.00937,-0.57643,-17.88446,-5.10034,0.96761
0.23846,1.22119,-0.41499,-0.59233,0.34872,-0.43433,-0.38788,0.65388,0.61771,0.18540,-0.18802,-0.68994,-0.24056,-0.78152,-0.00461,-0.57562,-23.36697,-6.38600,-0.44951
0.23042,1.22607,-0.42133,-0.58880,0.34893,-0.43971,-0.30680,0.72701,0.61752,0.48018,-0.11757,-0.85614,-0.23694,-0.78634,-0.00502,-0.57053,-0.70197,3.11019,-0.12652
0.22271,1.23117,-0.42769,-0.58065,0.35292,-0.44423,0.13555,0.89066,0.63588,0.73220,0.37586,-0.58633,-0.23928,-0.79295,-0.01346,-0.56018,23.64036,11.25780,-0.47065
0.21505,1.23672,-0.43393,-0.57369,0.36368,-0.44541,0.71299,1.04978,0.68305,0.27429,1.03907,0.10835,-0.24493,-0.80004,-0.02785,-0.54696,42.29510,14.57290,0.34915
0.20727,1.24263,-0.44008,-0.57145,0.37869,-0.44424,1.10116,1.14963,0.71101,-0.09235,1.24935,0.62494,-0.24981,-0.80643,-0.04129,-0.53439,32.94674,9.48789,1.31066
0.19942,1.24884,-0.44590,-0.57094,0.39529,-0.43759,1.18678,1.11910,0.70295,-0.10732,1.40894,1.05723,-0.25188,-0.81096,-0.05030,-0.52572,12.82762,1.84650,-0.66787
0.19151,1.25522,-0.45148,-0.57113,0.41025,-0.42867,1.03590,1.01760,0.66570,-0.14816,1.33716,1.10010,-0.25106,-0.81423,-0.05426,-0.52063,-6.55081,-6.44456,-2.19076
0.18348,1.26232,-0.45673,-0.57280,0.43397,-0.41650,0.94860,0.90385,0.64396,-0.06922,1.61526,0.06946,-0.25031,-0.81681,-0.05899,-0.51641,-11.73590,-10.78710,-2.01998
0.17525,1.26996,-0.46208,-0.57754,0.46160,-0.40859,1.22396,0.94283,0.69204,-0.36551,2.07550,0.36179,-0.25354,-0.82113,-0.07190,-0.50626,15.38483,2.75685,1.28875
0.16688,1.27789,-0.46738,-0.58310,0.48683,-0.40184,1.51557,0.98918,0.74848,-0.48948,2.09233,0.64745,-0.25754,-0.82541,-0.08717,-0.49474,24.74823,4.44066,3.80369
0.15840,1.28635,-0.47237,-0.58940,0.51471,-0.39203,1.77440,1.01155,0.79185,-0.55788,1.91463,1.00059,-0.26200,-0.82907,-0.10353,-0.48299,21.07808,3.54253,3.00043
0.14965,1.29506,-0.47702,-0.59876,0.54036,-0.37864,1.82310,0.94161,0.81478,-0.68081,1.44873,1.23508,-0.26426,-0.83155,-0.11687,-0.47437,8.71987,-2.04339,1.38866
0.14083,1.30360,-0.48178,-0.60768,0.55821,-0.36963,1.57021,0.79881,0.79633,-0.55518,0.94120,0.39140,-0.26286,-0.83334,-0.12329,-0.47037,-15.45713,-10.30705,-0.69362
0.13206,1.31195,-0.48671,-0.61385,0.56873,-0.36563,1.44949,0.73532,0.78268,-0.51839,0.79305,-0.02343,-0.26251,-0.83547,-0.13094,-0.46470,-13.96287,-7.27954,-1.51990
0.12307,1.32047,-0.49172,-0.62234,0.57961,-0.36402,1.48596,0.74892,0.77867,-0.64423,0.67441,-0.17548,-0.26388,-0.83789,-0.14119,-0.45647,-1.11056,-1.08354,-0.51487
0.11385,1.32899,-0.49670,-0.63232,0.58785,-0.36192,1.69274,0.79713,0.77084,-0.59714,0.31914,0.01137,-0.26782,-0.83991,-0.15528,-0.44578,10.45843,3.98064,-0.07695
0.10462,1.33727,-0.50170,-0.64011,0.59041,-0.36019,2.02120,0.88712,0.75521,-0.55816,0.00009,-0.12205,-0.27426,-0.84141,-0.17282,-0.43238,20.76493,5.44024,-1.06150
0.09539,1.34540,-0.50675,-0.64585,0.58957,-0.36006,2.29729,0.99531,0.71272,-0.48648,-0.12398,0.25048,-0.28195,-0.84256,-0.19044,-0.41752,26.32463,10.72495,-2.99662
0.08592,1.35331,-0.51181,-0.65438,0.58519,-0.36042,2.28017,1.00213,0.65717,-0.63755,-0.29210,0.46880,-0.28705,-0.84344,-0.20309,-0.40616,5.46831,3.59213,-3.45584
0.07629,1.36120,-0.51702,-0.66355,0.58132,-0.36342,1.97822,0.91550,0.63357,-0.84106,-0.27851,-0.10769,-0.28755,-0.84484,-0.20954,-0.39956,-19.17083,-6.62778,-2.43853
0.06645,1.36907,-0.52237,-0.67383,0.57824,-0.36787,1.61542,0.83512,0.63720,-0.76260,-0.14843,-0.36431,-0.28561,-0.84705,-0.21278,-0.39454,-30.24960,-8.48752,-0.07028
0.05631,1.37687,-0.52768,-0.68682,0.57446,-0.37065,1.18359,0.75551,0.65759,-0.62700,-0.32197,-0.13599,-0.28125,-0.85013,-0.21255,-0.39116,-26.05421,-5.70676,2.44739
0.04642,1.38459,-0.53268,-0.69263,0.57003,-0.36770,1.13709,0.75502,0.65667,-0.45203,-0.45685,-0.26709,-0.28108,-0.85197,-0.21861,-0.38387,-13.55009,-3.22705,0.70500
0.03656,1.39194,-0.53767,-0.69623,0.56001,-0.36546,1.50126,0.98273,0.60908,-0.00632,-0.85172,-0.35566,-0.28781,-0.85327,-0.23192,-0.36785,18.96445,12.46404,-1.57265
0.02719,1.39882,-0.54280,-0.69059,0.54446,-0.36614,1.87615,1.26880,0.47554,0.53182,-1.43841,0.10890,-0.29855,-0.85388,-0.24558,-0.34850,28.17456,22.88398,-7.31878
0.01808,1.40533,-0.54792,-0.68203,0.52667,-0.36625,2.05194,1.46523,0.31651,0.75950,-1.65508,0.50214,-0.30944,-0.85401,-0.25611,-0.33064,19.59174,21.04319,-12.14791
0.00927,1.41132,-0.55291,-0.67069,0.50450,-0.36436,1.83690,1.48895,0.13531,0.90175,-1.55298,0.98776,-0.31745,-0.85468,-0.25850,-0.31926,-5.66826,8.73632,-12.35641
0.00050,1.41731,-0.55739,-0.66150,0.48835,-0.35354,1.35893,1.35517,0.03678,0.38533,-0.34165,0.94893,-0.32017,-0.85655,-0.25473,-0.31453,-33.84939,-8.29879,-6.43490
-0.00871,1.42397,-0.56110,-0.66185,0.48741,-0.33198,1.09362,1.25039,0.08347,-0.09621,0.35248,1.82713,-0.32093,-0.85861,-0.25475,-0.30804,-21.37619,-7.25108,2.53499
-0.01804,1.43102,-0.56411,-0.66385,0.49245,-0.30405,0.98469,1.14917,0.16332,-0.10387,0.58028,2.57541,-0.32122,-0.86015,-0.25764,-0.30095,-12.39776,-8.48627,7.24849
-0.02729,1.43822,-0.56591,-0.66403,0.49995,-0.26252,1.03541,1.01677,0.24777,0.04000,0.59553,2.84749,-0.32170,-0.86031,-0.26456,-0.29392,-0.10390,-10.42940,5.79118
-0.03630,1.44552,-0.56681,-0.66001,0.50809,-0.21482,1.40280,0.99357,0.29284,0.33924,0.54135,2.43998,-0.32613,-0.85820,-0.27861,-0.28197,19.93551,-3.39997,1.51431
-0.04509,1.45281,-0.56818,-0.65316,0.51259,-0.18692,1.68874,1.05402,0.27024,0.62332,0.17716,2.22261,-0.33256,-0.85584,-0.29166,-0.26809,28.81612,5.12148,-1.41000
-0.05386,1.45760,-0.57275,-0.64615,0.51233,-0.17128,1.75841,1.06563,0.22210,0.54557,-0.01105,1.57387,-0.33815,-0.85390,-0.30111,-0.25659,10.91572,3.35773,-3.82531
-0.06270,1.46248,-0.57771,-0.64106,0.51071,-0.16547,1.58414,1.02306,0.19014,0.57282,0.09696,0.79027,-0.34121,-0.85354,-0.30528,-0.24868,-9.80319,-2.23447,-2.22394
-0.07139,1.46870,-0.58132,-0.63485,0.51351,-0.16176,1.37772,1.01955,0.17934,0.48856,0.56483,0.29051,-0.34355,-0.85413,-0.30735,-0.24076,-15.25948,-3.01508,-0.63384
-0.08009,1.47653,-0.58299,-0.62929,0.52403,-0.15282,1.26822,1.07065,0.21845,0.36737,0.96086,0.81694,-0.34550,-0.85509,-0.31036,-0.23049,-10.29421,3.28949,3.28243
-0.08903,1.48475,-0.58392,-0.62947,0.53857,-0.13364,1.28907,1.08026,0.27294,-0.19383,1.26887,1.61306,-0.34737,-0.85495,-0.31645,-0.21965,-0.54799,1.59813,3.34174
-0.09828,1.49332,-0.58422,-0.63569,0.55569,-0.10819,1.32698,1.03587,0.37283,-0.42210,1.12762,2.03459,-0.34742,-0.85467,-0.32410,-0.20929,4.63055,-1.85286,6.16547
-0.10774,1.50199,-0.58405,-0.64267,0.56957,-0.08156,1.28431,0.93447,0.46403,-0.39727,0.75953,1.89049,-0.34593,-0.85469,-0.33068,-0.20122,-0.81455,-6.77896,6.21833
-0.11711,1.51052,-0.58396,-0.64757,0.57843,-0.06274,1.16900,0.83437,0.53581,-0.32399,0.54555,1.43912,-0.34353,-0.85537,-0.33533,-0.19466,-5.94480,-9.23497,5.62908
-0.12656,1.51910,-0.58375,-0.65247,0.58559,-0.04653,0.98674,0.74596,0.59943,-0.25512,0.31140,0.57422,-0.34011,-0.85700,-0.33767,-0.18936,-11.89824,-7.76401,4.42043
-0.13586,1.52757,-0.58367,-0.65292,0.58855,-0.03701,0.90458,0.77952,0.61695,0.09311,0.03799,0.44242,-0.33890,-0.85825,-0.34027,-0.18103,-5.85561,1.20328,1.83464
-0.14501,1.53580,-0.58359,-0.65162,0.58770,-0.02880,0.87188,0.81613,0.63068,0.24821,-0.21360,0.86775,-0.33800,-0.85918,-0.34348,-0.17202,-2.89222,3.75553,0.77711
-0.15403,1.54375,-0.58291,-0.64957,0.58260,-0.01198,0.69822,0.71590,0.66068,0.17289,-0.49070,1.48218,-0.33461,-0.86103,-0.34441,-0.16746,-8.44170,-4.15060,1.26730
-0.16325,1.55159,-0.58173,-0.65113,0.57627,0.00906,0.53505,0.54986,0.71738,-0.20283,-0.37867,1.54812,-0.32929,-0.86305,-0.34556,-0.16524,-13.49250,-12.84938,3.31360
-0.17275,1.55911,-0.57987,-0.65725,0.56612,0.03703,0.38591,0.35805,0.80426,-0.33648,-1.00491,1.86771,-0.32220,-0.86532,-0.34705,-0.16423,-6.63648,-11.10176,5.65735
-0.18173,1.56678,-0.57726,-0.65972,0.55607,0.05711,0.24685,0.19210,0.82675,-0.51219,-0.68637,0.70895,-0.31574,-0.86737,-0.34771,-0.16456,-14.80612,-17.34923,3.96086
-0.19061,1.57460,-0.57446,-0.66137,0.54919,0.06930,0.50985,0.40359,0.83997,-0.30249,-0.12337,-0.50497,-0.31445,-0.86729,-0.35422,-0.15315,9.38093,5.26875,0.85921
-0.19919,1.58245,-0.57243,-0.65603,0.54620,0.07053,0.91450,0.83484,0.79994,0.47361,-0.38285,-0.21067,-0.31815,-0.86557,-0.36311,-0.13312,29.23196,32.20246,-1.90922
-0.20780,1.58977,-0.57180,-0.64694,0.54166,0.06427,1.07697,1.12542,0.75383,1.05557,-0.66308,-0.09714,-0.32114,-0.86468,-0.36863,-0.11537,17.38295,27.39654,-2.74396
-0.21593,1.59694,-0.57132,-0.63186,0.53558,0.05710,0.93737,1.22622,0.69856,1.30585,-0.55663,-0.15430,-0.32221,-0.86583,-0.36851,-0.10349,-7.25130,9.90996,-2.50980
-0.22372,1.60399,-0.57053,-0.61468,0.52890,0.05698,0.75851,1.23001,0.64153,1.36062,-0.39372,0.37088,-0.32262,-0.86732,-0.36710,-0.09439,-14.14470,1.20191,-3.03455
-0.23134,1.61113,-0.56915,-0.59907,0.52513,0.06703,0.70239,1.20237,0.59015,1.15766,-0.02034,1.14041,-0.32321,-0.86769,-0.36790,-0.08546,-9.85284,-2.16222,-3.60644
-0.23890,1.61839,-0.56657,-0.58613,0.52436,0.09485,0.89851,1.21482,0.54122,0.55973,0.23232,1.90567,-0.32515,-0.86528,-0.37438,-0.07354,8.98908,-0.06683,-4.12693
-0.24665,1.62565,-0.56361,-0.57950,0.52511,0.12543,1.16012,1.23061,0.51229,0.40727,0.11660,2.42601,-0.32715,-0.86152,-0.38360,-0.06016,17.78187,2.88078,-3.06391
-0.25434,1.63234,-0.56120,-0.57481,0.52330,0.15173,1.41588,1.25155,0.48746,0.34416,-0.14416,2.47034,-0.32933,-0.85677,-0.39416,-0.04597,20.63603,2.27453,-3.60848
-0.26155,1.63848,-0.55862,-0.56267,0.51545,0.18148,1.52786,1.14303,0.45614,1.10615,-0.74390,1.65536,-0.33025,-0.85237,-0.40390,-0.03565,10.02179,-3.74156,-3.20839
-0.26840,1.64513,-0.55578,-0.54606,0.50854,0.19129,1.35793,0.98133,0.41942,1.23573,-0.38189,0.21952,-0.32999,-0.85080,-0.40784,-0.03009,-11.71069,-13.36517,-2.96978
-0.27483,1.65180,-0.55324,-0.52800,0.50388,0.19115,1.26906,1.00700,0.36705,1.26951,-0.17756,-0.39285,-0.33199,-0.84870,-0.41116,-0.02088,-10.79142,-5.16592,-3.50100
-0.28076,1.65843,-0.55066,-0.50636,0.49960,0.19222,1.32162,1.19764,0.29663,1.33328,-0.10923,0.43194,-0.33687,-0.84485,-0.41558,-0.00648,-0.07345,13.28683,-4.12094
-0.28676,1.66498,-0.54718,-0.49026,0.49421,0.20747,1.46947,1.32916,0.25289,1.15855,-0.50114,1.63472,-0.34142,-0.83942,-0.42276,0.00888,10.26099,13.46419,-3.27071
-0.29260,1.67130,-0.54308,-0.47544,0.48662,0.22960,1.54980,1.33642,0.23909,1.17651,-0.54273,1.78534,-0.34420,-0.83434,-0.43004,0.02170,6.69149,1.23775,-1.90587
-0.29799,1.67740,-0.53838,-0.45615,0.47696,0.25715,1.55576,1.28114,0.25382,1.50184,-0.86027,1.87977,-0.34563,-0.82999,-0.43655,0.03291,3.65369,-0.26523,-0.11516
-0.30339,1.68355,-0.53379,-0.44021,0.46902,0.27467,1.37117,1.11288,0.30368,1.43697,-0.84564,1.49461,-0.34454,-0.82850,-0.43968,0.03952,-9.83791,-11.93856,2.39720
-0.30854,1.68945,-0.52887,-0.42362,0.45871,0.29300,1.12561,0.91110,0.38790,1.07143,-0.71018,1.26719,-0.34134,-0.82898,-0.44088,0.04366,-18.10334,-16.59213,6.00758
-0.31365,1.69522,-0.52388,-0.41048,0.44865,0.30782,0.96208,0.78308,0.44888,0.99140,-0.88768,1.05336,-0.33845,-0.82912,-0.44231,0.04862,-14.54550,-13.20780,6.30602
-0.31828,1.70046,-0.51860,-0.39225,0.43202,0.32362,0.89852,0.80291,0.44576,0.93788,-1.00936,0.70918,-0.33823,-0.82781,-0.44402,0.05643,-5.76132,-1.84194,0.54983
-0.32276,1.70546,-0.51316,-0.37537,0.41467,0.33854,0.89291,0.88907,0.43777,1.10150,-1.08234,1.23723,-0.33909,-0.82557,-0.44611,0.06656,-0.01640,7.19274,-0.19751
-0.32757,1.71073,-0.50774,-0.36839,0.40640,0.34967,0.88496,0.88620,0.44022,0.87872,-0.99527,1.62147,-0.33883,-0.82352,-0.44875,0.07502,-1.58238,3.11626,0.40466
-0.33205,1.71528,-0.50058,-0.35792,0.38803,0.38566,0.89447,0.78449,0.50062,0.64268,-1.06672,2.38508,-0.33578,-0.82193,-0.45271,0.08202,1.49181,-3.57619,2.76708
-0.33672,1.71994,-0.49314,-0.35274,0.37514,0.41892,0.87051,0.61336,0.58394,0.23759,-0.82229,2.33715,-0.33062,-0.82132,-0.45671,0.08678,-1.79119,-13.75215,4.77847
-0.34145,1.72442,-0.48514,-0.34963,0.36185,0.45421,0.89003,0.47099,0.69421,0.13585,-0.88392,1.97422,-0.32409,-0.82058,-0.46162,0.09230,2.27074,-9.73817,6.42850
-0.34614,1.72870,-0.47723,-0.34687,0.34847,0.47974,0.92919,0.40456,0.78011,0.20972,-1.03427,1.54118,-0.31802,-0.81937,-0.46655,0.09910,2.22675,-6.06749,6.24110
-0.35050,1.73269,-0.46941,-0.33910,0.33347,0.49753,0.96172,0.40192,0.81661,0.74870,-1.17903,0.97662,-0.31320,-0.81767,-0.47111,0.10670,3.28787,-1.91947,3.64870
-0.35439,1.73641,-0.46174,-0.32501,0.31737,0.50907,0.91283,0.38875,0.79564,1.15655,-1.29872,0.71737,-0.30959,-0.81648,-0.47413,0.11276,-1.89559,-0.01058,-0.37295
-0.35784,1.73982,-0.45401,-0.30710,0.29987,0.51814,0.89119,0.44142,0.71275,1.17051,-1.17150,0.50333,-0.30831,-0.81431,-0.47706,0.11942,-3.71134,0.48448,-4.37056
-0.36098,1.74288,-0.44615,-0.28829,0.28060,0.52739,0.97214,0.59658,0.59148,1.24336,-1.43830,0.59238,-0.30969,-0.80979,-0.48135,0.12897,3.95547,11.37665,-7.88701
-0.36403,1.74574,-0.43828,-0.27237,0.26279,0.53549,1.10123,0.79112,0.46422,1.19872,-1.40797,0.61443,-0.31278,-0.80354,-0.48657,0.14048,6.68285,14.04915,-9.51064
-0.36656,1.74784,-0.43015,-0.25155,0.23656,0.54506,1.31210,1.07773,0.29764,1.49709,-1.86036,0.45680,-0.31901,-0.79416,-0.49332,0.15546,14.21754,21.48051,-10.27404
-0.36917,1.74992,-0.42244,-0.23689,0.21613,0.54586,1.33256,1.12731,0.20366,1.42876,-1.84046,-0.14331,-0.32251,-0.78766,-0.49820,0.16543,5.52258,9.40517,-8.60384
-0.37146,1.75178,-0.41520,-0.22063,0.19732,0.53913,1.21913,1.05611,0.16551,1.21022,-1.28439,-0.56705,-0.32423,-0.78381,-0.50092,0.17205,-5.41935,-1.19308,-4.37938
-0.37375,1.75351,-0.40842,-0.20747,0.18066,0.52587,1.00258,0.88408,0.19983,0.75985,-0.88368,-1.08864,-0.32326,-0.78308,-0.50149,0.17550,-13.38025,-12.05235,1.91343
-0.37607,1.75543,-0.40177,-0.19790,0.17112,0.51408,0.87136,0.82580,0.25314,0.62991,-0.64964,-0.89218,-0.32254,-0.78172,-0.50196,0.18141,-12.89943,-7.43869,3.82786
-0.37871,1.75723,-0.39532,-0.19003,0.16051,0.50525,0.83034,0.81728,0.31546,0.53866,-0.61229,-0.50514,-0.32151,-0.77950,-0.50327,0.18902,-5.36603,-2.17511,4.80544
-0.38239,1.75906,-0.38932,-0.18256,0.14948,0.49990,0.93627,0.92959,0.36659,0.73264,-0.57130,-0.02208,-0.32139,-0.77451,-0.50653,0.20066,4.63299,5.03801,3.03198
-0.38552,1.76077,-0.38272,-0.17446,0.14005,0.50198,1.08312,1.02190,0.38140,1.12396,-1.03171,0.40685,-0.32156,-0.76801,-0.51134,0.21283,12.29322,10.14677,2.21020
-0.38717,1.76178,-0.37564,-0.15619,0.12354,0.50573,1.17631,1.01665,0.39172,1.53995,-1.17733,0.12889,-0.32071,-0.76205,-0.51639,0.22306,7.27005,1.30288,0.08744
-0.38801,1.76257,-0.36864,-0.13313,0.10729,0.50490,1.12906,0.87928,0.40749,1.47693,-1.10977,-0.09100,-0.31844,-0.75871,-0.51998,0.22929,-1.56456,-7.45762,-0.11601
-0.38908,1.76349,-0.36170,-0.11980,0.09761,0.50334,1.04982,0.72728,0.43579,1.47745,-0.98041,-0.15460,-0.31527,-0.75656,-0.52287,0.23418,-5.71496,-12.29575,1.84058
-0.38933,1.76415,-0.35480,-0.09596,0.08604,0.50160,0.98908,0.53844,0.47754,1.44258,-0.39774,0.02240,-0.31045,-0.75515,-0.52625,0.23754,-5.44547,-14.20717,1.64250
-0.38921,1.76480,-0.34762,-0.07070,0.07662,0.50513,1.03340,0.41540,0.53153,1.70589,-0.59735,0.30544,-0.30497,-0.75224,-0.53123,0.24275,3.28877,-7.07172,3.22748
-0.38936,1.76562,-0.34042,-0.05673,0.07240,0.50772,1.06241,0.35888,0.54984,1.75081,-0.42478,0.38350,-0.30045,-0.74891,-0.53591,0.24833,3.37371,-9.04605,2.43111
-0.38799,1.76619,-0.33276,-0.02121,0.06532,0.51773,1.24848,0.33499,0.56242,2.19634,-0.34635,0.49589,-0.29503,-0.74266,-0.54403,0.25582,11.39552,-0.12818,0.84005
-0.38657,1.76703,-0.32539,0.00746,0.06423,0.52036,1.28848,0.24196,0.52739,2.86665,-0.07475,-0.04572,-0.29017,-0.73812,-0.55079,0.26000,7.43613,-4.09541,-1.24566
-0.38366,1.76825,-0.31849,0.05445,0.06980,0.51448,1.25457,0.11762,0.41840,3.03732,0.62548,-0.54933,-0.28673,-0.73433,-0.55716,0.26098,-2.37226,-8.74326,-7.40643
-0.38024,1.76980,-0.31190,0.09953,0.07976,0.50473,1.21929,0.02295,0.28220,3.26140,0.86476,-0.82604,-0.28454,-0.73014,-0.56367,0.26118,-1.33661,-5.08866,-9.89154
-0.37646,1.77172,-0.30542,0.13968,0.09340,0.49553,1.18560,-0.06166,0.17681,2.31496,1.01143,-0.40783,-0.28220,-0.72615,-0.57009,0.26092,-3.54449,-6.68008,-8.99667
-0.37297,1.77369,-0.29864,0.16559,0.10475,0.49369,1.25007,-0.11145,0.13307,1.54724,1.00403,0.03338,-0.27857,-0.72077,-0.57797,0.26236,3.13146,-2.76719,-3.83539
-0.36972,1.77613,-0.29177,0.18141,0.12152,0.49363,1.32375,-0.20355,0.11949,0.67649,1.43734,0.04618,-0.27338,-0.71546,-0.58665,0.26309,5.35586,-6.54889,-2.70437
-0.36691,1.77905,-0.28476,0.18594,0.14216,0.49597,1.44171,-0.23244,0.18099,-0.04927,1.64826,0.24142,-0.26680,-0.70929,-0.59563,0.26639,7.10758,-2.83650,2.44893
-0.36463,1.78283,-0.27754,0.18016,0.17378,0.50166,1.50059,-0.37425,0.31514,-0.63893,1.88591,0.65894,-0.25675,-0.70498,-0.60414,0.26852,4.47689,-6.47342,6.53609
-0.36286,1.78671,-0.26983,0.16700,0.19966,0.51449,1.55281,-0.58739,0.41871,-1.22044,2.53860,1.43871,-0.24479,-0.70129,-0.61337,0.26843,1.75957,-16.21392,7.96461
-0.36173,1.79134,-0.26136,0.14613,0.23193,0.53754,1.70506,-0.83588,0.41192,-1.71708,2.56849,1.96290,-0.23197,-0.69549,-0.62593,0.26589,8.68710,-17.59357,1.89075
-0.36123,1.79764,-0.25187,0.11891,0.28672,0.57304,1.85188,-1.23236,0.73205,-1.93934,3.74869,2.19552,-0.20885,-0.69250,-0.63780,0.26465,9.01573,-27.80648,16.61110
-0.36084,1.80379,-0.24243,0.09662,0.32465,0.59888,2.05488,-1.36409,0.92370,-2.31418,3.06605,2.20922,-0.18860,-0.68603,-0.65023,0.26645,10.96166,-20.80827,17.30423
-0.36087,1.81001,-0.23251,0.07302,0.35343,0.62579,2.42104,-1.19931,1.15969,-2.54212,2.23002,2.16609,-0.16930,-0.67362,-0.66413,0.27661,24.12598,3.21903,18.20297
-0.36181,1.81635,-0.22205,0.03994,0.37711,0.65528,2.73822,-1.11150,1.43607,-1.35217,0.60857,1.60824,-0.14690,-0.66035,-0.67771,0.28823,22.11501,10.53094,24.42134
-0.36254,1.82236,-0.21162,0.01771,0.39049,0.67810,2.86947,-1.28225,1.47161,-1.32947,1.13293,1.72766,-0.12453,-0.64975,-0.69131,0.29053,9.23669,-11.64795,2.99521
-0.36325,1.82863,-0.20081,0.00129,0.40478,0.70171,3.08552,-1.29843,1.54099,-1.51038,1.02942,1.69971,-0.10235,-0.63567,-0.70557,0.29600,13.80432,-5.96105,2.24193
-0.36436,1.83480,-0.18955,-0.01846,0.41384,0.72759,3.27857,-1.39784,1.64399,-1.17049,0.06657,2.07318,-0.07725,-0.62105,-0.71955,0.30096,15.73068,2.89253,12.58165
-0.36652,1.84050,-0.17774,-0.05154,0.41254,0.75644,3.38521,-1.83719,1.65907,-3.07315,-0.49044,2.07658,-0.04639,-0.60924,-0.73385,0.29688,10.04598,-29.13345,-6.48773
-0.36992,1.84516,-0.16572,-0.09798,0.39338,0.78183,3.57145,-2.17769,1.82670,-3.72245,-2.11397,1.52498,-0.01129,-0.59486,-0.74736,0.29575,14.43082,-25.64173,7.36853
-0.37396,1.84885,-0.15397,-0.14335,0.36294,0.79645,3.75453,-2.47301,1.94373,-3.93310,-2.78556,0.90440,0.02496,-0.57885,-0.76043,0.29336,15.50467,-25.99851,6.62421
-0.37920,1.85078,-0.14261,-0.19807,0.30987,0.80065,4.08108,-2.51180,2.29131,-3.19394,-3.66982,-0.60504,0.06363,-0.55639,-0.77248,0.29943,18.52243,-7.73106,21.70044
-0.38393,1.85215,-0.13246,-0.23152,0.25937,0.78310,4.29346,-2.49043,2.53427,-1.88009,-3.73305,-2.12859,0.10015,-0.53310,-0.78261,0.30543,13.68379,-2.03331,21.27378
-0.38819,1.85280,-0.12379,-0.24926,0.20846,0.74436,4.41646,-2.35994,2.86318,-0.61783,-3.74955,-3.64504,0.13597,-0.50847,-0.78941,0.31593,6.46333,6.11583,26.79768
-0.39222,1.85305,-0.11704,-0.25875,0.16312,0.68190,4.37171,-2.75095,2.65457,0.77698,-3.38797,-5.40449,0.17346,-0.49063,-0.79630,0.30838,1.64547,-13.26922,0.75778
-0.39621,1.85319,-0.11344,-0.26519,0.12674,0.57829,4.24349,-3.54024,2.00311,-0.25596,-1.37519,-7.74173,0.21297,-0.47942,-0.80350,0.28139,9.43795,-39.30996,-54.06143
-0.39966,1.85426,-0.11091,-0.26083,0.11476,0.48187,4.10534,-3.77402,1.96746,-0.85200,-0.30750,-9.06493,0.25100,-0.46441,-0.80531,0.26982,0.78898,-28.21914,-38.44983
-0.40240,1.85575,-0.11185,-0.24532,0.11319,0.35071,3.80331,-3.73491,2.57662,1.52347,0.38743,-10.26306,0.29177,-0.44874,-0.79802,0.27689,-25.60096,-10.01795,32.72729
-0.40385,1.85791,-0.11559,-0.21138,0.12324,0.20305,3.36080,-3.70258,3.26984,3.07747,0.97446,-11.32274,0.33324,-0.43547,-0.78431,0.29014,-37.70352,-13.42791,37.37727
-0.40344,1.86041,-0.12216,-0.15367,0.13659,0.04239,2.80466,-3.71004,4.01563,5.08666,0.68625,-11.80358,0.37570,-0.42451,-0.76360,0.30911,-48.60560,-17.27383,44.00640
-0.40116,1.86248,-0.13158,-0.07790,0.13922,-0.12861,2.42517,-4.04836,4.31329,7.16908,-0.34596,-12.20895,0.42115,-0.41560,-0.74128,0.31687,-36.16437,-29.64835,24.32763
-0.39682,1.86413,-0.14402,0.01471,0.13417,-0.31017,2.45773,-4.76140,3.79969,7.95093,-0.30770,-12.78223,0.46864,-0.40856,-0.72411,0.29853,10.99690,-40.43835,-27.84225
-0.39041,1.86596,-0.15939,0.12074,0.13371,-0.49849,2.76916,-5.62281,3.03945,8.00810,0.37754,-14.07910,0.51917,-0.40033,-0.70762,0.26357,52.46686,-45.47434,-54.48896
-0.38113,1.86858,-0.17779,0.25051,0.14698,-0.69358,2.90988,-6.36929,2.70402,9.94074,1.65274,-14.63674,0.57167,-0.39108,-0.68269,0.23278,37.50193,-44.96584,-31.52160
-0.36797,1.87268,-0.19897,0.41576,0.18242,-0.88934,2.81326,-7.00392,2.59364,13.23500,3.45548,-14.43274,0.62328,-0.38352,-0.64954,0.20623,13.19499,-45.12854,-17.28941
-0.34987,1.87873,-0.22205,0.62573,0.24254,-1.07043,2.30604,-7.49479,2.66887,16.90294,5.15846,-12.22591,0.67124,-0.38150,-0.60685,0.18876,-22.39908,-41.10022,-12.36788
-0.32601,1.88699,-0.24574,0.88354,0.32582,-1.21874,1.88690,-7.83929,2.35711,20.85642,6.87246,-8.95084,0.71174,-0.38403,-0.56457,0.16495,-20.93126,-30.36284,-29.51745
-0.29595,1.89796,-0.26878,1.18521,0.43535,-1.32062,1.59005,-7.95022,1.69622,23.28391,8.97038,-5.51798,0.74273,-0.39120,-0.52652,0.13451,2.25954,-8.96096,-47.68399
-0.25780,1.91348,-0.29057,1.55844,0.59932,-1.37802,1.45417,-7.97988,0.58984,24.22094,11.74258,-1.89944,0.76423,-0.40614,-0.49235,0.09272,23.24511,4.46359,-62.79779
-0.21916,1.93044,-0.31002,1.85003,0.74767,-1.38197,1.21271,-8.04532,-0.27546,25.04818,13.11060,0.61090,0.78262,-0.42335,-0.45330,0.05293,24.45262,2.22289,-70.25024
-0.16944,1.95331,-0.32650,2.26276,0.96215,-1.33326,0.76047,-8.15210,-1.50265,27.30059,13.85426,4.97012,0.79062,-0.45502,-0.40963,0.00907,10.85494,-1.23067,-79.37148
-0.11541,1.97773,-0.33908,2.65689,1.15471,-1.22725,0.34492,-8.25521,-2.72874,29.89411,13.82965,10.40664,0.79126,-0.49132,-0.36218,-0.03664,12.21945,-4.94110,-88.55843
-0.06043,2.00175,-0.34881,2.96028,1.28842,-1.10244,0.18000,-8.17676,-3.71279,31.83604,13.04139,14.95584,0.78525,-0.52501,-0.31746,-0.08352,26.14421,-3.53560,-93.81469
0.01556,2.03234,-0.34404,3.54730,1.50083,-0.75961,0.08380,-7.73956,-5.65034,34.07346,10.62880,23.99128,0.75205,-0.58029,-0.27939,-0.14007,44.78462,17.54410,-96.72430
0.09220,2.06040,-0.33300,4.02201,1.62452,-0.38120,0.32453,-7.20622,-7.33464,34.93953,6.75577,30.67859,0.70816,-0.63118,-0.24561,-0.19948,76.37151,14.08133,-96.39896
0.17588,2.08588,-0.31092,4.50443,1.67246,0.09720,0.56318,-6.35482,-9.15229,34.56107,-0.67254,37.63372,0.64356,-0.68803,-0.21719,-0.25549,89.06326,25.75861,-105.57750
0.26540,2.10464,-0.27661,4.96997,1.59085,0.67205,0.99981,-5.09902,-10.77247,32.02641,-11.34233,45.06061,0.56123,-0.74307,-0.20062,-0.30433,105.82420,47.87161,-97.73550
0.35953,2.11276,-0.22898,5.40217,1.34365,1.33828,2.25924,-3.46005,-11.87561,29.18491,-24.23672,51.05447,0.46522,-0.78435,-0.21003,-0.35250,143.46090,41.80792,-58.06439
0.45653,2.10692,-0.16972,5.77911,0.91415,2.04342,4.10616,-2.01562,-12.62647,24.90940,-37.76004,50.36415,0.35641,-0.80837,-0.23587,-0.40481,175.01820,-9.83008,-23.86884
0.55787,2.08513,-0.10305,6.09908,0.28481,2.72435,6.08224,-0.97217,-13.32430,20.47625,-53.70260,47.84340,0.23219,-0.81629,-0.26559,-0.45742,166.56140,-27.49894,-27.44382
0.65755,2.04725,-0.03483,6.31050,-0.44263,3.25144,7.74634,-0.63601,-13.98200,14.07026,-70.47779,40.89722,0.10006,-0.80487,-0.28473,-0.51098,135.58060,-70.90707,-49.41982
0.75295,1.97381,0.04001,6.40339,-1.57595,3.75211,9.31749,0.27758,-15.10736,-3.19599,-91.55969,28.49633,-0.06079,-0.78153,-0.30283,-0.54204,124.01480,-32.48963,-82.99564
0.82639,1.85939,0.11160,6.11973,-3.14736,4.06525,11.09775,1.93482,-15.41114,-33.35828,-100.94240,7.89519,-0.22311,-0.74088,-0.33809,-0.53574,153.33910,-23.57101,-21.13870
0.87383,1.73520,0.16778,5.45883,-4.52805,4.04895,12.37176,2.87822,-14.43541,-60.80357,-93.52420,-8.10088,-0.34964,-0.68585,-0.37677,-0.51518,129.61930,-54.88276,41.48074
0.89363,1.60137,0.21160,4.48348,-5.74263,3.82666,13.39250,2.40581,-12.82953,-77.69601,-79.25708,-21.19299,-0.44195,-0.61056,-0.42024,-0.50527,19.53624,-130.68300,34.68192
0.88395,1.45757,0.24308,3.21326,-6.84603,3.42881,14.97805,1.64687,-11.41082,-81.62737,-60.98432,-30.34047,-0.52962,-0.51026,-0.47420,-0.48401,21.27005,-138.89420,-0.72313
0.87239,1.32545,0.26845,2.22535,-7.47810,3.02905,16.66962,1.05934,-10.45786,-84.49331,-44.65016,-38.88268,-0.61529,-0.39020,-0.52294,-0.44238,69.95677,-142.06070,-49.02895
0.83452,1.19435,0.27652,1.04054,-7.92833,2.43767,17.33463,-0.42615,-9.57118,-85.58493,-20.77661,-42.31516,-0.66713,-0.26118,-0.56360,-0.41118,27.01381,-133.99700,-51.73892
0.77412,1.07865,0.26866,-0.26592,-8.00397,1.70542,14.90066,-2.45813,-9.93732,-79.21413,8.06000,-43.63528,-0.68439,-0.15645,-0.55875,-0.44151,-157.20730,1.96004,-101.51940
0.72719,0.97705,0.26724,-1.00629,-7.82926,1.27448,12.27858,-2.85300,-10.65758,-71.96663,24.90976,-41.09934,-0.70647,-0.07338,-0.52315,-0.47100,-197.51500,134.92640,-85.19390
0.65134,0.90043,0.25145,-2.04499,-7.27692,0.71613,8.81214,-2.58352,-10.84945,-57.19286,44.15888,-29.66471,-0.71279,-0.02923,-0.47241,-0.51760,-161.69540,181.01490,-4.61729
0.58504,0.83188,0.24376,-2.68118,-6.72480,0.42440,7.15798,-2.77801,-10.11187,-46.23425,50.46457,-20.73924,-0.71202,0.02425,-0.45299,-0.53594,-136.53740,88.50648,31.00688
0.51190,0.78070,0.23591,-3.27357,-6.02464,0.20296,5.72659,-3.79610,-8.77424,-37.27925,51.22693,-12.11690,-0.68903,0.07374,-0.46342,-0.55230,-145.56070,-17.18659,52.20452
0.43529,0.74532,0.22902,-3.79251,-5.20995,0.04216,3.87934,-4.84553,-7.83730,-29.06509,50.78808,-9.32172,-0.64936,0.11906,-0.47504,-0.58180,-154.46070,-26.33123,16.81329
0.36552,0.70845,0.22281,-4.07563,-4.61023,-0.07103,2.63804,-4.73088,-7.76275,-21.43129,50.81294,-10.62821,-0.62499,0.16482,-0.45855,-0.60989,-111.09080,40.29584,-12.30717
0.29681,0.68047,0.21391,-4.26860,-4.02237,-0.19861,1.80144,-3.74264,-8.20407,-14.07239,48.91059,-11.42021,-0.61324,0.20570,-0.41519,-0.63972,-41.02431,88.64223,-24.85969
0.23038,0.67526,0.19990,-4.37775,-3.18552,-0.38312,1.46604,-1.66002,-9.23348,1.09788,45.35001,-9.61884,-0.61938,0.23998,-0.33123,-0.67012,50.24974,118.16970,-51.23811
0.17284,0.66130,0.18878,-4.31902,-2.67730,-0.47955,1.65307,-0.55179,-9.56660,10.81341,40.77330,-6.64260,-0.62176,0.27883,-0.26367,-0.68276,71.39484,82.42935,-31.04046
0.12912,0.66383,0.17718,-4.03475,-2.00323,-0.56145,1.65903,-0.19164,-8.63142,21.95697,32.87579,-2.13059,-0.62177,0.30258,-0.22858,-0.68527,16.64126,17.08255,54.31429
0.09099,0.65889,0.16906,-3.71525,-1.60161,-0.56569,1.12426,-0.62767,-7.18053,25.67945,23.98074,1.67102,-0.60911,0.32169,-0.22406,-0.68943,-39.55923,-14.68741,85.09059
0.05919,0.65338,0.16293,-3.36399,-1.30843,-0.53480,0.17810,-1.23538,-5.54497,24.81359,17.84817,2.74151,-0.58817,0.33182,-0.23947,-0.69757,-88.33724,-24.44965,117.03420
0.03225,0.64669,0.15780,-3.01426,-1.10773,-0.49390,-0.26994,-0.98281,-4.21411,23.95435,12.92163,2.73211,-0.57922,0.32978,-0.24305,-0.70475,-54.36655,12.22237,94.88593
0.00951,0.63986,0.15296,-2.67633,-0.95780,-0.45860,-0.20657,-0.31480,-3.01252,23.43365,10.42703,1.80984,-0.58436,0.31840,-0.23926,-0.70703,7.13117,49.61238,92.41638
-0.01020,0.63454,0.14761,-2.36828,-0.81760,-0.44074,0.07140,0.10727,-2.01621,21.20099,10.63107,0.61575,-0.59400,0.30884,-0.23667,-0.70411,23.07965,35.70591,73.61494
-0.02998,0.63078,0.14186,-2.14129,-0.68651,-0.43408,0.34398,0.23275,-1.44745,17.08944,11.60966,0.55872,-0.60182,0.30640,-0.23348,-0.69959,23.80976,12.43870,61.94412
-0.04581,0.63206,0.13696,-1.90001,-0.50119,-0.41299,0.71584,0.37103,-1.35558,13.53040,11.86973,2.51990,-0.61010,0.31012,-0.22133,-0.69470,24.30027,3.22020,11.63002
-0.06132,0.63474,0.13402,-1.70682,-0.33341,-0.36263,0.81214,0.59076,-1.56825,14.43111,11.80010,4.87924,-0.61280,0.31510,-0.20269,-0.69578,16.34838,14.77109,-13.35432
-0.07473,0.63839,0.13257,-1.52810,-0.19188,-0.30015,0.62988,0.76236,-1.70412,15.66624,10.83712,5.85051,-0.61034,0.31770,-0.18646,-0.70128,-7.58514,16.89688,-14.34621
-0.08303,0.64406,0.13321,-1.30725,-0.05349,-0.21759,0.12998,0.77240,-1.60533,17.05019,7.98510,6.03442,-0.60154,0.31675,-0.17952,-0.71105,-25.94104,11.81047,0.30016
-0.08788,0.64938,0.13477,-1.08055,0.04613,-0.13941,-0.70924,0.40231,-1.15178,16.71248,5.45113,5.22429,-0.58417,0.31409,-0.19164,-0.72344,-59.32999,-15.67251,28.07706
-0.08973,0.65366,0.13689,-0.85749,0.10551,-0.07019,-1.47691,0.05656,-0.47195,15.60421,3.64523,4.56771,-0.56631,0.30606,-0.21329,-0.73493,-60.01518,-23.11017,51.36115
-0.08886,0.65749,0.13927,-0.64058,0.14326,-0.01212,-1.84147,0.05660,0.03844,14.74824,2.81823,3.75080,-0.55429,0.29400,-0.22819,-0.74448,-35.60763,-4.07801,43.31361
-0.08692,0.66091,0.14151,-0.45990,0.16511,0.02912,-1.82915,0.38663,0.27466,14.55859,2.05318,3.12376,-0.54928,0.27935,-0.23126,-0.75284,-9.04824,19.86717,22.34167
-0.07736,0.66471,0.14447,-0.19059,0.18841,0.07369,-1.14715,1.51232,0.27143,14.36876,1.64981,1.74260,-0.56250,0.25338,-0.21008,-0.75846,33.35374,59.92323,-3.83539
-0.06846,0.66810,0.14637,0.01100,0.20010,0.09094,-0.39541,2.54598,0.07823,14.34707,0.29513,0.71764,-0.57927,0.22824,-0.17985,-0.76158,52.98479,78.01727,-25.88964
-0.05915,0.67118,0.14770,0.16797,0.20403,0.09356,0.03305,3.13403,0.00094,13.02576,-0.28421,-0.17647,-0.59199,0.20463,-0.15516,-0.76394,41.36171,60.28992,-18.03656
-0.04596,0.67401,0.14823,0.35281,0.20306,0.08128,0.30478,3.50192,-0.01138,11.34725,-0.55305,-1.30858,-0.60291,0.18126,-0.13315,-0.76545,19.26863,27.46189,-5.40392
-0.03271,0.67648,0.14789,0.49824,0.19580,0.05808,0.33182,3.53063,0.06615,10.39009,-1.06887,-1.95431,-0.60886,0.16100,-0.11882,-0.76763,5.97813,7.03616,2.12960
-0.01807,0.67843,0.14681,0.63270,0.18152,0.02712,0.24017,3.34882,0.25340,9.73200,-1.13956,-2.64646,-0.61208,0.14249,-0.11159,-0.76981,-2.75755,-10.14765,12.27529
-0.00170,0.68019,0.14447,0.76479,0.16826,-0.01794,0.17437,3.13536,0.40786,9.23125,-0.95613,-3.71370,-0.61487,0.12541,-0.10604,-0.77134,-3.32251,-16.54720,13.98612
0.01578,0.68120,0.14102,0.88460,0.14498,-0.07050,0.16614,2.88008,0.57647,8.22562,-2.41745,-3.79413,-0.61832,0.10967,-0.10286,-0.77141,1.36634,-16.27922,9.20726
0.03402,0.68108,0.13693,0.98828,0.10806,-0.12205,0.17055,2.52532,0.88605,7.28680,-2.83078,-3.66297,-0.62217,0.09436,-0.10656,-0.76984,4.22036,-24.35445,20.01823
0.05346,0.68041,0.13225,1.08887,0.07183,-0.17149,0.18283,2.21846,1.23967,7.18112,-2.37770,-3.21997,-0.62629,0.07780,-0.11360,-0.76733,6.44358,-24.60529,24.28220
0.07419,0.67960,0.12740,1.18749,0.04197,-0.21153,0.17460,2.06409,1.52576,6.76782,-1.90146,-2.22324,-0.62994,0.05899,-0.11970,-0.76509,4.13070,-13.88200,22.08316
0.09610,0.67879,0.12271,1.28190,0.01902,-0.24026,0.14399,2.09091,1.68354,6.48953,-1.22246,-1.67496,-0.63290,0.03788,-0.12192,-0.76364,0.01662,-1.85058,14.47049
0.11901,0.67818,0.11773,1.37280,0.00683,-0.26643,0.11137,2.23676,1.74478,6.46652,-0.33307,-2.07745,-0.63550,0.01493,-0.12045,-0.76250,-2.91675,8.35894,5.74351
0.14319,0.67798,0.11185,1.46352,0.00447,-0.30215,0.12588,2.48550,1.72102,6.39701,-0.09050,-2.86807,-0.63886,-0.00967,-0.11472,-0.76066,-1.79065,15.39461,0.36661
0.16855,0.67753,0.10518,1.55075,-0.00308,-0.34356,0.20757,2.73334,1.74489,6.26507,-0.91588,-3.09888,-0.64359,-0.03608,-0.10844,-0.75679,2.76420,19.80155,-2.37403
0.19541,0.67692,0.09743,1.64228,-0.01264,-0.39540,0.31562,2.93408,1.89715,5.37700,-0.06404,-3.65721,-0.64888,-0.06495,-0.10491,-0.75082,7.00298,13.23488,9.05133
0.22164,0.67703,0.08916,1.70070,-0.00745,-0.44360,0.41463,3.07305,1.94753,4.28267,1.05089,-4.38446,-0.65396,-0.09226,-0.10020,-0.74416,7.19783,12.68389,6.52490
0.24853,0.67814,0.07919,1.75603,0.01386,-0.50942,0.52461,3.21563,1.92558,2.68529,1.73287,-3.84436,-0.65945,-0.11910,-0.09344,-0.73635,6.73023,10.31477,-1.74588
0.27464,0.68003,0.06925,1.78481,0.04422,-0.55959,0.55718,3.30689,1.85242,1.47063,2.68521,-3.33606,-0.66340,-0.14457,-0.08577,-0.72914,2.03709,6.93415,-4.15954
0.30022,0.68277,0.05920,1.79737,0.08110,-0.59864,0.51530,3.41005,1.71544,0.46037,3.56936,-3.07992,-0.66573,-0.16931,-0.07550,-0.72280,-3.36941,7.52518,-7.59295
0.32457,0.68619,0.04801,1.79728,0.14003,-0.64505,0.35864,3.54182,1.49275,0.00024,3.85107,-2.65051,-0.66546,-0.19318,-0.06119,-0.71840,-12.72907,9.49605,-13.67916
0.34759,0.68871,0.03678,1.78817,0.19547,-0.67888,0.20020,3.51066,1.49888,-0.24465,4.41914,-2.45675,-0.66316,-0.21755,-0.05292,-0.71420,-11.82705,-0.86885,-1.24521
0.37066,0.69240,0.02546,1.77679,0.25069,-0.70804,0.07745,3.42780,1.60482,-0.83449,5.20483,-2.60749,-0.65978,-0.24243,-0.04789,-0.70966,-8.75604,-7.17920,9.31424
0.39403,0.69974,0.01352,1.75872,0.32674,-0.74287,-0.04455,3.28132,1.77297,-1.40511,5.74071,-2.41852,-0.65474,-0.26708,-0.04604,-0.70559,-5.75106,-9.41656,12.18299
0.41699,0.70997,0.00123,1.72948,0.42426,-0.77564,-0.12439,3.07467,2.05498,-2.22520,6.64005,-1.81883,-0.64847,-0.29259,-0.04905,-0.70105,-0.38904,-13.71506,18.20826
