posX, posY, posZ, velX, velY, velZ, angVelX, angVelY, angVelZ, accX, accY, accZ, rotX, rotY, rotZ, rotW, angAccX, angAccY, angAccZ
0.46650,1.29042,-0.35306,-0.61058,0.78721,-0.40117,-0.11788,1.20129,1.28082,-0.47930,-0.31645,1.63654,-0.30889,-0.77974,-0.24855,-0.48459,-16.07019,-11.98372,-4.82923
0.45757,1.30117,-0.35730,-0.61749,0.78370,-0.37833,-0.13564,1.04498,1.25514,-0.60085,-0.19560,1.67725,-0.30282,-0.78441,-0.25031,-0.47995,-5.69178,-14.06790,-2.92430
0.44820,1.31181,-0.36084,-0.62977,0.77898,-0.34943,0.09765,0.92036,1.30256,-0.71392,-0.35555,1.24345,-0.29870,-0.78773,-0.25840,-0.47274,11.38686,-8.94323,1.46149
0.43883,1.32229,-0.36452,-0.63974,0.77272,-0.32918,0.54307,0.95628,1.39515,-0.63320,-0.45025,1.09585,-0.29792,-0.79122,-0.27194,-0.45965,29.20712,2.41656,4.20551
0.42938,1.33253,-0.36812,-0.64852,0.76332,-0.31245,0.93898,1.01583,1.45865,-0.69570,-0.94463,1.50225,-0.29821,-0.79432,-0.28651,-0.44502,32.77251,8.49977,4.94444
0.41998,1.34243,-0.37174,-0.65444,0.75070,-0.30024,1.04487,1.00758,1.40772,-0.53286,-1.35135,1.26840,-0.29761,-0.79715,-0.29593,-0.43405,16.37741,2.16637,-1.28821
0.41057,1.35179,-0.37526,-0.65898,0.73204,-0.28942,1.00597,0.95690,1.27268,-0.31993,-1.38510,0.67134,-0.29727,-0.79944,-0.30166,-0.42605,-2.23933,-3.20025,-9.70760
0.40098,1.36086,-0.37876,-0.66550,0.71326,-0.28100,0.99944,0.94621,1.15828,-0.54303,-1.27257,0.48892,-0.29769,-0.80172,-0.30742,-0.41728,-2.34637,-0.96790,-9.19955
0.39111,1.36972,-0.38217,-0.67507,0.69528,-0.27298,1.04569,0.95991,1.07318,-0.71351,-1.24970,0.50486,-0.29887,-0.80371,-0.31419,-0.40744,1.72815,1.11719,-6.60889
0.38101,1.37834,-0.38547,-0.68651,0.67755,-0.26493,1.09512,0.97128,1.00490,-0.84627,-1.29550,0.66481,-0.30027,-0.80544,-0.32125,-0.39737,4.16886,1.97770,-4.94594
0.37070,1.38676,-0.38861,-0.69818,0.66113,-0.25654,1.08683,0.96101,0.93881,-0.85520,-1.07087,0.59957,-0.30123,-0.80712,-0.32719,-0.38827,-0.08607,-0.00248,-5.20703
0.36013,1.39509,-0.39178,-0.71156,0.64683,-0.25063,1.01652,0.94313,0.89034,-0.95879,-0.96873,0.39862,-0.30122,-0.80923,-0.33175,-0.37994,-3.92652,-0.87137,-3.31931
0.34936,1.40316,-0.39491,-0.72604,0.63174,-0.24569,0.92154,0.93579,0.86494,-0.87517,-0.92941,0.23790,-0.30046,-0.81184,-0.33536,-0.37173,-7.02888,-1.11205,-1.85298
0.33858,1.41101,-0.39784,-0.73759,0.61661,-0.23895,0.91707,0.93256,0.84010,-0.79721,-1.18399,0.59536,-0.30059,-0.81370,-0.34043,-0.36282,-2.16673,0.17235,-0.86155
0.32780,1.41867,-0.40038,-0.74617,0.60172,-0.22689,0.97603,0.89454,0.80151,-0.71527,-1.23272,1.22788,-0.30156,-0.81430,-0.34703,-0.35433,2.79076,-1.40338,-3.00403
0.31681,1.42602,-0.40228,-0.75603,0.58504,-0.20714,1.08289,0.80658,0.74300,-0.67616,-1.06525,1.41938,-0.30333,-0.81323,-0.35530,-0.34699,6.76296,-5.20866,-4.94753
0.30567,1.43330,-0.40370,-0.76588,0.57159,-0.18670,1.30868,0.76521,0.70326,-0.75227,-0.73187,1.03144,-0.30671,-0.81080,-0.36678,-0.33765,13.47675,-4.37599,-4.34846
0.29441,1.44065,-0.40522,-0.77543,0.56236,-0.17259,1.54568,0.81478,0.69729,-0.60518,-0.52556,0.76050,-0.31091,-0.80848,-0.37931,-0.32531,18.62608,3.40160,-1.58287
0.28308,1.44812,-0.40708,-0.78369,0.55674,-0.16588,1.69609,0.87927,0.69466,-0.59501,-0.22951,0.33977,-0.31489,-0.80653,-0.39076,-0.31252,12.10297,5.16500,-0.60645
0.27157,1.45577,-0.40901,-0.79257,0.55581,-0.16283,1.73728,0.93065,0.72408,-0.62838,0.05532,0.29074,-0.31733,-0.80550,-0.40067,-0.29989,5.98225,4.71193,1.74745
0.26003,1.46366,-0.41104,-0.79999,0.55899,-0.16137,1.68114,0.97849,0.76889,-0.54897,0.48548,0.17544,-0.31833,-0.80565,-0.40848,-0.28764,-2.50133,2.27997,3.35956
0.24825,1.47201,-0.41298,-0.81033,0.56882,-0.15749,1.51599,0.97521,0.84953,-0.66930,0.69406,0.56578,-0.31660,-0.80722,-0.41416,-0.27682,-7.01218,1.71056,6.11303
0.23645,1.48056,-0.41492,-0.81907,0.57951,-0.15374,1.26597,0.87823,0.89766,-0.74495,0.92909,0.40705,-0.31291,-0.80931,-0.41750,-0.26982,-18.58673,-8.55999,5.19072
0.22446,1.48929,-0.41680,-0.82852,0.59046,-0.15021,1.01425,0.76414,0.92726,-0.90048,0.87602,0.16928,-0.30826,-0.81176,-0.41953,-0.26461,-19.90222,-11.21920,3.62965
0.21199,1.49858,-0.41883,-0.84328,0.60804,-0.15177,0.70516,0.63969,0.93837,-0.81944,1.31901,-0.74738,-0.30242,-0.81524,-0.41888,-0.26167,-19.50245,-10.35764,0.65386
0.19964,1.50806,-0.42123,-0.85295,0.62513,-0.15977,0.76351,0.79026,1.00222,-0.82851,1.48276,-1.25762,-0.30086,-0.81733,-0.42365,-0.24896,-1.62237,4.67165,3.61184
0.18714,1.51790,-0.42394,-0.86286,0.64406,-0.17017,1.00594,1.10666,1.09472,-0.75666,1.39346,-0.71180,-0.30227,-0.81859,-0.43157,-0.22868,14.71882,22.44955,7.03875
0.17418,1.52808,-0.42648,-0.87620,0.66255,-0.17644,1.14256,1.32774,1.16993,-0.75080,0.76373,0.24942,-0.30285,-0.81994,-0.43851,-0.20900,11.20253,18.15823,5.68901
0.16128,1.53790,-0.42866,-0.88716,0.67213,-0.17536,0.98994,1.28827,1.14370,-0.69074,0.31048,0.49724,-0.30097,-0.82227,-0.44058,-0.19794,-6.12784,0.41103,0.66681
0.14833,1.54742,-0.43071,-0.89853,0.67582,-0.17100,0.77047,1.16806,1.07101,-0.85732,0.15956,0.28060,-0.29852,-0.82487,-0.44050,-0.19090,-17.19790,-9.96151,-4.10097
0.13523,1.55693,-0.43243,-0.90688,0.67635,-0.16369,0.69837,1.13712,1.00796,-0.51602,0.13600,0.35484,-0.29759,-0.82650,-0.44201,-0.18157,-8.51615,-4.99880,-4.52010
0.12213,1.56647,-0.43393,-0.91349,0.67743,-0.15435,0.74494,1.18999,0.96024,-0.51013,0.26456,0.67756,-0.29825,-0.82712,-0.44522,-0.16942,1.31919,3.11480,-4.20470
0.10891,1.57618,-0.43505,-0.92086,0.68138,-0.13934,0.88603,1.26367,0.95189,-0.51831,0.42907,1.30286,-0.29921,-0.82660,-0.45071,-0.15512,7.63329,5.82986,-1.45916
0.09554,1.58599,-0.43536,-0.92829,0.68546,-0.11603,1.10469,1.32352,0.95622,-0.46203,0.26613,1.86053,-0.30046,-0.82447,-0.45881,-0.13953,14.47712,5.62808,-0.59781
0.08221,1.59584,-0.43513,-0.93326,0.68942,-0.08907,1.28760,1.32875,0.95962,-0.18787,0.11096,2.01383,-0.30118,-0.82163,-0.46763,-0.12466,16.51038,3.16301,-0.56096
0.06906,1.60568,-0.43486,-0.93482,0.69323,-0.06592,1.32083,1.25480,0.93449,0.06476,0.35925,1.51947,-0.30093,-0.81953,-0.47438,-0.11305,3.64828,-4.47560,-2.69292
0.05617,1.61555,-0.43445,-0.93210,0.69729,-0.04611,1.39459,1.25111,0.93873,0.29074,0.22186,1.22535,-0.30088,-0.81700,-0.48176,-0.09945,3.56385,-2.13197,-0.22819
0.04364,1.62520,-0.43399,-0.92396,0.69664,-0.02987,1.44184,1.23677,0.91365,1.05125,-0.38382,1.52996,-0.30127,-0.81411,-0.48886,-0.08646,6.30490,1.73059,-0.22366
0.03182,1.63441,-0.43313,-0.90652,0.68891,-0.01028,1.45110,1.13509,0.79389,1.38361,-0.83214,1.33331,-0.30271,-0.81033,-0.49571,-0.07746,-0.26535,-6.23735,-7.17403
0.02065,1.64304,-0.43216,-0.88255,0.67385,0.00619,1.53729,1.12854,0.60003,1.42847,-0.93240,0.40790,-0.30779,-0.80455,-0.50339,-0.06750,4.43974,-1.59002,-12.30228
0.00937,1.65183,-0.43183,-0.86624,0.66469,0.00914,1.60748,1.22765,0.47690,1.52111,-0.81811,-0.05645,-0.31376,-0.79894,-0.51018,-0.05449,5.41588,6.39045,-12.46843
-0.00111,1.66026,-0.43162,-0.84150,0.65224,0.00754,1.74833,1.48691,0.29056,1.32005,-0.54034,-0.21728,-0.32494,-0.79110,-0.51689,-0.03741,7.78581,17.54646,-11.18143
-0.01186,1.66910,-0.43124,-0.82741,0.64978,0.00589,1.82852,1.72011,0.21888,0.42273,0.29754,0.00614,-0.33446,-0.78404,-0.52255,-0.01887,5.20341,15.78120,-5.32204
-0.02326,1.67832,-0.43077,-0.82679,0.65392,0.00787,1.83460,1.85408,0.26558,-0.15049,0.39627,0.48658,-0.34059,-0.77841,-0.52733,-0.00039,2.79407,13.23496,2.68262
-0.03534,1.68788,-0.42988,-0.83721,0.66194,0.02023,1.67833,1.81179,0.38217,-0.76333,0.44955,1.32684,-0.34240,-0.77581,-0.52979,0.01436,-7.78121,-0.94226,8.01685
-0.04779,1.69746,-0.42840,-0.85152,0.66857,0.03978,1.45457,1.61149,0.49293,-1.00415,0.35729,1.69298,-0.34116,-0.77491,-0.53153,0.02446,-12.37029,-12.11720,8.19592
-0.06094,1.70732,-0.42651,-0.87485,0.67879,0.06197,0.99454,1.18016,0.62765,-1.68375,0.85436,1.32955,-0.33465,-0.77901,-0.52960,0.02617,-26.19203,-28.09851,8.21681
-0.07436,1.71737,-0.42480,-0.89672,0.68957,0.07848,0.77463,0.96394,0.78538,-2.23944,1.25401,1.19710,-0.32851,-0.78160,-0.52927,0.03239,-24.12568,-25.86750,10.93218
-0.08843,1.72759,-0.42281,-0.92386,0.70065,0.09613,0.67118,0.86843,1.00917,-1.97320,0.64788,1.10224,-0.32084,-0.78409,-0.52959,0.04247,-7.25176,-10.60269,16.53143
-0.10242,1.73752,-0.42072,-0.94301,0.70393,0.11055,0.64210,0.87483,1.16153,-1.57240,0.01895,1.23680,-0.31474,-0.78545,-0.53011,0.05469,-2.92598,-2.36107,14.55615
-0.11684,1.74705,-0.41805,-0.96426,0.69949,0.13047,0.67862,0.94517,1.32273,-1.02670,-0.58690,1.21740,-0.30849,-0.78601,-0.53119,0.06971,2.59138,3.52915,10.68880
-0.13082,1.75609,-0.41530,-0.97342,0.68763,0.14757,0.65715,0.97472,1.39436,-0.39327,-1.21782,1.36977,-0.30316,-0.78674,-0.53129,0.08288,-0.68372,3.06221,6.48093
-0.14452,1.76461,-0.41228,-0.97582,0.67021,0.16431,0.63575,0.98367,1.40707,0.04450,-1.84171,1.49127,-0.29859,-0.78707,-0.53136,0.09499,-1.68709,1.31779,2.74756
-0.15775,1.77196,-0.40876,-0.96998,0.63716,0.18877,0.63000,0.98060,1.34901,0.52551,-2.20419,1.68441,-0.29542,-0.78658,-0.53180,0.10584,-1.93627,-0.73314,-3.39599
-0.17074,1.77890,-0.40481,-0.96159,0.60457,0.21443,0.71490,1.00916,1.30308,0.60494,-2.34720,2.04684,-0.29255,-0.78441,-0.53399,0.11820,4.37317,2.81627,-3.77845
-0.18370,1.78553,-0.40037,-0.95463,0.57512,0.23991,0.81592,1.01198,1.29097,0.77000,-2.41592,2.26202,-0.28867,-0.78172,-0.53709,0.13081,7.15652,1.98229,-2.29128
-0.19610,1.79107,-0.39495,-0.93963,0.53412,0.27603,0.99502,1.00908,1.26258,1.05420,-2.74904,2.22310,-0.28475,-0.77706,-0.54258,0.14387,10.64645,0.43312,-1.83102
-0.20808,1.79591,-0.38939,-0.92080,0.48982,0.30674,1.15186,0.97993,1.22986,1.16376,-2.84656,1.55259,-0.28046,-0.77199,-0.54860,0.15624,10.51511,-1.49788,-2.26091
-0.21993,1.80077,-0.38429,-0.90422,0.45659,0.32144,1.28450,1.06499,1.21210,1.43155,-2.77105,0.82480,-0.27755,-0.76614,-0.55378,0.17121,10.25521,4.23941,-2.56242
-0.23110,1.80488,-0.37963,-0.88059,0.41885,0.32610,1.32918,1.13108,1.17196,1.98618,-2.83112,-0.03852,-0.27544,-0.76075,-0.55771,0.18537,5.67181,7.14413,-2.11777
-0.24165,1.80859,-0.37556,-0.85212,0.38333,0.31971,1.26130,1.15649,1.11103,2.22201,-2.56121,-0.71222,-0.27403,-0.75684,-0.55956,0.19749,-3.72339,2.51277,-3.60161
-0.25137,1.81170,-0.37197,-0.81552,0.34526,0.30737,1.14851,1.18702,1.02732,2.40357,-2.34429,-0.62259,-0.27390,-0.75348,-0.56006,0.20874,-7.40718,2.63918,-4.24158
-0.26122,1.81495,-0.36828,-0.78973,0.31827,0.30116,1.06083,1.12732,0.97327,2.11719,-2.26739,-0.27341,-0.27223,-0.75058,-0.56115,0.21824,-7.44256,-1.64050,-4.91602
-0.27089,1.81760,-0.36456,-0.76704,0.28784,0.29738,0.98030,1.00302,0.96880,1.40174,-2.00743,-0.19833,-0.26847,-0.74864,-0.56235,0.22635,-6.40991,-8.85371,-1.66405
-0.28060,1.81979,-0.36088,-0.75025,0.25616,0.29303,0.89900,0.87296,1.05075,0.78672,-2.04458,-0.33848,-0.26233,-0.74778,-0.56285,0.23495,-4.43006,-8.21894,4.02696
-0.29052,1.82208,-0.35740,-0.74062,0.23333,0.28645,0.81591,0.76310,1.13620,0.92281,-1.92982,-0.72573,-0.25556,-0.74747,-0.56273,0.24353,-4.93919,-9.98502,7.26922
-0.30005,1.82415,-0.35432,-0.72698,0.21286,0.27494,0.70106,0.67220,1.21017,1.39840,-1.71421,-1.05753,-0.24870,-0.74817,-0.56132,0.25161,-7.39621,-9.32410,6.50907
-0.30849,1.82528,-0.35178,-0.69820,0.18162,0.25597,0.50288,0.50574,1.25836,1.88918,-1.96391,-0.93897,-0.24119,-0.75128,-0.55821,0.25654,-10.53936,-10.01759,3.49924
-0.31682,1.82639,-0.34891,-0.67396,0.15737,0.24592,0.41036,0.37434,1.24017,2.19563,-2.15292,-0.69816,-0.23453,-0.75288,-0.55682,0.26098,-8.24056,-11.23767,-0.35001
-0.32433,1.82668,-0.34608,-0.64218,0.12531,0.23785,0.33938,0.23597,1.17547,2.39515,-2.31053,-0.46653,-0.22838,-0.75441,-0.55605,0.26364,-5.23284,-10.87885,-3.64565
-0.33096,1.82619,-0.34319,-0.60249,0.08803,0.23184,0.36456,0.24278,1.06162,2.34338,-2.16592,-0.34532,-0.22494,-0.75334,-0.55669,0.26829,0.50292,-2.22698,-7.31249
-0.33730,1.82573,-0.34024,-0.56643,0.05948,0.22813,0.45251,0.38416,0.95763,2.48194,-1.77678,-0.25194,-0.22358,-0.74994,-0.55793,0.27625,4.33985,8.45216,-7.33786
-0.34307,1.82524,-0.33724,-0.52984,0.03723,0.22602,0.57380,0.58183,0.87798,2.71613,-1.40440,-0.08300,-0.22328,-0.74483,-0.55969,0.28656,7.32548,15.44061,-6.01997
-0.34837,1.82473,-0.33414,-0.49413,0.01974,0.22547,0.63677,0.66765,0.81005,2.67037,-1.21246,0.06961,-0.22229,-0.74054,-0.56131,0.29516,5.66871,9.71568,-4.75963
-0.35322,1.82399,-0.33084,-0.45861,0.00203,0.22866,0.65693,0.59893,0.76245,2.19465,-1.18543,0.30807,-0.21927,-0.73777,-0.56318,0.30073,2.03904,-1.49386,-3.54352
-0.35819,1.82321,-0.32742,-0.43357,-0.01223,0.23300,0.63016,0.44336,0.72006,1.47523,-0.96585,0.36698,-0.21499,-0.73654,-0.56487,0.30366,-1.39869,-11.28279,-3.72219
-0.36331,1.82243,-0.32396,-0.41731,-0.02284,0.23703,0.61760,0.33851,0.70390,1.29644,-0.73261,0.24309,-0.21046,-0.73519,-0.56647,0.30710,-0.99753,-9.53256,-2.11475
-0.36803,1.82167,-0.32060,-0.39831,-0.03015,0.23828,0.61424,0.28481,0.67942,1.25336,-0.34670,-0.08669,-0.20651,-0.73343,-0.56815,0.31086,-0.11160,-6.76851,-2.31826
-0.37243,1.82101,-0.31734,-0.37847,-0.03424,0.23759,0.62019,0.32009,0.65892,1.43539,-0.25444,-0.00396,-0.20381,-0.73082,-0.56947,0.31633,-0.38562,2.36523,-1.27315
-0.37660,1.82026,-0.31394,-0.35898,-0.03875,0.23955,0.65545,0.38194,0.62930,1.27607,-0.33383,0.33841,-0.20172,-0.72727,-0.57131,0.32247,1.23246,3.50545,-2.23258
-0.38072,1.81928,-0.31019,-0.34344,-0.04618,0.24717,0.72575,0.42788,0.61271,0.95785,-0.65678,0.78003,-0.19911,-0.72291,-0.57403,0.32900,5.09602,5.35476,-1.74412
-0.38500,1.81806,-0.30610,-0.33444,-0.05565,0.25826,0.81116,0.42283,0.62640,0.53489,-0.65031,0.74981,-0.19489,-0.71851,-0.57740,0.33521,5.78851,-0.42810,0.24698
-0.38928,1.81680,-0.30205,-0.32707,-0.06361,0.26612,0.86220,0.37917,0.65887,0.67785,-0.59368,0.36037,-0.18964,-0.71478,-0.58046,0.34086,5.10567,-1.53000,2.07873
-0.39343,1.81557,-0.29820,-0.31945,-0.06901,0.26860,0.86026,0.30370,0.66282,0.72633,-0.43043,0.05933,-0.18446,-0.71205,-0.58306,0.34496,0.84608,-5.73509,1.30996
-0.39712,1.81433,-0.29466,-0.30670,-0.07323,0.26531,0.81128,0.20566,0.66938,0.98568,-0.22214,-0.42769,-0.17896,-0.71052,-0.58483,0.34802,-1.52919,-5.48866,0.96136
-0.40063,1.81314,-0.29132,-0.29368,-0.07567,0.25931,0.73198,0.13307,0.64066,0.85328,-0.16533,-0.42692,-0.17465,-0.70953,-0.58601,0.35023,-5.45201,-7.84406,-2.51687
-0.40401,1.81196,-0.28798,-0.28178,-0.07741,0.25478,0.69250,0.13333,0.61708,0.89865,-0.02231,-0.34956,-0.17115,-0.70757,-0.58731,0.35372,-3.97756,-1.70556,-2.37595
-0.40689,1.81066,-0.28467,-0.26398,-0.08072,0.25101,0.70445,0.22502,0.62680,1.02185,-0.33448,-0.09520,-0.16822,-0.70406,-0.58865,0.35985,0.62267,5.91037,0.96203
-0.40977,1.80922,-0.28123,-0.25013,-0.08572,0.25031,0.70715,0.24922,0.62663,1.10758,-0.38732,0.05853,-0.16471,-0.70102,-0.59019,0.36485,0.27429,2.89899,-0.32815
-0.41243,1.80760,-0.27759,-0.23568,-0.09288,0.25338,0.72796,0.20479,0.60053,1.16173,-0.60065,0.42640,-0.16048,-0.69815,-0.59264,0.36825,0.89240,-0.99574,-0.66569
-0.41961,1.80731,-0.27433,-0.23256,-0.09899,0.25984,0.73629,0.04761,0.54433,0.91443,-0.57794,0.37372,-0.15496,-0.69647,-0.59595,0.36847,2.13133,-9.12199,-4.05459
-0.42760,1.80729,-0.27121,-0.23437,-0.10137,0.26348,0.73783,-0.11820,0.49894,0.45502,-0.18032,0.03716,-0.14871,-0.69535,-0.59942,0.36753,0.99029,-13.40402,-5.08195
-0.43389,1.80688,-0.26805,-0.23392,-0.10057,0.26259,0.72532,-0.22534,0.49089,0.61761,-0.08161,-0.34825,-0.14237,-0.69435,-0.60218,0.36741,0.19909,-7.34804,-0.86299
-0.43676,1.80546,-0.26472,-0.22618,-0.10064,0.25624,0.66883,-0.30701,0.47069,0.71774,-0.03714,-0.78900,-0.13677,-0.69414,-0.60410,0.36679,-3.05664,-7.78159,-1.58776
-0.43941,1.80399,-0.26184,-0.21622,-0.10138,0.24379,0.58237,-0.34987,0.43780,0.55292,-0.11332,-1.03519,-0.13234,-0.69446,-0.60520,0.36600,-6.04097,-4.72812,-2.98686
-0.44185,1.80239,-0.25952,-0.20512,-0.10416,0.22477,0.48397,-0.30382,0.41351,0.79385,-0.18532,-1.39168,-0.12965,-0.69444,-0.60529,0.36683,-5.46317,3.75561,-1.15835
-0.44410,1.80084,-0.25751,-0.19479,-0.10582,0.20556,0.37217,-0.29209,0.37088,0.70119,-0.11928,-1.38396,-0.12739,-0.69523,-0.60502,0.36658,-8.16148,-0.34826,-3.11642
-0.44624,1.79926,-0.25559,-0.18508,-0.10760,0.18970,0.28383,-0.23801,0.34518,0.80647,-0.14050,-1.26724,-0.12586,-0.69565,-0.60439,0.36734,-7.62829,3.10503,-2.57383
-0.44794,1.79751,-0.25389,-0.17017,-0.11199,0.17397,0.20604,-0.13843,0.30760,1.05812,-0.42339,-0.68921,-0.12587,-0.69559,-0.60346,0.36899,-6.09642,6.83002,-1.54789
-0.44948,1.79546,-0.25193,-0.15580,-0.12052,0.16598,0.17267,-0.09077,0.23733,1.09277,-0.67253,-0.47371,-0.12589,-0.69518,-0.60365,0.36944,-2.95097,3.76786,-4.15104
-0.45092,1.79331,-0.24997,-0.14356,-0.12838,0.16015,0.14337,-0.01792,0.17492,0.83952,-0.60380,-0.50550,-0.12683,-0.69439,-0.60377,0.37040,-1.95707,3.87102,-6.32615
-0.45219,1.79110,-0.24819,-0.13160,-0.13555,0.15272,0.08505,0.13167,0.12998,0.41952,-0.33688,-0.43291,-0.12976,-0.69327,-0.60275,0.37315,-3.94278,7.66313,-3.62917
-0.45361,1.78900,-0.24637,-0.12436,-0.13913,0.14742,0.05763,0.39925,0.16022,0.41013,-0.05939,-0.23680,-0.13379,-0.69039,-0.60079,0.38014,-1.76706,17.01605,1.74226
-0.45512,1.78709,-0.24442,-0.12070,-0.13856,0.14558,0.04564,0.53228,0.16860,0.34814,0.15295,0.01156,-0.13682,-0.68802,-0.59939,0.38554,-1.78197,14.35681,1.50560
-0.45678,1.78533,-0.24218,-0.12038,-0.13576,0.14944,0.05542,0.58984,0.20343,-0.03196,0.25738,0.62740,-0.13838,-0.68585,-0.59819,0.39067,-0.32190,6.40686,1.80878
-0.45881,1.78357,-0.23924,-0.12673,-0.13343,0.16468,0.11802,0.44309,0.22355,-0.39675,0.10861,1.22838,-0.13620,-0.68479,-0.59892,0.39219,3.85730,-6.32159,1.27508
-0.46096,1.78176,-0.23621,-0.13320,-0.13268,0.17719,0.16059,0.28919,0.23938,-0.70538,0.06893,1.27679,-0.13316,-0.68436,-0.59976,0.39269,4.48260,-14.82918,0.87790
-0.46339,1.78008,-0.23257,-0.14289,-0.12985,0.19683,0.22164,0.11363,0.28376,-0.64983,0.33657,1.19392,-0.12799,-0.68424,-0.60107,0.39261,4.25698,-12.46362,2.44085
-0.46577,1.77859,-0.22891,-0.14954,-0.12437,0.21237,0.27939,0.02065,0.33765,-0.40766,0.41070,0.98419,-0.12311,-0.68348,-0.60216,0.39383,4.66218,-6.64009,3.78426
-0.46810,1.77725,-0.22523,-0.15354,-0.11773,0.22450,0.30559,-0.06293,0.37921,-0.23220,0.63932,1.16830,-0.11816,-0.68317,-0.60291,0.39473,2.74773,-6.24471,3.60661
-0.47040,1.77616,-0.22074,-0.15622,-0.10856,0.24741,0.40862,-0.19009,0.42395,0.01615,0.61691,1.69395,-0.11085,-0.68215,-0.60536,0.39486,5.48439,-7.44433,3.33380
-0.47257,1.77494,-0.21610,-0.15617,-0.10384,0.26744,0.52075,-0.34289,0.43612,0.14549,0.25414,1.74840,-0.10258,-0.68103,-0.60893,0.39355,8.97681,-10.44668,1.59909
-0.47476,1.77355,-0.21100,-0.15648,-0.10300,0.28959,0.65573,-0.56178,0.43574,0.05038,-0.07746,2.00088,-0.09193,-0.68006,-0.61400,0.38997,10.91469,-14.47601,-0.06042
-0.47760,1.77198,-0.20483,-0.16762,-0.10526,0.32461,0.86121,-1.12492,0.40612,-1.14958,0.03886,1.91229,-0.07343,-0.68147,-0.62250,0.37775,11.96089,-33.21922,-4.24333
-0.48086,1.77062,-0.19895,-0.18323,-0.10342,0.34724,0.99083,-1.50554,0.44054,-1.37245,0.23847,1.88232,-0.05515,-0.68261,-0.62914,0.36766,12.48972,-27.28482,2.37741
-0.48531,1.76956,-0.19235,-0.21495,-0.09700,0.37662,1.17251,-2.11637,0.49487,-2.52963,0.65586,1.90878,-0.02931,-0.68530,-0.63734,0.35114,11.73878,-42.23921,-0.30169
-0.49000,1.76853,-0.18538,-0.24342,-0.09165,0.40592,1.41937,-2.38676,0.65206,-2.02801,0.28948,2.33201,-0.00372,-0.68357,-0.64532,0.34100,14.28833,-23.12544,11.29812
-0.49482,1.76727,-0.17787,-0.26748,-0.09137,0.43723,1.73963,-2.60500,0.74520,-1.60167,0.02462,2.15208,0.02295,-0.67869,-0.65567,0.33008,21.77592,-15.84814,9.97889
-0.50011,1.76604,-0.17003,-0.29450,-0.09071,0.46707,2.11718,-2.86100,0.81255,-1.75029,0.04348,1.64750,0.05235,-0.67134,-0.66788,0.31702,23.66085,-13.74169,6.90868
-0.50590,1.76484,-0.16259,-0.32410,-0.08952,0.48304,2.45193,-3.10671,0.88096,-2.48975,0.14047,0.53842,0.08330,-0.66274,-0.67988,0.30265,24.43660,-18.93680,4.66566
-0.51211,1.76369,-0.15581,-0.35321,-0.08794,0.48392,2.71255,-3.23140,1.03248,-2.73500,0.13520,-0.50191,0.11508,-0.65246,-0.69021,0.29096,20.93879,-13.09980,12.26270
-0.51917,1.76261,-0.14997,-0.38917,-0.08542,0.46839,2.98287,-3.32305,1.26785,-2.49626,0.26481,-1.90637,0.14979,-0.63943,-0.69977,0.28109,17.02717,-8.96045,18.25477
-0.52637,1.76177,-0.14561,-0.41883,-0.07950,0.43183,3.15228,-3.47970,1.46464,-1.49702,0.46108,-3.27938,0.18588,-0.62668,-0.70716,0.26953,11.25653,-9.96118,18.04180
-0.53324,1.76134,-0.14268,-0.43594,-0.06798,0.37985,3.28664,-3.73381,1.54643,-0.65118,1.08001,-4.23231,0.22303,-0.61397,-0.71356,0.25324,10.57112,-19.74459,4.35477
-0.53900,1.76144,-0.14123,-0.43037,-0.05045,0.31535,3.37125,-3.83477,1.65729,1.25233,1.34003,-5.10827,0.25872,-0.59968,-0.71840,0.23948,6.77152,-10.67647,8.00842
-0.54327,1.76190,-0.14113,-0.40106,-0.03087,0.24330,3.44403,-3.85671,1.73478,2.83850,1.39484,-5.36249,0.29272,-0.58391,-0.72262,0.22624,3.53549,-4.04455,5.19702
-0.54557,1.76244,-0.14243,-0.34559,-0.01480,0.16485,3.54437,-3.82953,1.78610,5.27733,0.96004,-5.80741,0.32554,-0.56593,-0.72684,0.21319,3.40117,2.12224,9.28257
-0.54565,1.76283,-0.14534,-0.26616,-0.00509,0.07759,3.75695,-3.94807,1.64921,6.52108,0.34831,-6.60141,0.35832,-0.54604,-0.73244,0.19231,15.14935,-3.27794,-7.93217
-0.54315,1.76295,-0.15036,-0.16207,-0.00188,-0.02465,3.99158,-4.01208,1.56580,8.40853,0.38587,-8.26167,0.39075,-0.52314,-0.73778,0.17123,19.98337,-2.74523,-3.60880
-0.53872,1.75670,-0.15328,0.00100,-0.04806,-0.11757,4.12385,-3.96653,1.65625,9.90597,1.10047,-9.79202,0.42281,-0.49851,-0.74073,0.15502,11.93337,0.28775,3.39468
-0.55020,1.74067,-0.13960,0.02460,-0.04347,-0.11013,3.84000,-3.52962,2.25097,13.54450,3.16189,-11.02773,0.45244,-0.47460,-0.73779,0.16034,-20.28181,12.16826,34.40870
-0.55945,1.72702,-0.13035,0.04078,-0.03885,-0.09784,3.36837,-3.19767,2.67358,16.12806,5.42234,-10.95434,0.47938,-0.45606,-0.73076,0.16792,-47.86058,16.68800,39.58718
-0.57348,1.70801,-0.12085,0.05162,-0.03134,-0.08324,2.75202,-3.12835,2.88453,17.43423,7.67324,-10.16301,0.50649,-0.44492,-0.71783,0.17388,-54.31055,2.69519,18.80899
-0.58583,1.69202,-0.11714,0.04240,-0.02262,-0.08709,2.76703,-3.80261,2.33460,14.97961,9.00254,-11.90230,0.53993,-0.43430,-0.70592,0.14676,9.90880,-30.28212,-40.90948
-0.59805,1.67659,-0.11619,0.03725,-0.01536,-0.09177,2.77056,-4.76260,1.92191,14.70104,10.05185,-13.19283,0.58132,-0.42444,-0.68497,0.11282,23.18575,-56.76496,-42.25879
-0.61113,1.66234,-0.12179,0.03626,-0.00894,-0.09483,2.70386,-5.91284,1.59117,17.63652,10.81411,-13.26783,0.62831,-0.41632,-0.65303,0.07378,12.35814,-73.61961,-33.05305
-0.62362,1.64954,-0.13380,0.03987,-0.00357,-0.09263,2.47892,-7.02894,1.33824,22.48224,11.59313,-12.35684,0.67622,-0.41031,-0.61092,0.03398,12.24044,-78.19760,-35.26843
-0.63539,1.63824,-0.15193,0.04451,0.00092,-0.08684,2.20922,-8.00820,1.04770,29.72135,12.39197,-8.86676,0.72122,-0.40573,-0.56141,-0.00694,-7.48913,-70.35104,-30.50057
-0.64302,1.63130,-0.17289,0.04144,0.00533,-0.08063,1.99570,-8.71937,0.44910,34.56228,14.18019,-4.29096,0.75690,-0.40523,-0.50986,-0.05418,13.07829,-59.74794,-52.09681
-0.64720,1.62783,-0.20575,0.03020,0.01007,-0.06989,1.67523,-9.19542,-0.60149,40.10098,17.17360,5.19309,0.77944,-0.41697,-0.45501,-0.10759,16.67174,-29.16865,-66.65398
-0.64417,1.63143,-0.23621,0.00568,0.01402,-0.05900,1.30135,-9.18116,-2.05600,44.09640,19.50297,14.57072,0.78425,-0.44183,-0.40407,-0.16266,31.33049,-0.50116,-88.72910
-0.63399,1.64241,-0.26545,-0.02950,0.01741,-0.04495,0.68512,-8.64708,-3.79834,45.69396,19.86747,24.67966,0.77012,-0.48447,-0.35664,-0.21217,40.12894,32.40717,-116.84950
-0.61965,1.65655,-0.28763,-0.07125,0.02067,-0.02492,-0.27653,-7.69772,-5.59609,50.97070,16.40981,33.88383,0.73938,-0.54401,-0.31012,-0.24739,27.40868,65.11215,-148.22240
-0.59215,1.68390,-0.31101,-0.14719,0.04489,-0.01562,-0.78068,-5.56841,-8.64591,58.04140,6.06713,45.34781,0.65690,-0.63645,-0.28540,-0.28630,89.86501,103.91580,-189.13410
-0.55881,1.71616,-0.32311,-0.21698,0.10012,-0.03113,-0.11013,-3.95615,-11.95750,65.67072,-9.47668,51.60120,0.54002,-0.72037,-0.25995,-0.34910,160.79020,64.64814,-197.03940
-0.51856,1.75036,-0.32655,-0.26019,0.18138,-0.05936,1.36879,-2.94794,-15.00626,69.72854,-35.06034,54.85854,0.39207,-0.78117,-0.23025,-0.42783,177.59260,-39.67764,-222.10560
-0.44099,1.79495,-0.31703,-0.25727,0.32559,-0.09176,3.76134,-2.29391,-18.68535,59.41402,-84.93421,55.17989,0.18709,-0.81097,-0.19438,-0.51917,147.72270,-99.89068,-217.28290
0.28578,1.81847,-0.12806,8.89904,-0.63992,2.94793,6.65859,-1.62929,-21.26425,22.60851,-136.30610,52.06589,-0.02166,-0.79437,-0.16799,-0.58335,140.13180,-98.11263,-177.48610
0.62014,1.78339,-0.04842,8.86084,-2.45716,3.48059,8.34614,0.22946,-21.68782,-29.18450,-161.10640,31.56166,-0.20991,-0.76588,-0.16173,-0.58584,140.81690,-105.83300,-103.80860
0.81957,1.65933,0.02448,8.01559,-4.73459,3.81149,11.71728,4.25417,-19.74275,-86.01627,-156.63000,11.18173,-0.38912,-0.72621,-0.24264,-0.51219,317.00390,-172.12840,66.54372
0.89835,1.48103,0.07799,6.34297,-7.02547,3.77561,18.23572,7.82386,-16.38490,-119.89360,-131.51550,-19.34152,-0.56780,-0.61261,-0.39791,-0.37944,342.53840,-316.20760,-74.61678
0.91755,1.30710,0.11338,4.79097,-8.43910,3.47492,25.18370,8.82951,-13.60446,-139.45650,-107.63970,-36.01824,-0.71011,-0.40003,-0.53748,-0.21640,408.43160,-318.33290,-316.35800
0.88661,1.12835,0.12714,3.00919,-9.49638,2.90524,29.89726,5.52408,-11.29511,-155.77690,-69.85053,-46.10528,-0.75072,-0.12722,-0.63996,-0.10336,329.45590,-191.01320,-495.34720
0.77655,0.97321,0.09553,0.45093,-9.86413,1.72864,25.57815,-2.73635,-12.02696,-144.49940,14.77059,-64.90582,-0.70282,0.06797,-0.67402,-0.21709,-283.98820,230.65600,-449.11440
0.67702,0.87475,0.06742,-1.24510,-9.19288,0.90536,15.90751,-4.89976,-14.19572,-98.68994,72.77271,-47.97901,-0.68404,0.11078,-0.60687,-0.38926,-430.52340,521.23610,-237.43990
0.60314,0.80518,0.05415,-2.11756,-8.23945,0.51459,8.43330,-2.43433,-14.08004,-51.27152,87.15369,-22.39567,-0.70019,0.07751,-0.50785,-0.49581,-321.15390,658.74160,70.47445
0.54086,0.78108,0.05090,-2.73112,-7.03897,0.38078,3.16172,-0.15705,-10.90106,-29.20829,72.81443,-3.46649,-0.70009,-0.00850,-0.45490,-0.55033,-190.20700,360.95620,250.17110
0.48148,0.73685,0.05567,-3.15758,-6.16897,0.37893,1.54779,0.30075,-8.98494,-34.62766,56.19147,2.14238,-0.69694,-0.01831,-0.43203,-0.57209,-91.77980,79.92880,193.00960
0.42053,0.68445,0.06266,-3.47981,-5.63696,0.41031,0.54041,0.17301,-9.17353,-34.56099,52.34335,3.39702,-0.68727,0.01706,-0.38852,-0.61353,-78.86700,70.77187,52.82819
0.34206,0.66340,0.07269,-4.00881,-4.73221,0.46289,-0.20660,-0.96222,-9.85839,-23.01502,49.50720,-0.57974,-0.65692,0.08116,-0.35281,-0.66136,-73.41388,-30.11040,-44.19581
0.27650,0.63997,0.08003,-4.20226,-4.04561,0.45363,-0.30652,-1.74543,-9.89058,-5.47599,48.88159,-3.70190,-0.63363,0.14236,-0.32434,-0.68779,-40.40487,-41.53800,-21.10069
0.22269,0.62812,0.08469,-4.14635,-3.30304,0.40818,-0.54952,-2.38396,-8.75897,11.49072,42.80593,-3.96600,-0.60889,0.18083,-0.31826,-0.70375,-46.64193,-31.79852,43.25545
0.18039,0.61252,0.08884,-3.93101,-2.77185,0.36876,-0.82981,-2.36474,-7.01826,15.80246,35.28124,-3.53813,-0.59266,0.19244,-0.32160,-0.71295,-38.30804,4.35411,130.03880
0.14273,0.59885,0.09236,-3.68290,-2.32672,0.32684,-1.00259,-1.65887,-5.91356,15.78627,30.51614,-3.93790,-0.58457,0.19573,-0.30825,-0.72453,-9.62962,50.40248,87.89813
0.10632,0.58835,0.09453,-3.44855,-1.93895,0.27785,-0.84237,-0.38254,-5.51650,15.64896,26.89406,-4.09648,-0.58726,0.19574,-0.27174,-0.73686,29.16807,77.92100,36.37644
0.07353,0.57993,0.09584,-3.21383,-1.59958,0.22750,-0.40715,0.91274,-5.32334,17.71551,23.39235,-3.71033,-0.59748,0.19351,-0.22509,-0.74492,61.99706,87.49500,4.73234
0.04400,0.57384,0.09697,-2.97595,-1.30007,0.18677,-0.05274,1.69113,-4.86733,17.04979,20.53689,-2.89971,-0.60648,0.18945,-0.18828,-0.74889,47.42778,51.25821,25.38965
0.01609,0.57066,0.09766,-2.75595,-1.03170,0.15141,0.11097,1.93722,-4.28090,15.76569,18.10947,-2.52177,-0.61119,0.18686,-0.16280,-0.75168,32.55389,29.02262,33.31589
-0.01254,0.56922,0.09796,-2.59649,-0.81248,0.11986,-0.01653,1.50339,-3.64462,12.24470,18.15723,-3.14392,-0.60686,0.19204,-0.15462,-0.75560,-4.74467,-21.03895,56.40551
-0.03817,0.57395,0.09651,-2.42538,-0.54080,0.06622,-0.01175,0.81893,-3.38422,9.92221,16.52137,-3.67682,-0.60081,0.20955,-0.14772,-0.75716,-9.72363,-40.71279,22.72108
-0.06284,0.57944,0.09449,-2.26967,-0.32044,0.01660,0.02065,0.12923,-3.25276,12.81924,15.31912,-3.42822,-0.59394,0.23223,-0.14135,-0.75718,-4.71810,-48.06124,5.31721
-0.08507,0.58585,0.09252,-2.10836,-0.14824,-0.01679,-0.03591,-0.41102,-2.99235,14.04487,12.89639,-1.61264,-0.58606,0.25216,-0.13942,-0.75730,-13.76371,-47.91247,17.35283
-0.10191,0.59478,0.09157,-1.90081,0.02168,-0.02472,-0.14576,-0.84273,-2.60494,15.22097,11.45504,0.81673,-0.57792,0.26878,-0.14280,-0.75722,-13.56125,-33.05015,28.09219
-0.11320,0.60601,0.09288,-1.64395,0.19389,0.00740,-0.35010,-0.94238,-2.25427,16.12639,9.94020,3.53991,-0.56879,0.27888,-0.14390,-0.76026,-15.08140,-8.94355,22.99910
-0.12420,0.61631,0.09553,-1.44259,0.30819,0.05463,-0.60154,-0.78319,-2.17768,16.86342,8.91832,4.99637,-0.55726,0.28640,-0.13711,-0.76722,-15.51989,7.86207,11.93759
-0.13096,0.62752,0.09949,-1.22499,0.40783,0.11045,-0.78699,-0.36367,-2.27827,18.58500,7.57397,4.92886,-0.54566,0.28963,-0.12127,-0.77696,-17.54406,28.55042,-5.26118
-0.12532,0.63952,0.10663,-0.84218,0.48680,0.20980,-0.70214,0.91536,-2.26528,19.87119,0.66524,3.75423,-0.54339,0.27116,-0.08966,-0.78941,6.85108,71.38857,-3.38099
-0.12359,0.64714,0.11119,-0.60771,0.47951,0.24290,-0.51084,1.46106,-1.89793,20.21716,-2.51166,1.85429,-0.54489,0.25692,-0.07259,-0.79487,29.88496,55.71980,15.16417
-0.11857,0.65310,0.11500,-0.38167,0.44724,0.25419,-0.33752,1.76634,-1.40275,18.35603,-3.58988,0.15307,-0.54834,0.24106,-0.06237,-0.79832,18.99546,30.58452,38.70400
-0.10603,0.65655,0.11740,-0.07797,0.38141,0.23828,-0.04005,1.95109,-0.78138,15.89099,-3.68785,-1.75843,-0.55710,0.22274,-0.05732,-0.79796,22.01869,10.99633,34.03678
-0.09683,0.66062,0.11904,0.10064,0.34054,0.21354,0.05999,1.90392,-0.47586,14.48845,-3.72829,-2.11128,-0.56079,0.21132,-0.05235,-0.79882,15.49492,-0.13654,25.05917
-0.08417,0.66399,0.11989,0.29274,0.29644,0.18162,0.01586,1.72383,-0.10144,13.29391,-3.30870,-1.99272,-0.56238,0.20058,-0.05414,-0.80035,1.68292,-12.61619,28.31996
-0.06947,0.66565,0.12054,0.47610,0.25115,0.15513,-0.07359,1.61272,0.21465,13.30269,-3.58690,-1.36813,-0.56281,0.18856,-0.05660,-0.80280,-1.97037,-8.59973,21.81191
-0.05090,0.66639,0.12078,0.68708,0.19789,0.12969,-0.28184,1.53379,0.74394,13.32773,-3.54018,-1.40116,-0.56148,0.17140,-0.06642,-0.80681,-10.51059,-6.56385,33.90827
-0.03228,0.66686,0.12135,0.84617,0.15546,0.11243,-0.34968,1.58348,1.14063,13.36063,-3.38341,-1.11728,-0.56210,0.15192,-0.07374,-0.80965,-4.80683,0.39653,33.81338
-0.00969,0.66620,0.12140,1.03383,0.11316,0.09215,-0.36079,1.79038,1.55104,13.48491,-2.38066,-1.55525,-0.56413,0.12646,-0.08077,-0.81194,-0.62516,12.20419,31.69069
0.01540,0.66570,0.12062,1.21926,0.08434,0.06269,-0.26351,2.11174,1.85960,12.98191,-1.31027,-2.41598,-0.56838,0.09720,-0.08441,-0.81263,4.70135,21.55367,24.30785
0.04280,0.66542,0.11878,1.39914,0.06410,0.02005,0.03342,2.61346,1.92337,12.63317,-1.17042,-3.55716,-0.57707,0.06521,-0.07854,-0.81029,14.73279,35.69148,5.39173
0.07164,0.66492,0.11527,1.56491,0.04972,-0.03682,0.35439,3.05547,2.06684,11.61375,-0.69283,-4.49028,-0.58784,0.03023,-0.07339,-0.80507,20.37077,37.59666,3.25809
0.10057,0.66529,0.11104,1.68938,0.05243,-0.09317,0.54753,3.31570,2.22163,9.98331,1.09913,-4.81392,-0.59679,-0.00394,-0.07092,-0.79924,17.89985,27.46783,10.54097
0.13218,0.66793,0.10472,1.82766,0.09131,-0.17192,0.63746,3.54028,2.38398,7.75378,3.59533,-4.99124,-0.60372,-0.03962,-0.06925,-0.79319,7.50193,15.71008,10.40058
0.16378,0.67323,0.09726,1.93485,0.16218,-0.25362,0.57225,3.62987,2.47600,6.17848,5.12858,-5.06920,-0.60660,-0.07280,-0.06828,-0.78872,-2.13204,7.12361,5.64737
0.19496,0.68013,0.08943,2.01061,0.24465,-0.32418,0.41262,3.60211,2.67995,5.07455,6.44749,-4.90574,-0.60615,-0.10607,-0.07200,-0.78495,-6.83023,-3.24516,14.49689
0.22612,0.68844,0.08140,2.06525,0.32858,-0.38304,0.24361,3.56314,2.90173,4.19147,7.48348,-4.86591,-0.60364,-0.14006,-0.07749,-0.78102,-8.10041,-5.59553,19.23065
0.25796,0.70065,0.07105,2.11670,0.45575,-0.46449,0.02351,3.54166,3.20997,2.02064,8.36093,-5.16279,-0.59777,-0.17678,-0.08579,-0.77721,-8.99429,-4.20614,23.75198
0.28830,0.71291,0.06066,2.13124,0.55391,-0.52857,-0.10017,3.55185,3.32068,0.17660,8.38204,-5.48544,-0.59240,-0.21166,-0.09052,-0.77205,-8.66589,-1.38432,15.31171
0.31735,0.72758,0.04851,2.11972,0.66781,-0.60700,-0.18992,3.55186,3.34782,-2.02571,8.20163,-5.71300,-0.58660,-0.24513,-0.09387,-0.76616,-6.19556,-0.96963,5.42676
0.34429,0.74461,0.03467,2.07244,0.79237,-0.69561,-0.22822,3.47801,3.30239,-3.89907,7.63226,-5.45127,-0.58114,-0.27545,-0.09687,-0.75962,-3.03204,-4.37786,-2.22879
0.37011,0.76125,0.02119,2.01945,0.88257,-0.75788,-0.23132,3.36962,3.28401,-4.95862,7.50083,-5.01360,-0.57556,-0.30451,-0.10121,-0.75217,-0.02278,-7.83533,-1.92927
0.39378,0.77998,0.00661,1.94407,0.98729,-0.82304,-0.25327,3.22237,3.27573,-5.78594,7.45718,-4.30839,-0.56889,-0.33191,-0.10663,-0.74487,1.79429,-10.80898,-1.46374
0.41526,0.80087,-0.00887,1.84821,1.10462,-0.88728,-0.29922,3.05806,3.32518,-6.18142,7.19142,-3.67227,-0.56046,-0.35894,-0.11377,-0.73763,-0.97704,-10.74891,2.00293
0.43579,0.82220,-0.02427,1.75803,1.20379,-0.93685,-0.34372,2.92402,3.43383,-6.80437,6.99110,-3.29196,-0.55057,-0.38667,-0.12239,-0.72964,0.60668,-10.16476,7.97043
0.45523,0.84380,-0.03966,1.67253,1.28530,-0.97573,-0.42354,2.85178,3.49736,-7.75578,6.68018,-2.87117,-0.53925,-0.41448,-0.12964,-0.72153,-0.79008,-8.42430,8.69290
0.47086,0.86752,-0.05583,1.54248,1.38231,-1.01729,-0.61936,2.82677,3.44698,-8.85817,5.63600,-2.12692,-0.52550,-0.44144,-0.13274,-0.71509,-11.19937,-3.79980,0.07521
0.48491,0.89096,-0.07168,1.41484,1.45332,-1.04512,-0.80978,2.78045,3.37207,-9.57660,4.57963,-1.85920,-0.51078,-0.46700,-0.13478,-0.70911,-14.01461,-6.26321,-2.95780
0.49765,0.91398,-0.08740,1.29753,1.50082,-1.06514,-0.94413,2.71961,3.29873,-10.21189,3.44383,-1.64424,-0.49599,-0.49133,-0.13679,-0.70276,-11.41562,-7.35639,-2.23877
0.50493,0.93739,-0.10379,1.11263,1.54378,-1.09227,-1.10278,2.64077,3.09074,-10.41429,1.42772,-1.54280,-0.48151,-0.51265,-0.13531,-0.69788,-10.37099,-7.00557,-9.61321
0.51235,0.95945,-0.12000,0.96982,1.55397,-1.11024,-1.12531,2.58186,2.93465,-10.17769,0.20843,-1.23724,-0.46888,-0.53346,-0.13493,-0.69092,-3.68185,-5.38583,-10.82206
0.51793,0.98094,-0.13619,0.82966,1.55146,-1.12335,-1.13271,2.52216,2.76204,-10.06488,-0.47663,-0.55945,-0.45695,-0.55290,-0.13376,-0.68382,-0.71823,-4.81317,-10.98752
0.52271,1.00209,-0.15204,0.71209,1.54370,-1.12695,-1.18401,2.45280,2.60132,-9.69492,-0.76293,-0.00480,-0.44426,-0.57127,-0.13155,-0.67748,-4.16482,-6.59287,-12.65238
0.52485,1.02296,-0.16764,0.57938,1.53338,-1.12560,-1.23521,2.33545,2.50220,-9.24019,-0.81875,0.07491,-0.43059,-0.58834,-0.13035,-0.67191,-4.63486,-9.29892,-8.37742
0.52462,1.04363,-0.18320,0.43662,1.51900,-1.12281,-1.21318,2.22632,2.52347,-8.55497,-1.12980,0.20519,-0.41632,-0.60577,-0.13212,-0.66503,1.05742,-7.33781,0.52296
0.52474,1.06404,-0.19864,0.33404,1.50413,-1.11877,-1.17676,2.16328,2.58505,-8.62485,-1.44483,0.52103,-0.40151,-0.62377,-0.13485,-0.65690,6.06444,-4.50032,5.15969
0.52234,1.08367,-0.21379,0.21480,1.48079,-1.11122,-1.19393,2.10055,2.62317,-8.57625,-1.95208,0.73252,-0.38563,-0.64110,-0.13680,-0.64928,0.90177,-4.51933,3.33979
0.51842,1.10244,-0.22862,0.09825,1.44777,-1.10082,-1.24947,2.04325,2.62011,-8.25311,-2.91173,0.92389,-0.36915,-0.65767,-0.13742,-0.64212,-2.27104,-4.44910,2.44956
0.51333,1.11985,-0.24309,-0.01058,1.39941,-1.08656,-1.29836,1.98981,2.55326,-7.63153,-4.02724,1.05871,-0.35346,-0.67299,-0.13666,-0.63520,-3.97718,-4.94513,-2.91649
0.50714,1.13570,-0.25723,-0.11235,1.33660,-1.07001,-1.32761,1.92908,2.42447,-7.26286,-5.03328,1.27857,-0.33918,-0.68676,-0.13469,-0.62863,-2.61741,-5.30254,-6.92634
0.49986,1.14989,-0.27084,-0.20828,1.25998,-1.04814,-1.36289,1.83381,2.19623,-6.64904,-5.95273,1.92230,-0.32688,-0.69810,-0.13049,-0.62352,-3.25321,-7.07241,-13.58478
0.49248,1.16314,-0.28390,-0.28198,1.18709,-1.02273,-1.37356,1.71468,1.97004,-5.86506,-6.22692,2.21049,-0.31579,-0.70773,-0.12602,-0.61928,-2.57527,-11.15763,-17.66168
0.48333,1.17383,-0.29591,-0.36835,1.08964,-0.98609,-1.30711,1.55927,1.72546,-4.91823,-6.04220,2.17138,-0.30737,-0.71507,-0.12226,-0.61584,1.88135,-11.04438,-15.96266
0.47437,1.18416,-0.30763,-0.43279,1.00773,-0.95292,-1.14237,1.46761,1.58667,-4.18333,-5.71541,2.42698,-0.30011,-0.72300,-0.12142,-0.61030,9.54629,-6.67584,-11.83939
