posX, posY, posZ, velX, velY, velZ, angVelX, angVelY, angVelZ, accX, accY, accZ, rotX, rotY, rotZ, rotW, angAccX, angAccY, angAccZ
0.11120,1.32111,-0.55349,-0.40220,0.20279,-0.19376,0.64716,0.62684,0.00538,1.04434,0.72264,1.01896,-0.30580,-0.86234,-0.21397,-0.34216,10.01179,6.34572,1.39441
0.10639,1.32453,-0.55528,-0.38875,0.21269,-0.17840,0.69134,0.62314,0.03532,0.94721,0.65289,1.51019,-0.30796,-0.86281,-0.21800,-0.33645,5.99033,1.84501,2.06490
0.10167,1.32802,-0.55661,-0.37688,0.22140,-0.15908,0.58836,0.51586,0.06537,0.78581,0.57139,1.61653,-0.30793,-0.86315,-0.21965,-0.33452,-4.45468,-6.21477,2.23012
0.09702,1.33161,-0.55769,-0.36659,0.22990,-0.13990,0.43280,0.38471,0.09272,0.63831,0.62249,1.15350,-0.30664,-0.86355,-0.21977,-0.33460,-12.21924,-10.45898,2.47089
0.09235,1.33520,-0.55880,-0.35964,0.23664,-0.12589,0.38822,0.33724,0.10742,0.44227,0.59098,0.86114,-0.30652,-0.86393,-0.22119,-0.33279,-7.34658,-7.04088,1.37922
0.08774,1.33916,-0.55958,-0.35324,0.24810,-0.10949,0.51786,0.39382,0.11827,0.33443,0.98379,0.81304,-0.30864,-0.86411,-0.22584,-0.32718,5.53892,2.49752,0.04185
0.08297,1.34334,-0.56034,-0.35099,0.26050,-0.09654,0.70060,0.47318,0.15333,0.07721,1.16090,1.17204,-0.31115,-0.86426,-0.23263,-0.31957,14.78043,6.58052,1.84984
0.07803,1.34792,-0.56068,-0.35263,0.27624,-0.07991,0.85963,0.52432,0.23205,-0.19554,1.05472,1.35012,-0.31243,-0.86454,-0.24061,-0.31156,13.19805,4.29619,4.75687
0.07311,1.35269,-0.56067,-0.35352,0.29177,-0.06114,0.92335,0.52792,0.31241,0.06029,0.87918,1.23962,-0.31232,-0.86500,-0.24751,-0.30489,4.38484,0.35798,5.34491
0.06830,1.35741,-0.56056,-0.35202,0.30308,-0.04473,0.93158,0.51491,0.35207,0.02575,0.69213,1.15817,-0.31228,-0.86536,-0.25329,-0.29912,1.59139,-0.85915,3.38980
0.06344,1.36206,-0.56045,-0.35205,0.31050,-0.03237,0.95415,0.53130,0.38008,-0.06643,0.58035,0.87871,-0.31259,-0.86575,-0.25918,-0.29255,0.84923,-0.28032,2.16584
0.05866,1.36680,-0.56024,-0.35058,0.31764,-0.02123,0.94077,0.55452,0.39542,0.20057,0.46386,0.79776,-0.31283,-0.86637,-0.26413,-0.28596,0.24064,2.50097,1.84623
0.05402,1.37165,-0.55987,-0.34728,0.32519,-0.00985,0.91537,0.57808,0.41731,0.18651,0.50998,0.73151,-0.31271,-0.86718,-0.26869,-0.27932,-1.62941,0.96999,1.23438
0.04941,1.37655,-0.55944,-0.34436,0.33175,0.00005,0.88390,0.57063,0.45229,0.31361,0.64563,1.03873,-0.31183,-0.86797,-0.27335,-0.27326,-1.17283,0.95784,2.31321
0.04485,1.38174,-0.55851,-0.34153,0.34194,0.01605,0.82747,0.50753,0.52915,0.13575,0.57322,0.98293,-0.30894,-0.86895,-0.27813,-0.26858,-3.39950,-4.27685,4.43939
0.04050,1.38697,-0.55747,-0.33469,0.35036,0.03017,0.79143,0.48123,0.58941,0.65306,0.57036,0.73345,-0.30623,-0.87000,-0.28286,-0.26329,-3.02304,-2.92552,4.03097
0.03646,1.39226,-0.55648,-0.32448,0.35771,0.04023,0.78692,0.48448,0.62716,0.92665,0.65147,0.86468,-0.30409,-0.87094,-0.28784,-0.25717,-0.63933,0.59780,3.10156
0.03275,1.39763,-0.55524,-0.31130,0.36466,0.05178,0.77860,0.48553,0.64538,1.00858,0.37026,0.75662,-0.30213,-0.87177,-0.29264,-0.25118,0.06410,0.34166,1.87005
0.02969,1.40298,-0.55394,-0.28989,0.37036,0.06238,0.74388,0.49077,0.62020,1.49261,0.30537,0.67970,-0.30093,-0.87250,-0.29639,-0.24563,-1.82597,0.13601,-0.28188
0.02677,1.40822,-0.55267,-0.27160,0.37319,0.07042,0.73483,0.48917,0.57755,1.49048,0.18171,0.61552,-0.30042,-0.87280,-0.30039,-0.24029,-2.14556,-0.11548,-3.07276
0.02424,1.41345,-0.55129,-0.25142,0.37493,0.07814,0.76637,0.50632,0.51967,1.81429,0.24264,0.53205,-0.30105,-0.87260,-0.30499,-0.23436,0.95991,0.33581,-5.01309
0.02268,1.41879,-0.54961,-0.21970,0.37924,0.08962,0.84831,0.53968,0.44606,1.68057,0.25521,0.76011,-0.30304,-0.87169,-0.31069,-0.22759,5.10736,3.02352,-4.68093
0.02101,1.42415,-0.54793,-0.19632,0.38288,0.09880,0.87698,0.54339,0.40528,1.74031,0.32887,0.67469,-0.30409,-0.87104,-0.31579,-0.22157,2.06763,0.20469,-2.93166
0.01951,1.42959,-0.54613,-0.17561,0.38612,0.10705,0.89532,0.53563,0.36671,1.66837,0.20642,0.73346,-0.30521,-0.87023,-0.32084,-0.21588,1.60480,0.47185,-2.80627
0.01867,1.43490,-0.54418,-0.14929,0.38755,0.11715,0.90285,0.53495,0.30969,1.70689,-0.02330,0.59372,-0.30703,-0.86921,-0.32551,-0.21034,0.98506,-0.15875,-3.73047
0.01807,1.44006,-0.54235,-0.12473,0.38595,0.12296,0.84644,0.51368,0.24828,1.74330,-0.20702,0.40359,-0.30868,-0.86846,-0.32870,-0.20603,-3.30277,-0.82331,-4.28935
0.01755,1.44521,-0.54050,-0.10448,0.38343,0.12646,0.78005,0.50232,0.18905,1.62973,-0.20250,0.26302,-0.31056,-0.86783,-0.33112,-0.20197,-5.47883,-1.30220,-4.95911
0.01744,1.45020,-0.53860,-0.08251,0.37921,0.13034,0.71408,0.49771,0.14518,1.53323,-0.33815,0.30154,-0.31236,-0.86735,-0.33307,-0.19796,-5.07812,-0.36785,-3.46633
0.01770,1.45507,-0.53659,-0.05909,0.37410,0.13546,0.64864,0.49318,0.12637,1.42505,-0.21380,0.35354,-0.31368,-0.86713,-0.33474,-0.19401,-5.13694,-0.49871,-1.33131
0.01790,1.46004,-0.53429,-0.04158,0.37032,0.14312,0.63493,0.50097,0.15421,1.16878,-0.16362,0.64430,-0.31424,-0.86698,-0.33747,-0.18897,-2.20444,0.69206,1.23945
0.01817,1.46483,-0.53163,-0.02728,0.36556,0.15611,0.73761,0.54504,0.21015,0.94361,-0.42900,1.04285,-0.31489,-0.86619,-0.34285,-0.18168,5.35494,1.68067,3.95854
0.01868,1.46921,-0.52845,-0.01217,0.35507,0.17515,0.94789,0.60615,0.24353,1.20238,-1.02755,1.45087,-0.31671,-0.86407,-0.35115,-0.17254,13.06211,4.48102,2.95426
0.01965,1.47296,-0.52477,0.00749,0.33529,0.19782,1.16223,0.65547,0.21737,1.53851,-1.82938,1.76677,-0.32008,-0.86079,-0.36050,-0.16321,16.19084,4.73357,-0.85191
0.02113,1.47576,-0.52082,0.03099,0.30551,0.22101,1.35753,0.67882,0.14499,1.84035,-2.40149,1.68871,-0.32472,-0.85643,-0.37045,-0.15443,14.30282,2.74884,-4.71661
0.02314,1.47787,-0.51677,0.05815,0.27105,0.24014,1.47798,0.64648,0.04251,1.95054,-2.58326,1.17883,-0.32987,-0.85150,-0.37992,-0.14761,10.67125,-0.55803,-7.48224
0.02530,1.47958,-0.51300,0.08117,0.23702,0.24900,1.51783,0.62813,-0.03386,1.26583,-2.40095,0.20803,-0.33474,-0.84703,-0.38802,-0.14117,3.85870,-2.22944,-7.07978
0.02726,1.48083,-0.50982,0.09477,0.20423,0.24665,1.53567,0.70391,-0.04961,0.74258,-2.20721,-0.50274,-0.33940,-0.84334,-0.39512,-0.13215,2.01704,4.13365,-2.40362
0.02894,1.48214,-0.50701,0.10052,0.18039,0.23836,1.44968,0.77120,0.00841,0.33456,-1.84271,-0.59415,-0.34197,-0.84141,-0.39993,-0.12303,-2.89456,6.05732,2.96772
0.03036,1.48294,-0.50455,0.10062,0.15277,0.22561,1.10655,0.75285,0.19065,0.16298,-1.94155,-0.44768,-0.33923,-0.84376,-0.39922,-0.11669,-17.00497,0.38775,12.09597
0.03184,1.48376,-0.50195,0.10182,0.13179,0.21789,0.64296,0.58378,0.32165,0.28219,-1.93637,-0.20194,-0.33416,-0.84786,-0.39488,-0.11639,-32.39891,-9.96055,12.21981
0.03337,1.48405,-0.49927,0.10361,0.10713,0.21363,0.00335,0.25901,0.46692,0.18279,-1.88470,-0.01163,-0.32442,-0.85504,-0.38524,-0.12350,-43.44086,-22.37242,11.92459
0.03487,1.48390,-0.49653,0.10476,0.08001,0.21063,-0.71873,-0.17497,0.59096,-0.13132,-1.45506,-0.48472,-0.31131,-0.86384,-0.37150,-0.13728,-46.68220,-30.24330,9.14642
0.03625,1.48392,-0.49390,0.10358,0.06212,0.20621,-1.07706,-0.35321,0.65242,-0.40752,-1.19147,-0.74647,-0.30145,-0.87046,-0.36084,-0.14566,-36.56044,-21.46181,6.81986
0.03749,1.48373,-0.49127,0.10052,0.04527,0.20288,-1.18316,-0.37235,0.66272,-0.55766,-1.26866,-0.57527,-0.29446,-0.87532,-0.35305,-0.14990,-16.62287,-7.57388,3.45710
0.03864,1.48264,-0.48812,0.09527,0.01661,0.20189,-1.00652,-0.20535,0.55419,-0.34210,-1.62199,-0.22830,-0.29356,-0.87718,-0.34979,-0.14838,8.56821,7.77910,-5.16886
0.04018,1.48157,-0.48437,0.09684,-0.00623,0.20655,-0.71561,0.00540,0.36660,0.15450,-1.52303,0.54259,-0.29689,-0.87689,-0.34938,-0.14442,19.27711,16.15624,-13.07854
0.04173,1.48065,-0.48048,0.09890,-0.02072,0.21557,-0.50927,0.10346,0.21480,0.29811,-1.34020,1.12920,-0.29994,-0.87627,-0.34925,-0.14216,20.96094,12.83559,-15.53503
0.04362,1.47925,-0.47561,0.10633,-0.03957,0.24156,-0.14790,0.14146,-0.09484,0.44577,-0.72114,1.77896,-0.30852,-0.87157,-0.35396,-0.14105,19.44081,2.26514,-17.07495
0.04537,1.47831,-0.47060,0.11020,-0.04696,0.26597,0.10727,0.09488,-0.29385,0.26387,-0.28864,1.69064,-0.31497,-0.86718,-0.35877,-0.14171,20.04688,-2.82630,-15.93909
0.04698,1.47771,-0.46560,0.11076,-0.04648,0.28516,0.25171,0.00576,-0.42643,-0.07269,0.25372,1.30722,-0.32016,-0.86319,-0.36287,-0.14395,12.53879,-4.99312,-10.88950
0.04819,1.47751,-0.46064,0.10445,-0.03925,0.29935,0.30899,-0.10483,-0.48816,-0.67364,0.70304,0.78800,-0.32365,-0.85993,-0.36614,-0.14737,4.63344,-8.43607,-5.78710
0.04900,1.47763,-0.45596,0.09285,-0.02837,0.30479,0.31722,-0.17884,-0.47880,-0.89049,0.88410,-0.05917,-0.32563,-0.85758,-0.36870,-0.15029,1.59007,-6.87311,-0.56973
0.04971,1.47794,-0.45181,0.08270,-0.01705,0.30126,0.31482,-0.18123,-0.44585,-0.87640,1.03611,-0.60392,-0.32746,-0.85583,-0.37059,-0.15163,-1.57421,-2.47182,2.35539
0.05031,1.47865,-0.44801,0.07331,-0.00201,0.29179,0.30358,-0.20186,-0.41197,-0.53531,0.84000,-0.54442,-0.32884,-0.85416,-0.37249,-0.15337,0.75474,-0.33013,2.20100
0.05130,1.47952,-0.44454,0.07278,0.01263,0.27868,0.15991,-0.13553,-0.33680,0.29723,1.01747,-1.04453,-0.32929,-0.85480,-0.37042,-0.15385,-9.67825,3.24052,4.77978
0.05263,1.48029,-0.44118,0.07781,0.02205,0.26871,0.07983,-0.12028,-0.35442,0.41942,0.53320,-0.64190,-0.33137,-0.85426,-0.36903,-0.15570,-7.93433,4.10785,1.66334
0.05414,1.48113,-0.43793,0.08510,0.03005,0.26041,0.00493,-0.17598,-0.43796,0.39856,0.48603,-0.46462,-0.33442,-0.85286,-0.36758,-0.16025,-6.06350,-3.64097,-5.11913
0.05557,1.48185,-0.43449,0.08922,0.03453,0.25724,0.03403,-0.19300,-0.50186,0.27317,0.38558,-0.27803,-0.33815,-0.85058,-0.36812,-0.16328,0.06252,-2.38223,-5.53840
0.05691,1.48269,-0.43103,0.09084,0.03990,0.25534,0.14896,-0.20304,-0.57087,-0.09621,0.57476,-0.21605,-0.34287,-0.84702,-0.37092,-0.16556,5.64312,-1.60172,-5.31893
0.05782,1.48401,-0.42769,0.08545,0.05239,0.25222,0.43907,-0.10548,-0.59119,-0.40097,0.98006,-0.34445,-0.34878,-0.84207,-0.37779,-0.16292,16.06919,4.21838,-1.23494
0.05866,1.48551,-0.42437,0.07987,0.06513,0.24950,0.67239,0.00185,-0.55900,-0.46567,1.20504,-0.15140,-0.35389,-0.83756,-0.38479,-0.15872,19.91700,8.33816,1.54680
0.05927,1.48751,-0.42114,0.07167,0.08352,0.24573,0.78753,0.01019,-0.46038,-0.45680,1.25694,-0.07577,-0.35611,-0.83406,-0.39140,-0.15598,12.72138,3.24080,6.13702
0.05965,1.49001,-0.41821,0.06181,0.10616,0.23769,0.73255,-0.08699,-0.33478,-0.64897,1.40242,-0.67453,-0.35528,-0.83224,-0.39571,-0.15675,-2.67916,-5.73295,7.96852
0.06012,1.49237,-0.41548,0.05550,0.12076,0.22832,0.66480,-0.13371,-0.26330,-0.62354,1.43476,-1.16444,-0.35516,-0.83061,-0.39895,-0.15742,-5.63079,-6.42712,7.44324
0.06037,1.49551,-0.41384,0.04773,0.14469,0.20347,0.52377,-0.16671,-0.20572,-0.51472,1.52725,-1.90293,-0.35450,-0.83011,-0.39996,-0.15898,-8.81858,-3.30238,4.06018
0.06047,1.49912,-0.41295,0.03983,0.17170,0.17181,0.41751,-0.14008,-0.16166,-0.50962,1.93499,-2.09765,-0.35454,-0.82979,-0.40051,-0.15921,-7.15317,1.33270,2.37037
0.06064,1.50274,-0.41180,0.03440,0.19219,0.15213,0.39370,-0.12528,-0.12406,-0.52149,2.33134,-1.93141,-0.35468,-0.82882,-0.40250,-0.15890,-5.13174,2.52728,3.06277
0.06029,1.50780,-0.41146,0.02134,0.23162,0.12394,0.41378,-0.11077,-0.01125,-0.97562,2.78053,-1.75413,-0.35292,-0.82832,-0.40577,-0.15709,0.57765,0.78297,6.43945
0.05945,1.51365,-0.41147,0.00291,0.27643,0.09616,0.46946,-0.12639,0.13493,-1.14672,2.73084,-1.73390,-0.34965,-0.82777,-0.41059,-0.15474,4.35543,1.08158,9.94627
0.05889,1.51892,-0.41105,-0.00641,0.29981,0.08181,0.43328,-0.15792,0.21173,-1.12049,2.95220,-1.66304,-0.34655,-0.82771,-0.41354,-0.15420,1.69178,-3.70468,7.79448
0.05754,1.52652,-0.41210,-0.02540,0.35545,0.04760,0.32719,-0.19431,0.44215,-1.08331,3.11047,-2.19642,-0.33842,-0.83039,-0.41541,-0.15282,-7.56575,-4.10414,12.85363
0.05628,1.53385,-0.41314,-0.03891,0.39548,0.02078,0.32119,-0.17396,0.55688,-0.95376,2.79541,-1.68231,-0.33301,-0.83160,-0.41837,-0.15003,-0.77050,2.24911,9.08616
0.05480,1.54160,-0.41414,-0.05351,0.43322,0.00050,0.33996,-0.19395,0.64020,-1.11700,2.69721,-1.38594,-0.32736,-0.83227,-0.42223,-0.14793,0.73643,-0.97166,6.75839
0.05325,1.54978,-0.41554,-0.06778,0.47136,-0.01969,0.47176,-0.10437,0.71830,-1.15695,3.02820,-1.71543,-0.32311,-0.83205,-0.42794,-0.14200,5.47859,1.93416,5.45550
0.05154,1.55874,-0.41739,-0.08206,0.51525,-0.04181,0.64517,0.06007,0.81128,-0.73867,2.45998,-0.96097,-0.31960,-0.83152,-0.43465,-0.13235,13.73538,14.01737,7.13676
0.04976,1.56785,-0.41900,-0.09344,0.54991,-0.05739,0.61410,0.05096,0.84438,-0.78527,2.31979,-0.84907,-0.31463,-0.83205,-0.43848,-0.12817,-0.66903,0.80503,3.36539
0.04771,1.57720,-0.42083,-0.10625,0.58208,-0.06912,0.57318,0.02233,0.85385,-1.09415,2.35023,-0.77324,-0.30968,-0.83255,-0.44198,-0.12494,-3.66395,-3.07448,0.75781
0.04531,1.58702,-0.42264,-0.12180,0.61430,-0.07769,0.58869,0.04626,0.87784,-1.35801,2.54509,-0.50656,-0.30505,-0.83277,-0.44615,-0.11999,-1.54909,0.22276,0.98444
0.04236,1.59738,-0.42407,-0.14350,0.64741,-0.07976,0.73599,0.15375,0.94621,-1.66602,2.57149,0.10709,-0.30082,-0.83190,-0.45292,-0.11095,8.74882,7.17575,4.03373
0.03911,1.60810,-0.42512,-0.16648,0.68060,-0.07349,0.87052,0.21448,1.01973,-1.70304,2.34734,0.94284,-0.29585,-0.83070,-0.46048,-0.10183,10.62913,6.57695,5.73257
0.03536,1.61926,-0.42559,-0.19254,0.71298,-0.05888,0.96126,0.18430,1.09880,-1.91676,2.29518,1.39252,-0.28925,-0.82944,-0.46848,-0.09434,7.81493,0.37133,5.45767
0.03125,1.63069,-0.42563,-0.21725,0.74000,-0.04381,0.97298,0.11107,1.17093,-2.12142,2.17531,1.37731,-0.28142,-0.82876,-0.47554,-0.08846,3.92518,-5.01387,4.98794
0.02609,1.64286,-0.42518,-0.25376,0.77383,-0.02436,0.92520,-0.01338,1.27749,-2.55475,2.16331,1.17507,-0.27113,-0.82899,-0.48185,-0.08414,-3.38866,-9.74984,5.53540
0.02070,1.65487,-0.42462,-0.28526,0.79618,-0.00809,0.96183,-0.04101,1.38878,-2.78012,1.78370,1.37886,-0.26118,-0.82851,-0.48932,-0.07703,0.97712,-4.35980,8.17742
0.01435,1.66701,-0.42399,-0.32339,0.81676,0.01200,1.02783,-0.05097,1.49670,-2.75658,1.32423,1.47641,-0.25080,-0.82749,-0.49760,-0.06895,4.40849,-1.88513,8.18972
0.00743,1.67872,-0.42427,-0.35907,0.83082,0.03026,1.08261,-0.03547,1.58036,-2.40861,0.76327,1.61573,-0.24068,-0.82627,-0.50569,-0.06017,5.26170,1.66708,6.84413
0.00022,1.69031,-0.42428,-0.39152,0.83880,0.04839,1.07266,-0.05955,1.61441,-2.20867,0.47368,1.49980,-0.23064,-0.82536,-0.51261,-0.05318,-0.17803,-1.91798,2.82260
-0.00710,1.70205,-0.42312,-0.42001,0.84318,0.06878,1.08401,-0.04290,1.61640,-2.01379,0.21602,1.64910,-0.22171,-0.82392,-0.51955,-0.04552,-0.19512,0.23831,0.58404
-0.01491,1.71355,-0.42166,-0.44909,0.84295,0.09218,1.09572,-0.04114,1.61275,-2.11394,-0.13707,2.01214,-0.21277,-0.82219,-0.52656,-0.03814,1.27224,1.53895,-0.46519
-0.02341,1.72485,-0.41956,-0.48299,0.83906,0.12043,1.10676,-0.07085,1.61586,-2.71084,-0.30763,2.30948,-0.20315,-0.82028,-0.53375,-0.03150,-0.18801,-3.08828,-0.74265
-0.03335,1.73589,-0.41552,-0.53602,0.82972,0.16855,1.26610,0.00057,1.70245,-3.23481,-0.61219,3.05883,-0.19307,-0.81649,-0.54375,-0.02037,7.73521,3.90853,4.52168
-0.04315,1.74674,-0.41142,-0.57451,0.81901,0.20604,1.39200,0.01465,1.77909,-2.96735,-1.11475,3.38488,-0.18207,-0.81230,-0.55400,-0.00986,11.45152,5.53815,7.44601
-0.05358,1.75713,-0.40651,-0.61361,0.80312,0.24841,1.42907,-0.07012,1.81265,-2.45610,-1.43921,3.07164,-0.17004,-0.80853,-0.56335,-0.00236,5.72468,-4.14168,3.34495
-0.06429,1.76706,-0.40071,-0.64994,0.78172,0.29114,1.36623,-0.24002,1.79034,-2.07255,-1.44203,2.41989,-0.15738,-0.80573,-0.57099,0.00130,-2.48988,-11.60477,-1.59134
-0.07473,1.77692,-0.39523,-0.67317,0.76420,0.31785,1.31958,-0.29704,1.74757,-2.04249,-1.49470,1.97388,-0.14643,-0.80271,-0.57808,0.00625,-3.44860,-7.76660,-3.84941
-0.08568,1.78618,-0.38927,-0.69924,0.74089,0.34539,1.33939,-0.19610,1.73375,-1.99711,-1.70217,1.80809,-0.13734,-0.79878,-0.58554,0.01517,-0.97851,3.37946,-1.87469
-0.09702,1.79468,-0.38256,-0.72649,0.70951,0.37731,1.43674,0.01558,1.71607,-1.51836,-2.02935,2.11290,-0.13060,-0.79324,-0.59410,0.02762,4.23954,13.78280,0.68426
-0.10818,1.80312,-0.37564,-0.74421,0.68487,0.40551,1.54289,0.19491,1.71114,-1.51221,-2.05279,2.54863,-0.12396,-0.78687,-0.60316,0.04068,5.65882,14.36168,-0.64020
-0.11966,1.81086,-0.36772,-0.76291,0.65449,0.44350,1.68580,0.31899,1.71371,-0.98165,-2.25612,3.00095,-0.11697,-0.77904,-0.61360,0.05398,10.10744,13.55245,2.17773
-0.13139,1.81792,-0.35871,-0.78151,0.61952,0.49041,1.76128,0.26993,1.68602,-1.12941,-2.39298,3.00485,-0.10818,-0.77156,-0.62370,0.06317,5.07710,-0.63133,-2.04997
-0.14318,1.82455,-0.34957,-0.79699,0.58514,0.52924,1.79572,0.18734,1.66032,-0.99016,-2.55787,2.54671,-0.09863,-0.76434,-0.63324,0.07107,3.15848,-6.14403,-2.42843
-0.15493,1.83087,-0.34047,-0.80800,0.55402,0.55802,1.80345,0.15431,1.65050,-0.96233,-2.65860,2.15855,-0.08936,-0.75723,-0.64208,0.07970,1.99149,-3.27601,-2.30780
-0.16683,1.83636,-0.33092,-0.81885,0.51688,0.58591,1.81086,0.18389,1.66244,-0.69726,-2.58080,1.76702,-0.08056,-0.74983,-0.65053,0.08990,0.75773,0.32660,0.74548
-0.17863,1.84116,-0.32080,-0.82573,0.47652,0.61730,1.85095,0.33587,1.74558,-0.44925,-2.41998,2.19320,-0.07237,-0.74148,-0.65885,0.10435,0.71660,7.73477,4.50867
-0.19044,1.84548,-0.31011,-0.83108,0.43629,0.65307,1.98991,0.50846,1.88973,-0.28164,-3.12299,2.90853,-0.06321,-0.73067,-0.66879,0.12182,7.65032,13.29827,11.61226
-0.20221,1.84882,-0.29861,-0.83450,0.38885,0.69350,2.13024,0.52957,2.00525,0.08602,-3.83755,2.99926,-0.05179,-0.71898,-0.67941,0.13706,10.43713,4.79896,9.66906
-0.21371,1.85093,-0.28664,-0.83263,0.33160,0.73238,2.25239,0.43153,2.05840,0.50986,-4.48521,2.68207,-0.03888,-0.70686,-0.69036,0.14913,9.50761,-4.45390,3.89785
-0.22464,1.85188,-0.27456,-0.82087,0.26812,0.76451,2.32652,0.23032,2.00775,1.47306,-4.80353,2.00422,-0.02548,-0.69507,-0.70119,0.15671,7.96838,-11.08971,-2.76130
-0.23461,1.85187,-0.26266,-0.79532,0.20345,0.78607,2.34662,0.03699,1.87370,2.13366,-4.67682,1.11896,-0.01331,-0.68386,-0.71142,0.16136,3.90901,-14.30750,-11.33155
-0.24401,1.85147,-0.25104,-0.76687,0.14838,0.79745,2.36924,-0.04344,1.77224,2.44387,-4.56209,0.64085,-0.00239,-0.67200,-0.72140,0.16730,2.61532,-6.75714,-10.54821
-0.25230,1.84939,-0.23958,-0.72632,0.07815,0.80326,2.39433,-0.10566,1.68237,2.44236,-4.25556,0.09161,0.00837,-0.65974,-0.73130,0.17285,2.09599,-3.84777,-7.06760
-0.26054,1.84705,-0.22842,-0.69414,0.01907,0.80284,2.42117,-0.10445,1.68098,2.01151,-4.09856,-0.21587,0.01956,-0.64688,-0.74062,0.18071,1.48132,-0.35851,-1.71378
-0.26863,1.84413,-0.21753,-0.66716,-0.03580,0.79777,2.44522,-0.06743,1.76866,1.70757,-3.74729,-0.55022,0.03177,-0.63343,-0.74918,0.19103,1.63142,1.83105,4.83869
-0.27662,1.84054,-0.20684,-0.64486,-0.08889,0.79067,2.49162,-0.04778,1.90397,1.66554,-3.86572,-0.40067,0.04558,-0.61901,-0.75743,0.20259,1.75286,1.88156,10.82067
-0.28434,1.83626,-0.19649,-0.62317,-0.14123,0.77909,2.52237,-0.22903,1.89262,2.06148,-3.81009,-1.05901,0.06133,-0.60536,-0.76583,0.20804,4.60877,-8.16813,2.64687
-0.29157,1.83156,-0.18686,-0.59826,-0.18808,0.75814,2.48821,-0.55460,1.70483,1.92101,-3.24152,-1.87444,0.07747,-0.59398,-0.77379,0.20598,1.48549,-20.61703,-14.97743
-0.29838,1.82660,-0.17793,-0.57229,-0.22812,0.73009,2.41784,-0.84035,1.49809,1.68132,-2.64000,-2.19530,0.09311,-0.58378,-0.78092,0.20173,-1.80042,-20.79105,-19.52774
-0.30494,1.82130,-0.16943,-0.54821,-0.26458,0.70161,2.38436,-0.97669,1.40669,1.40350,-2.46915,-2.01975,0.10831,-0.57245,-0.78768,0.20033,-2.36787,-11.04781,-10.77881
-0.31134,1.81534,-0.16128,-0.52684,-0.30429,0.67347,2.41513,-1.01550,1.44196,0.98190,-2.32599,-1.58984,0.12416,-0.55901,-0.79449,0.20222,1.63802,-3.13113,-0.08874
-0.31794,1.80926,-0.15320,-0.51399,-0.33673,0.65057,2.47005,-1.01263,1.57651,0.80967,-2.16676,-1.73007,0.14124,-0.54402,-0.80081,0.20689,4.14787,-0.93903,8.69757
-0.32441,1.80293,-0.14556,-0.50161,-0.36580,0.62531,2.51073,-1.03238,1.71554,1.06947,-2.13803,-1.98910,0.15932,-0.52869,-0.80633,0.21196,2.25035,-1.87297,10.86381
-0.33046,1.79628,-0.13867,-0.48506,-0.39325,0.59318,2.53315,-1.07908,1.72313,1.50012,-1.92574,-2.67734,0.17641,-0.51377,-0.81178,0.21432,2.58053,-3.96740,3.39868
-0.33624,1.78959,-0.13226,-0.46812,-0.41437,0.56090,2.54039,-1.09275,1.71580,1.33564,-1.71338,-2.75021,0.19265,-0.49875,-0.81683,0.21662,0.15665,-1.34225,-1.74401
-0.34183,1.78239,-0.12669,-0.45243,-0.43868,0.52265,2.60021,-1.12028,1.70308,0.84725,-1.66974,-2.63016,0.20935,-0.48232,-0.82217,0.21811,2.86783,-0.92887,-1.25605
-0.34776,1.77471,-0.12191,-0.44653,-0.46625,0.47955,2.72699,-1.17231,1.79365,-0.36402,-1.86313,-2.77979,0.22852,-0.46330,-0.82727,0.22081,8.03722,-2.31596,3.42492
-0.35452,1.76631,-0.11775,-0.45635,-0.50003,0.43491,2.89137,-1.31034,2.01885,-1.19543,-2.82951,-3.59609,0.25238,-0.44193,-0.83086,0.22513,10.15144,-8.57093,13.55809
-0.36182,1.75728,-0.11471,-0.47285,-0.53577,0.38256,3.03895,-1.55969,2.20163,-1.30615,-3.08616,-5.05345,0.27979,-0.42012,-0.83277,0.22739,13.70496,-16.98436,16.64412
-0.36963,1.74760,-0.11407,-0.49370,-0.57340,0.30252,3.15577,-1.97457,2.26968,-1.38488,-2.51040,-6.38549,0.31144,-0.39937,-0.83254,0.22448,13.70697,-27.53957,4.02815
-0.37762,1.73751,-0.11636,-0.51259,-0.60944,0.18962,3.28192,-2.50400,2.37334,-0.57013,-1.79239,-7.80128,0.34843,-0.37794,-0.82920,0.21953,11.77537,-32.22216,4.88663
-0.38500,1.72821,-0.11843,-0.51661,-0.62307,0.10976,3.33553,-2.82543,2.40266,-0.12338,-0.95994,-8.54709,0.38220,-0.35701,-0.82492,0.21442,12.25176,-32.10105,-5.17350
-0.39144,1.71895,-0.12530,-0.50357,-0.63264,-0.03064,3.37061,-3.26221,2.47100,1.75620,-0.37490,-9.37930,0.42064,-0.33632,-0.81658,0.20773,5.38451,-28.52861,0.70562
-0.39660,1.71011,-0.13378,-0.47183,-0.63293,-0.16714,3.43480,-3.58934,2.45457,2.94465,0.33782,-10.37559,0.45735,-0.31465,-0.80761,0.19896,9.19104,-22.50193,-4.40744
-0.40012,1.70190,-0.14482,-0.41996,-0.62262,-0.31456,3.44969,-3.85880,2.47257,4.39208,1.14021,-11.06192,0.49379,-0.29306,-0.79617,0.19081,5.33587,-19.82285,-3.15823
-0.40119,1.69488,-0.15959,-0.33744,-0.59376,-0.49345,3.41763,-4.14583,2.40884,6.19818,2.61517,-11.44961,0.53009,-0.27326,-0.78216,0.18044,0.94658,-17.52420,-4.59311
-0.40067,1.68931,-0.17543,-0.24598,-0.54625,-0.64986,3.36464,-4.35810,2.22609,7.11314,4.11014,-11.10497,0.56382,-0.25533,-0.76743,0.16720,3.16636,-12.98461,-15.92929
-0.39795,1.68537,-0.19304,-0.13844,-0.48200,-0.79908,3.27216,-4.54213,2.12349,8.41219,5.27885,-10.54905,0.59713,-0.23789,-0.75019,0.15511,-1.64324,-11.83109,-12.46905
-0.39264,1.68359,-0.21214,-0.01195,-0.39554,-0.93763,3.15789,-4.68787,1.99406,9.79287,7.27804,-9.38474,0.62899,-0.22180,-0.73137,0.14238,-2.89190,-10.64868,-10.84252
-0.38574,1.68361,-0.23122,0.10934,-0.30070,-1.04071,2.93801,-4.77850,1.90684,10.48130,8.74103,-8.42103,0.65889,-0.20829,-0.71067,0.13198,-7.92393,-6.65957,-15.22409
-0.37373,1.68809,-0.25255,0.28908,-0.15203,-1.15716,2.50873,-4.88527,1.78596,12.09154,10.11816,-6.52884,0.68732,-0.20144,-0.68667,0.12449,-22.95128,-9.08456,-14.80326
-0.35997,1.69443,-0.27315,0.45846,-0.00469,-1.23482,2.07269,-4.93300,1.57651,12.43520,11.07650,-4.84501,0.71298,-0.19826,-0.66235,0.11681,-24.13648,-4.23930,-21.58043
-0.34364,1.70338,-0.29365,0.63095,0.15194,-1.29149,1.62275,-4.99191,1.27212,12.63254,11.47877,-3.46824,0.73688,-0.20000,-0.63661,0.10833,-24.72751,-3.75343,-28.75575
-0.32479,1.71477,-0.31390,0.80582,0.31295,-1.33096,1.21653,-5.04009,0.86987,12.78114,11.73255,-2.23514,0.75861,-0.20605,-0.61030,0.09791,-20.63732,-2.71186,-34.63792
-0.30323,1.72843,-0.33392,0.98515,0.47404,-1.35640,0.84867,-5.10062,0.42318,13.21098,11.41399,-1.48778,0.77876,-0.21585,-0.58273,0.08588,-14.52880,-2.71682,-39.17558
-0.27988,1.74277,-0.35351,1.14928,0.60562,-1.36838,0.50027,-5.15544,0.09625,14.30340,10.68644,-0.70821,0.79782,-0.22674,-0.55348,0.07570,-16.45317,-4.15254,-37.22378
-0.25133,1.75972,-0.37272,1.35954,0.74787,-1.37080,0.13780,-5.16168,-0.20235,15.80159,9.91655,0.45836,0.81457,-0.24032,-0.52364,0.06720,-20.02541,-1.60897,-30.28237
-0.21749,1.77958,-0.39088,1.61314,0.90857,-1.35450,-0.09228,-5.05084,-0.66685,16.24166,10.59909,1.95281,0.82710,-0.25730,-0.49671,0.05458,-5.85959,6.18739,-29.63912
-0.18250,1.80108,-0.40757,1.82924,1.06183,-1.31673,-0.37645,-4.95109,-1.27304,15.39929,11.76580,3.07358,0.83619,-0.28103,-0.46923,0.04050,-3.23076,8.57790,-41.54379
-0.14639,1.82416,-0.42335,2.00982,1.20240,-1.27336,-0.72180,-4.94609,-1.98158,15.62432,12.03190,3.73863,0.84230,-0.31256,-0.43841,0.02514,-8.30135,2.87528,-59.57538
-0.10148,1.85305,-0.43632,2.30148,1.41104,-1.19016,-1.17189,-4.99390,-3.19669,17.45347,11.36169,5.72745,0.84041,-0.36133,-0.40389,0.00402,-7.59617,-5.03876,-70.90908
-0.05719,1.88015,-0.44850,2.51715,1.54206,-1.11347,-1.32774,-5.01401,-4.09841,19.07898,10.61716,7.69728,0.83587,-0.40528,-0.36968,-0.02004,5.60504,-6.61008,-75.07717
-0.00619,1.90992,-0.45687,2.79199,1.68458,-0.98993,-1.11932,-4.89710,-5.23215,20.92781,9.69234,10.73202,0.82167,-0.45411,-0.33984,-0.05616,28.95187,-6.58715,-73.41505
0.05271,1.94113,-0.45936,3.14309,1.81923,-0.79082,-0.89356,-4.69567,-6.59409,23.69117,7.13959,14.92992,0.79551,-0.51083,-0.31090,-0.09778,39.90319,-6.08055,-75.87483
0.11306,1.97035,-0.45891,3.43321,1.88664,-0.59000,-0.73206,-4.41785,-7.66691,25.37257,4.02393,18.48631,0.76218,-0.56616,-0.28268,-0.13653,43.50993,3.51769,-80.90877
0.18486,1.99790,-0.44754,3.85299,1.90690,-0.24621,-0.55973,-3.64673,-9.06792,27.56257,-1.93498,24.68504,0.70862,-0.63092,-0.26369,-0.17394,43.85212,18.70231,-84.93854
0.25749,2.02117,-0.43312,4.18358,1.84847,0.06535,-0.21551,-2.80657,-10.01012,27.65297,-8.00967,27.84184,0.64848,-0.68758,-0.25161,-0.20834,71.01762,41.32426,-74.54738
0.33529,2.03905,-0.41173,4.51260,1.71502,0.41064,0.35629,-1.94735,-10.83226,27.48582,-14.61528,30.58941,0.57697,-0.73933,-0.24654,-0.24435,81.30807,24.36630,-64.62373
0.41989,2.04510,-0.37467,4.94008,1.40619,0.90962,1.50283,-0.82623,-11.74586,26.61012,-24.70269,31.81713,0.48564,-0.78456,-0.25897,-0.28558,107.00830,14.48915,-48.48348
0.50290,2.04264,-0.33324,5.29171,0.99544,1.35514,2.70909,-0.25846,-12.44190,25.19016,-34.97473,31.91699,0.38907,-0.81656,-0.26750,-0.33213,95.67026,-15.98151,-48.25537
0.59071,2.02740,-0.28624,5.61636,0.44006,1.79064,4.06116,-0.12630,-13.09605,22.39945,-45.49927,30.26381,0.28296,-0.83376,-0.27457,-0.38651,84.43549,-47.70956,-48.51880
0.68438,1.99187,-0.23822,5.87590,-0.27471,2.18283,5.05248,-0.62458,-13.97246,14.06471,-59.10450,26.60142,0.16767,-0.83781,-0.26415,-0.44742,38.00684,-67.84962,-68.55577
0.77140,1.93446,-0.18622,5.95798,-1.19159,2.54944,5.93096,-0.42062,-14.46249,-2.49841,-71.68176,24.84465,0.04709,-0.83140,-0.26229,-0.48761,43.37291,-24.12626,-54.89949
0.84512,1.85593,-0.13229,5.79337,-2.24748,2.86049,7.17856,0.16081,-14.38182,-22.18153,-78.27888,16.78069,-0.07341,-0.80896,-0.27890,-0.51225,76.09446,-43.98930,-17.23515
0.90090,1.75981,-0.08194,5.36161,-3.34833,3.03350,8.29958,1.16622,-13.77707,-39.06765,-77.25524,7.08044,-0.18716,-0.78011,-0.30683,-0.51211,108.10760,-38.20944,46.07602
0.93424,1.64484,-0.03818,4.63829,-4.52179,3.05238,9.28911,1.27403,-12.89417,-50.80499,-69.55060,-3.48745,-0.28550,-0.73482,-0.33487,-0.51613,50.20480,-60.87537,41.64139
0.95709,1.53071,-0.00159,3.90390,-5.41674,2.94648,10.29902,1.40612,-12.51246,-55.23759,-61.38923,-13.27592,-0.39036,-0.67694,-0.35769,-0.51131,29.80922,-66.48364,9.55947
0.97109,1.41585,0.02980,3.20350,-6.09174,2.77712,12.01730,2.34721,-12.40569,-63.08941,-51.48340,-18.78912,-0.51320,-0.60314,-0.38763,-0.47179,116.91560,-32.44268,-11.13740
0.95821,1.29472,0.05343,2.22497,-6.69819,2.52055,14.96529,2.71230,-11.14662,-75.70920,-33.69538,-17.70597,-0.61794,-0.49614,-0.45773,-0.40310,198.20770,-126.00430,-2.56772
0.91517,1.18089,0.06900,0.94916,-7.03995,2.18484,15.91549,-0.05737,-9.49120,-81.22353,-8.81828,-18.80314,-0.65377,-0.37183,-0.52969,-0.39213,-14.32985,-199.21350,-84.16074
0.87353,1.08356,0.08461,0.00777,-7.02471,1.93435,14.85265,-2.56942,-8.41953,-75.70338,9.10420,-19.41296,-0.66128,-0.26798,-0.57225,-0.40426,-149.96100,-146.35250,-112.07350
0.81588,0.99963,0.09393,-0.96420,-6.78616,1.63966,12.01161,-4.79422,-8.10873,-65.16687,22.76067,-21.29637,-0.64494,-0.18626,-0.58577,-0.45413,-229.60140,-45.96344,-111.82920
0.75562,0.92887,0.09858,-1.75089,-6.38677,1.33589,8.59388,-5.51546,-8.53613,-50.31277,33.27391,-22.51860,-0.63217,-0.12802,-0.56336,-0.51633,-222.08200,84.12006,-111.57450
0.69623,0.86930,0.09957,-2.33705,-5.89099,1.04570,5.77593,-4.70191,-8.82321,-35.54382,38.68765,-20.45635,-0.63323,-0.09285,-0.52125,-0.56453,-148.85960,165.62070,-48.74994
0.63857,0.81883,0.09884,-2.75798,-5.36101,0.79466,3.82289,-3.43811,-8.77063,-25.26873,38.48106,-16.66823,-0.64031,-0.06808,-0.47612,-0.59890,-84.04040,155.96640,4.15316
0.58178,0.77454,0.09799,-3.06377,-4.84667,0.59761,2.56908,-2.35387,-8.65140,-18.37313,36.95574,-12.26555,-0.64799,-0.04183,-0.43127,-0.62638,-42.66934,129.84350,12.04167
0.52547,0.73703,0.09701,-3.29585,-4.34626,0.44528,1.77667,-1.82585,-8.51781,-13.35700,35.47706,-10.14732,-0.64941,-0.00850,-0.39305,-0.65093,-32.45228,67.94484,12.85861
0.47212,0.70136,0.09617,-3.42477,-3.94158,0.33182,1.39744,-1.50744,-8.38852,-7.89495,33.37951,-9.53946,-0.65025,0.02914,-0.35728,-0.66983,-23.16327,46.86329,7.67941
0.41963,0.67674,0.09257,-3.50611,-3.44483,0.19800,1.35758,-1.42880,-7.67938,-1.61138,29.90650,-7.81595,-0.65133,0.06160,-0.33705,-0.67703,-1.17577,11.95961,39.29336
0.37067,0.65235,0.08945,-3.51097,-3.05092,0.10063,1.36428,-1.67867,-6.81249,1.67442,27.02382,-6.22492,-0.64829,0.09440,-0.32910,-0.68008,-11.36064,-17.65962,57.06627
0.32426,0.63159,0.08607,-3.47217,-2.68734,0.02129,1.27856,-1.89476,-5.92838,3.30084,25.45001,-4.85771,-0.64328,0.12236,-0.32602,-0.68186,-18.62502,-22.24511,64.06802
0.28044,0.61726,0.08253,-3.39583,-2.29523,-0.04332,1.01381,-1.46450,-5.47900,4.78363,23.95394,-3.13192,-0.64090,0.14115,-0.30725,-0.68915,-14.49260,18.79661,35.52016
0.23860,0.60405,0.07970,-3.30276,-1.97129,-0.08206,0.85888,-0.73200,-5.31819,7.80697,22.83287,-2.47437,-0.64273,0.15609,-0.27625,-0.69730,5.30675,55.78959,11.44731
0.19915,0.59413,0.07693,-3.19075,-1.66895,-0.11016,0.78804,-0.20930,-5.04558,8.76950,20.63120,-1.50378,-0.64458,0.16906,-0.24861,-0.70294,5.76983,41.07492,20.78554
0.16086,0.58493,0.07495,-3.08655,-1.43073,-0.11773,0.67162,-0.06837,-4.67683,9.91656,19.46276,-0.07192,-0.64287,0.18320,-0.22904,-0.70760,2.63012,24.43741,24.40835
0.12700,0.58329,0.07370,-2.93295,-1.12109,-0.11134,0.32627,-0.21519,-4.07621,10.02327,18.98946,0.89867,-0.63500,0.19416,-0.22216,-0.71395,-23.56445,-6.03664,39.52060
0.09493,0.58215,0.07314,-2.78212,-0.87224,-0.09445,0.06229,-0.07510,-3.71077,10.93127,17.13126,1.60890,-0.62840,0.20212,-0.20863,-0.72162,-21.87437,5.73558,28.80969
0.06472,0.58134,0.07301,-2.63801,-0.68073,-0.07479,0.04340,0.47854,-3.58251,11.84172,15.81842,1.72062,-0.62780,0.20476,-0.18272,-0.72839,-1.46732,32.59463,19.11563
0.03884,0.58387,0.07343,-2.45789,-0.48125,-0.05093,0.23662,1.34823,-3.57960,13.39377,13.43574,1.65392,-0.63347,0.20069,-0.14459,-0.73317,25.20733,59.40514,-1.06384
0.01717,0.58886,0.07449,-2.24631,-0.28416,-0.02148,0.46700,2.04094,-3.48957,13.95494,11.50661,1.85655,-0.64033,0.19466,-0.10725,-0.73524,27.43463,44.00866,2.62478
-0.00306,0.59401,0.07581,-2.05670,-0.12828,0.00650,0.45729,2.24734,-3.30096,14.27733,10.40115,2.07033,-0.64141,0.19212,-0.07963,-0.73847,9.52519,19.57725,11.07456
-0.02163,0.59934,0.07734,-1.88693,-0.00857,0.03080,0.34353,2.33278,-3.13688,14.63900,9.21270,2.20995,-0.63944,0.19004,-0.05455,-0.74298,-3.14381,7.18348,15.68151
-0.03379,0.60680,0.07957,-1.64894,0.11791,0.06099,0.11771,2.43473,-2.88834,15.45305,6.51792,1.51392,-0.63487,0.18421,-0.03221,-0.74965,-12.22777,8.53509,17.08119
-0.04392,0.61301,0.08125,-1.42786,0.19499,0.07601,-0.04873,2.41700,-2.43880,16.91168,4.31415,0.34239,-0.63142,0.17602,-0.01693,-0.75501,-10.33357,2.02654,22.69289
-0.05225,0.61839,0.08235,-1.23303,0.23870,0.07739,-0.06675,2.35145,-1.83951,15.99272,2.92796,-0.12590,-0.63179,0.16418,-0.00816,-0.75751,5.34186,-2.36442,51.54762
-0.05414,0.62332,0.08304,-0.97077,0.27543,0.07422,-0.12137,2.12088,-1.03395,13.66313,1.71091,-0.15528,-0.63279,0.14980,-0.01045,-0.75962,2.79164,-12.06405,45.72323
-0.05818,0.62618,0.08347,-0.79610,0.29466,0.07399,-0.19928,1.90444,-0.55071,12.13575,2.10490,0.36374,-0.63193,0.13884,-0.01067,-0.76242,-2.12213,-16.54393,39.28853
-0.06146,0.62984,0.08403,-0.65417,0.31652,0.07385,-0.19328,1.94061,-0.41780,11.37387,2.96013,0.27114,-0.63124,0.12779,-0.00217,-0.76499,-0.41467,-6.18412,23.63120
-0.06043,0.63536,0.08495,-0.47586,0.34862,0.07516,-0.10887,2.23730,-0.64218,10.97540,1.50698,0.17110,-0.63064,0.11685,0.01900,-0.76699,5.86639,19.08340,-15.44981
-0.05855,0.64110,0.08610,-0.32618,0.36411,0.07682,-0.16350,2.32328,-0.65848,11.25142,0.31338,-0.30106,-0.62789,0.10611,0.03406,-0.77028,-1.63538,11.47013,-7.19652
-0.05661,0.64647,0.08694,-0.21608,0.36918,0.07259,-0.26634,2.25374,-0.46868,11.47304,-0.04649,-0.82048,-0.62447,0.09458,0.04174,-0.77418,-6.05591,-0.61277,10.01723
-0.04930,0.65134,0.08718,-0.04405,0.36424,0.05972,-0.50914,1.99180,0.02936,10.44422,-1.10010,-0.99485,-0.61867,0.08116,0.03675,-0.78059,-11.09475,-13.76748,32.06322
-0.04097,0.65511,0.08711,0.10998,0.34129,0.04430,-0.71154,1.58405,0.61445,9.32954,-1.71296,-0.83195,-0.61309,0.06877,0.02371,-0.78666,-9.25021,-23.46250,41.60893
-0.03210,0.65853,0.08681,0.23880,0.31794,0.02815,-0.81287,1.34473,1.04559,8.79734,-1.39712,-1.26469,-0.60824,0.05517,0.01245,-0.79174,-3.86284,-20.80331,36.01684
-0.02270,0.66167,0.08623,0.34332,0.29555,0.01166,-0.83364,1.24832,1.23897,8.44676,-2.08097,-1.18151,-0.60401,0.04210,0.00588,-0.79584,-0.60940,-8.28048,18.88557
-0.01121,0.66395,0.08524,0.45672,0.26437,-0.00787,-0.86450,1.09695,1.49750,8.21521,-2.34895,-1.63677,-0.59948,0.02879,-0.00471,-0.79986,-0.07592,-8.10357,16.35394
0.00097,0.66607,0.08366,0.55356,0.23838,-0.03252,-0.81975,1.03050,1.69001,7.83467,-1.82841,-2.32096,-0.59628,0.01441,-0.01443,-0.80252,2.73546,-9.75844,21.24025
0.01429,0.66282,0.08007,0.67233,0.19405,-0.07647,-0.62723,1.11488,1.69931,7.69172,-2.45543,-3.00954,-0.59647,-0.00076,-0.01831,-0.80243,10.54103,6.60733,-0.32665
0.02752,0.65738,0.07574,0.76966,0.14870,-0.12248,-0.39676,1.14515,1.79944,7.78287,-2.43338,-3.67930,-0.59849,-0.01678,-0.02488,-0.80057,14.83796,5.74585,2.42033
0.04371,0.65272,0.07014,0.88547,0.10856,-0.18352,-0.09398,1.23528,1.93412,7.60039,-1.45671,-3.74239,-0.60318,-0.03523,-0.03176,-0.79619,18.60518,5.15491,9.21302
0.06220,0.65312,0.06453,0.99292,0.08927,-0.23676,0.16529,1.44284,1.96385,7.70902,-1.22453,-3.74435,-0.60823,-0.05533,-0.03425,-0.79109,17.26158,15.95107,0.10921
0.08208,0.65372,0.05823,1.09831,0.07835,-0.28897,0.40380,1.65175,2.07803,7.53288,-0.42230,-3.74935,-0.61389,-0.07813,-0.03797,-0.78460,16.36833,17.17740,5.30536
0.10397,0.65522,0.05073,1.21438,0.08631,-0.35122,0.61359,1.94176,2.21695,7.03970,1.39658,-4.01269,-0.61969,-0.10457,-0.04080,-0.77678,12.82829,17.77629,8.69119
0.12567,0.65759,0.04334,1.29578,0.10797,-0.39878,0.70411,2.18062,2.30517,6.50292,2.12319,-3.91464,-0.62357,-0.13116,-0.04274,-0.76950,7.53669,22.30710,6.12179
0.14871,0.66123,0.03497,1.37853,0.14603,-0.45098,0.75913,2.35375,2.51763,5.52468,3.21379,-3.91055,-0.62627,-0.16015,-0.04799,-0.76147,4.03869,14.81028,13.49561
0.17216,0.66634,0.02590,1.44733,0.20038,-0.50254,0.76611,2.47265,2.76305,4.30986,4.61335,-3.59216,-0.62728,-0.19023,-0.05531,-0.75317,3.00177,8.19816,18.49562
0.19595,0.67330,0.01638,1.50032,0.27406,-0.55096,0.70333,2.58295,2.96891,2.83533,5.97165,-3.28139,-0.62605,-0.22099,-0.06244,-0.74520,-1.18236,6.18530,17.11506
0.21928,0.68196,0.00651,1.53254,0.35851,-0.59286,0.57292,2.71811,3.05161,1.31531,6.35359,-2.81370,-0.62272,-0.25150,-0.06656,-0.73793,-8.51461,7.45298,10.21735
0.24220,0.69219,-0.00382,1.54634,0.44687,-0.63071,0.43348,2.88867,3.03386,0.05878,6.57705,-2.59763,-0.61842,-0.28186,-0.06730,-0.73047,-11.70369,9.02868,2.40751
0.26496,0.70343,-0.01428,1.54607,0.52664,-0.66048,0.29295,3.05668,2.96640,-1.10788,6.88920,-2.38580,-0.61317,-0.31190,-0.06575,-0.72279,-12.95539,10.50145,-0.81637
0.28684,0.71686,-0.02550,1.52932,0.62041,-0.69424,0.07208,3.32709,2.76730,-2.28529,6.63201,-2.25648,-0.60601,-0.34230,-0.05730,-0.71575,-19.99286,15.31549,-8.59154
0.30654,0.73191,-0.03709,1.48893,0.72232,-0.72757,-0.19667,3.56951,2.55846,-3.11698,6.21679,-2.04845,-0.59676,-0.37219,-0.04608,-0.70939,-22.20889,13.89813,-10.61957
0.32582,0.74702,-0.04849,1.44918,0.79788,-0.75018,-0.40137,3.69724,2.47712,-3.99824,6.15726,-1.80547,-0.58632,-0.40185,-0.03754,-0.70238,-19.18251,8.55982,-4.10952
0.34350,0.76395,-0.06032,1.39181,0.88261,-0.77324,-0.66419,3.80578,2.40993,-4.72781,5.75577,-1.55277,-0.57296,-0.43134,-0.02745,-0.69635,-21.19070,5.68375,-1.29588
0.35889,0.78221,-0.07220,1.31230,0.97116,-0.79356,-0.94139,3.84201,2.42728,-5.54633,5.11982,-1.19968,-0.55670,-0.46061,-0.01883,-0.69106,-17.35507,0.16158,4.75561
0.37341,0.80063,-0.08403,1.23353,1.03862,-0.80922,-1.17579,3.85524,2.43491,-6.34541,4.37814,-1.17022,-0.53951,-0.48893,-0.00999,-0.68540,-16.17906,-1.26879,4.91535
0.38607,0.81931,-0.09621,1.14434,1.09474,-0.82516,-1.37712,3.86068,2.42828,-6.98005,3.45050,-1.20555,-0.52136,-0.51638,-0.00054,-0.67936,-15.46767,-1.60376,3.52392
0.39602,0.83814,-0.10840,1.03108,1.14243,-0.83988,-1.53998,3.82202,2.42505,-7.58101,2.42501,-0.84165,-0.50254,-0.54244,0.00840,-0.67316,-9.80411,-3.19917,2.29773
