posX, posY, posZ, velX, velY, velZ, angVelX, angVelY, angVelZ, accX, accY, accZ, rotX, rotY, rotZ, rotW, angAccX, angAccY, angAccZ
0.00926,1.26540,-0.55004,-0.63242,0.39964,-0.25530,-0.29250,-0.22349,1.02292,-0.23332,0.77908,-1.59707,-0.26072,-0.89836,-0.13836,-0.32531,-4.44721,-13.55339,6.72560
0.00054,1.27177,-0.55376,-0.63129,0.41379,-0.25789,0.66721,0.33754,0.89152,-0.08540,1.03735,-0.47203,-0.26804,-0.90029,-0.15833,-0.30423,61.02420,39.86886,-7.76447
-0.00825,1.27813,-0.55734,-0.63162,0.42442,-0.25698,1.45791,0.77767,0.79636,0.30057,0.40583,1.26492,-0.27584,-0.90118,-0.18009,-0.28171,65.98495,42.12867,-8.47482
-0.01682,1.28402,-0.56057,-0.62820,0.42451,-0.25060,1.55577,0.84659,0.78256,0.54645,-0.51534,1.80230,-0.27631,-0.90225,-0.19134,-0.27016,26.48726,17.82283,-2.99771
-0.02481,1.28900,-0.56361,-0.61537,0.40913,-0.24291,1.00919,0.57170,0.81407,1.17244,-1.45348,0.50219,-0.26869,-0.90427,-0.18928,-0.27252,-27.41721,-16.54008,2.93413
-0.03243,1.29364,-0.56733,-0.59921,0.39169,-0.24856,0.59257,0.46082,0.72891,0.65609,-1.03792,-1.89677,-0.26422,-0.90627,-0.18512,-0.27310,-41.20142,-18.78246,-2.16743
-0.04018,1.29846,-0.57171,-0.58926,0.38179,-0.26357,0.69978,0.72073,0.54162,0.56653,-0.54575,-2.22160,-0.26853,-0.90779,-0.18844,-0.26135,-4.35975,11.96124,-12.30019
-0.04768,1.30345,-0.57659,-0.57771,0.37714,-0.28318,0.96972,1.16310,0.29186,0.81539,0.08930,-0.28373,-0.27865,-0.90904,-0.19398,-0.24158,17.20691,33.81215,-16.34301
-0.05536,1.30885,-0.58056,-0.57183,0.38050,-0.28273,1.08801,1.24474,0.19739,0.62390,0.60024,0.92141,-0.28397,-0.90931,-0.20007,-0.22911,11.24499,15.24712,-10.81286
-0.06303,1.31463,-0.58385,-0.56733,0.38913,-0.27163,1.06357,1.12590,0.19771,0.57959,0.86353,1.62840,-0.28540,-0.90941,-0.20521,-0.22227,4.32530,-3.13295,-3.57765
-0.07063,1.32122,-0.58638,-0.56261,0.40884,-0.25126,0.92204,0.83045,0.27990,-0.00852,1.36994,0.55306,-0.28236,-0.90954,-0.20924,-0.22187,-9.80951,-19.45369,4.47747
-0.07849,1.32781,-0.58951,-0.56300,0.42367,-0.24543,0.90603,0.76759,0.31242,-0.20861,1.03289,0.12214,-0.28182,-0.90993,-0.21427,-0.21609,-0.20721,-9.34656,3.83717
-0.08623,1.33492,-0.59293,-0.56114,0.44424,-0.24589,0.77884,0.75397,0.29114,0.19249,1.32105,-0.00138,-0.28197,-0.91089,-0.21554,-0.21050,-7.34886,-0.00066,-1.16869
-0.09402,1.34221,-0.59636,-0.56084,0.46399,-0.24584,0.73844,0.75751,0.30342,-0.15301,1.59920,-0.16700,-0.28177,-0.91176,-0.21838,-0.20397,-5.46769,-1.73931,1.25383
-0.10197,1.34980,-0.59969,-0.56339,0.48373,-0.24403,0.87389,0.85007,0.28801,-0.50723,1.84103,-0.20087,-0.28380,-0.91183,-0.22464,-0.19382,3.94138,4.33889,-0.25411
-0.11030,1.35823,-0.60284,-0.57175,0.51311,-0.23968,1.21626,1.10586,0.24319,-0.54136,1.87838,0.50111,-0.28928,-0.91082,-0.23548,-0.17681,22.10472,17.16041,-3.40297
-0.11870,1.36676,-0.60574,-0.57974,0.53779,-0.23175,1.39016,1.24549,0.24986,-0.33121,1.60827,1.09201,-0.29273,-0.91011,-0.24470,-0.16165,16.25219,13.28286,-0.35384
-0.12695,1.37531,-0.60829,-0.58323,0.55630,-0.21993,1.40019,1.24028,0.27847,-0.11543,1.44575,1.41858,-0.29408,-0.90971,-0.25171,-0.15031,3.77514,3.15760,1.86571
-0.13514,1.38416,-0.61022,-0.58447,0.57513,-0.20069,1.31676,1.12610,0.34082,0.05990,1.12545,1.66568,-0.29311,-0.90968,-0.25748,-0.14239,-2.16659,-5.59494,3.42913
-0.14325,1.39288,-0.61191,-0.58435,0.58809,-0.18232,1.17358,0.98915,0.40656,-0.01406,0.72826,1.08131,-0.29077,-0.91017,-0.26154,-0.13652,-11.13825,-12.12882,5.42325
-0.15128,1.40150,-0.61346,-0.58263,0.59618,-0.16603,1.05261,0.92609,0.43035,0.11061,0.53314,1.16064,-0.28944,-0.91065,-0.26478,-0.12973,-7.88984,-5.21729,1.85803
-0.15933,1.41015,-0.61475,-0.58189,0.60342,-0.14820,1.00887,0.91680,0.43670,-0.14615,0.60729,1.19939,-0.28887,-0.91076,-0.26885,-0.12161,-5.94167,-3.40248,1.19123
-0.16741,1.41856,-0.61582,-0.58249,0.61026,-0.12713,1.12858,1.00886,0.39655,-0.15200,0.65260,1.38912,-0.29089,-0.90950,-0.27594,-0.10976,4.96026,5.27119,-2.08565
-0.17544,1.42710,-0.61672,-0.58184,0.61626,-0.10902,1.26266,1.13536,0.34675,0.15482,0.46708,1.61530,-0.29405,-0.90767,-0.28366,-0.09599,11.72884,10.92668,-4.22722
-0.18335,1.43580,-0.61694,-0.57901,0.62266,-0.08435,1.31725,1.20353,0.31762,0.27387,0.41997,1.83040,-0.29655,-0.90599,-0.29034,-0.08329,5.04311,6.43246,-2.84166
-0.19131,1.44446,-0.61687,-0.57713,0.62735,-0.06003,1.29017,1.17797,0.35596,0.31819,0.30011,1.89642,-0.29642,-0.90511,-0.29597,-0.07293,-0.79093,-0.93567,1.98357
-0.19911,1.45305,-0.61651,-0.57299,0.62956,-0.03660,1.16535,1.07576,0.41597,0.34166,0.08076,1.66075,-0.29442,-0.90513,-0.29961,-0.06549,-6.76298,-6.91135,4.28812
-0.20669,1.46175,-0.61556,-0.56606,0.63085,-0.00991,1.06199,1.01445,0.44597,0.50162,0.12455,1.82037,-0.29296,-0.90507,-0.30279,-0.05777,-6.91678,-3.86987,2.48719
-0.21423,1.47050,-0.61417,-0.56007,0.63328,0.01907,1.03155,0.97246,0.44762,0.30441,0.40521,2.22019,-0.29223,-0.90434,-0.30709,-0.04968,-4.55338,-4.77180,0.32004
-0.22178,1.47940,-0.61247,-0.55565,0.63668,0.04477,1.08830,0.97272,0.42188,0.46553,0.45335,2.73351,-0.29265,-0.90257,-0.31321,-0.04021,2.43250,-0.37067,-0.91129
-0.22892,1.48858,-0.60883,-0.54529,0.64395,0.09634,1.26395,0.99444,0.34131,0.65865,0.39400,2.79955,-0.29510,-0.89889,-0.32255,-0.02954,10.03250,1.73135,-4.95447
-0.23589,1.49773,-0.60544,-0.53409,0.64899,0.13252,1.34261,1.00607,0.26298,0.92449,0.41852,2.52947,-0.29772,-0.89547,-0.33031,-0.01964,6.71227,1.84968,-5.37830
-0.24263,1.50711,-0.60160,-0.52166,0.65665,0.16800,1.42695,1.03804,0.16618,0.84404,0.63894,2.60039,-0.30149,-0.89136,-0.33836,-0.00926,5.33880,3.59902,-7.00233
-0.24938,1.51667,-0.59744,-0.51180,0.66688,0.20166,1.49599,1.07031,0.08605,0.61995,0.84693,2.36608,-0.30544,-0.88695,-0.34646,0.00127,5.23950,2.22042,-6.55619
-0.25636,1.52652,-0.59295,-0.50798,0.68039,0.23422,1.48323,1.03238,0.08332,0.17503,1.21264,2.60546,-0.30725,-0.88351,-0.35342,0.01021,0.46921,0.43036,-2.35633
-0.26370,1.53696,-0.58779,-0.51130,0.70005,0.26987,1.45407,0.95070,0.15343,-0.50030,1.73949,2.53129,-0.30652,-0.88086,-0.36028,0.01816,-3.69505,-7.67641,4.04087
-0.27124,1.54801,-0.58188,-0.51763,0.72387,0.30757,1.53555,1.00089,0.20260,-0.48808,1.83480,2.69155,-0.30690,-0.87689,-0.36874,0.02994,4.53364,0.69199,4.38245
-0.27878,1.55942,-0.57531,-0.52218,0.74800,0.34754,1.63797,1.06097,0.23480,-0.17827,1.68117,3.01941,-0.30762,-0.87216,-0.37799,0.04270,8.20998,5.77686,1.93222
-0.28627,1.57108,-0.56809,-0.52560,0.77039,0.38903,1.68800,1.05475,0.30233,-0.23392,1.54362,3.09473,-0.30665,-0.86796,-0.38686,0.05426,4.40883,0.18471,3.72343
-0.29388,1.58271,-0.56054,-0.52954,0.78679,0.42551,1.72808,1.04355,0.38201,-0.29639,1.19176,3.02114,-0.30474,-0.86380,-0.39576,0.06598,4.58786,-1.94377,5.78152
-0.30151,1.59441,-0.55200,-0.53281,0.80065,0.47011,1.75976,1.02650,0.44679,-0.17525,0.55715,2.56485,-0.30254,-0.85948,-0.40467,0.07754,2.84067,-1.63677,4.19587
-0.30902,1.60572,-0.54364,-0.53381,0.80538,0.50379,1.75068,1.05278,0.46255,-0.19832,0.06256,1.73430,-0.30161,-0.85503,-0.41228,0.08932,-1.03722,-0.49689,1.63934
-0.31645,1.61668,-0.53586,-0.53356,0.80424,0.52261,1.77653,1.17116,0.45131,-0.03663,-0.17755,1.51590,-0.30228,-0.84954,-0.41973,0.10363,0.92277,7.99810,-0.04059
-0.32397,1.62730,-0.52785,-0.53469,0.79786,0.54131,1.74237,1.23755,0.46670,0.03654,-0.66236,1.48134,-0.30222,-0.84469,-0.42593,0.11726,-0.09027,8.40222,0.87377
-0.33181,1.63752,-0.51945,-0.54067,0.78542,0.56173,1.67103,1.23594,0.56329,-0.55311,-0.86088,1.30537,-0.29948,-0.84114,-0.43117,0.12999,-4.93860,-1.57318,5.36701
-0.33989,1.64740,-0.51125,-0.54786,0.77182,0.57737,1.64533,1.22839,0.68266,-0.46729,-1.32849,1.57651,-0.29538,-0.83742,-0.43693,0.14342,-1.39222,-0.05194,8.89741
-0.34810,1.65639,-0.50254,-0.55464,0.74661,0.59886,1.60103,1.09441,0.85408,-0.09200,-2.27489,1.78465,-0.28770,-0.83501,-0.44285,0.15447,-1.08602,-7.10948,11.09979
-0.35594,1.66408,-0.49337,-0.55371,0.70266,0.61977,1.48771,0.78801,1.00842,0.40649,-3.23050,0.95292,-0.27720,-0.83450,-0.44848,0.16010,-5.03668,-20.54550,9.51039
-0.36329,1.67129,-0.48481,-0.54461,0.66046,0.62422,1.40406,0.63999,1.04335,0.92113,-3.90263,-0.20052,-0.26970,-0.83290,-0.45359,0.16674,-6.46673,-18.03748,4.77022
-0.36982,1.67739,-0.47702,-0.52433,0.61100,0.61469,1.32089,0.63044,0.97537,1.94316,-4.45090,-1.40862,-0.26593,-0.83031,-0.45762,0.17451,-6.06804,-5.96121,-1.90038
-0.37452,1.68106,-0.47076,-0.47887,0.53008,0.57891,1.20220,0.82785,0.75258,2.69511,-4.67515,-2.49409,-0.26930,-0.82611,-0.45927,0.18464,-8.31597,10.96645,-11.34783
-0.37917,1.68505,-0.46470,-0.44372,0.47163,0.54610,1.18482,1.06489,0.58994,2.97401,-5.06730,-3.09690,-0.27315,-0.82033,-0.46198,0.19755,-4.35461,17.73912,-11.98786
-0.38316,1.68788,-0.45955,-0.40710,0.40974,0.50686,1.14977,1.27763,0.44636,3.21072,-5.37442,-3.35466,-0.27822,-0.81422,-0.46386,0.21089,-3.48188,21.06885,-11.09049
-0.38558,1.68793,-0.45632,-0.35341,0.31391,0.44171,0.94007,1.28963,0.30502,3.36906,-5.45531,-3.75258,-0.28309,-0.81101,-0.46286,0.21882,-10.24221,4.33851,-7.76670
-0.38850,1.68886,-0.45285,-0.32044,0.25438,0.39486,0.65948,1.04646,0.28748,2.65140,-4.90686,-3.91036,-0.28295,-0.81181,-0.46067,0.22066,-20.39252,-15.61874,-2.93227
-0.39110,1.68866,-0.45061,-0.29068,0.19096,0.33901,0.35007,0.76280,0.35477,1.85056,-4.22713,-4.26066,-0.28007,-0.81531,-0.45645,0.22019,-22.15263,-21.71961,3.59643
-0.39362,1.68803,-0.44937,-0.26657,0.13514,0.27888,0.05428,0.50796,0.46805,1.64368,-3.86752,-4.40590,-0.27551,-0.82033,-0.45068,0.21919,-20.58783,-18.91020,8.49304
-0.39578,1.68651,-0.44954,-0.24244,0.07571,0.20703,-0.26737,0.23331,0.58841,1.34702,-3.66101,-4.78293,-0.26965,-0.82724,-0.44309,0.21596,-19.32680,-19.55566,8.61485
-0.39777,1.68485,-0.45039,-0.21975,0.02813,0.14077,-0.52231,0.08583,0.62941,1.58208,-3.17329,-4.75869,-0.26589,-0.83333,-0.43505,0.21354,-18.57447,-13.66535,5.95577
-0.39925,1.68285,-0.45182,-0.19300,-0.01376,0.08044,-0.68327,0.12702,0.56439,1.79051,-2.76459,-4.06207,-0.26623,-0.83726,-0.42711,0.21378,-13.11951,-0.83844,-2.65363
-0.40023,1.68065,-0.45343,-0.16409,-0.04914,0.03143,-0.77963,0.23452,0.41456,2.11889,-2.18005,-3.06897,-0.26984,-0.83955,-0.41975,0.21482,-8.73559,6.24934,-9.20467
-0.40094,1.67860,-0.45456,-0.13793,-0.07277,0.00368,-0.77187,0.37664,0.23379,2.00733,-1.53078,-1.70697,-0.27548,-0.83986,-0.41426,0.21711,-4.19841,9.43935,-14.51707
-0.40129,1.67639,-0.45516,-0.11114,-0.09327,-0.00872,-0.63514,0.53570,0.03286,1.87241,-1.04077,-0.26664,-0.28262,-0.83758,-0.41201,0.22100,7.22739,11.92623,-15.48988
-0.40142,1.67438,-0.45463,-0.08655,-0.10616,0.00027,-0.35769,0.62547,-0.13903,1.44231,-0.46605,1.05128,-0.28869,-0.83317,-0.41435,0.22537,16.68767,8.43691,-12.96249
-0.40201,1.67280,-0.45387,-0.07606,-0.10823,0.01198,-0.16923,0.58589,-0.19586,0.72835,0.04789,0.76318,-0.29160,-0.83038,-0.41661,0.22776,17.05251,-2.14096,-7.57583
-0.40281,1.67175,-0.45335,-0.06943,-0.10102,0.01626,-0.04998,0.51984,-0.21287,0.34599,0.72810,-0.14150,-0.29352,-0.82831,-0.41849,0.22938,10.67408,-5.15443,-2.12439
-0.40370,1.67148,-0.45346,-0.06581,-0.08235,0.00874,-0.00265,0.49175,-0.21240,0.13635,1.35514,-0.81660,-0.29567,-0.82678,-0.41891,0.23135,3.61833,-2.05639,-0.21920
-0.40458,1.67147,-0.45396,-0.06393,-0.06341,-0.00237,-0.00406,0.48387,-0.20506,0.21486,1.65238,-0.96374,-0.29808,-0.82568,-0.41822,0.23346,1.07022,-0.00522,0.16259
-0.40572,1.67218,-0.45461,-0.06595,-0.03782,-0.01361,-0.06903,0.33735,-0.14389,-0.19702,1.94138,-0.61419,-0.29781,-0.82684,-0.41678,0.23223,-3.60040,-7.65380,3.00094
-0.40712,1.67343,-0.45501,-0.07180,-0.00905,-0.01777,-0.07887,0.22604,-0.05762,-0.50026,2.24395,-0.00533,-0.29622,-0.82791,-0.41605,0.23178,-2.84590,-10.09678,6.70214
-0.40821,1.67528,-0.45461,-0.07838,0.02621,-0.00812,0.00851,0.14842,0.00562,-0.41307,2.40940,1.05821,-0.29404,-0.82782,-0.41765,0.23199,3.66274,-5.90780,4.55842
-0.40997,1.67759,-0.45355,-0.08081,0.05702,0.01168,0.16168,0.14309,0.00781,0.09041,2.20105,1.58251,-0.29339,-0.82565,-0.42101,0.23445,10.69864,0.01991,1.58662
-0.41105,1.67997,-0.45218,-0.07832,0.08365,0.03120,0.28180,0.12721,-0.03577,0.27950,2.24895,1.61624,-0.29353,-0.82318,-0.42503,0.23574,10.68464,-1.77115,-2.32584
-0.41198,1.68342,-0.45026,-0.07425,0.12194,0.05539,0.42975,0.14980,-0.11442,0.08748,2.53591,1.40401,-0.29482,-0.81931,-0.43044,0.23776,9.46929,0.78590,-5.42900
-0.41312,1.68726,-0.44835,-0.07382,0.15793,0.07403,0.53120,0.20885,-0.15371,0.02282,2.62000,1.24993,-0.29620,-0.81547,-0.43497,0.24098,8.01980,4.81736,-3.36665
-0.41437,1.69138,-0.44629,-0.07577,0.18975,0.09079,0.59696,0.24694,-0.15462,-0.19476,2.69712,1.58517,-0.29687,-0.81204,-0.43907,0.24429,5.47006,3.54665,-1.34493
-0.41583,1.69675,-0.44277,-0.08153,0.23571,0.12910,0.74255,0.27478,-0.10910,-0.32649,2.47092,2.64922,-0.29572,-0.80780,-0.44503,0.24891,7.54952,1.45901,2.44063
-0.41722,1.70161,-0.43902,-0.08527,0.26287,0.16258,0.86614,0.26604,-0.06863,-0.19662,2.16105,2.91284,-0.29397,-0.80357,-0.45149,0.25300,10.61393,0.72100,2.72985
-0.41871,1.70694,-0.43436,-0.08993,0.29093,0.20302,0.98677,0.23343,-0.00137,-0.31964,1.84239,2.91329,-0.29073,-0.79942,-0.45857,0.25714,9.22595,-3.35899,4.27991
-0.42021,1.71243,-0.42927,-0.09341,0.31571,0.24142,1.05091,0.15391,0.08454,-0.07250,1.71076,2.65024,-0.28613,-0.79625,-0.46519,0.26022,6.53293,-4.93045,5.41320
-0.42153,1.71826,-0.42367,-0.09279,0.34006,0.27947,1.10654,0.15202,0.13558,0.07263,1.76859,2.88692,-0.28255,-0.79243,-0.47147,0.26446,2.71080,-3.01815,4.68773
-0.42244,1.72439,-0.41732,-0.08543,0.36390,0.32117,1.15684,0.19874,0.13032,0.72858,1.70453,3.22460,-0.28053,-0.78766,-0.47783,0.26938,4.60528,2.23846,1.61088
-0.42276,1.73083,-0.40968,-0.06996,0.38767,0.37519,1.28423,0.35980,0.05178,1.26127,1.93947,4.64367,-0.28128,-0.77999,-0.48563,0.27687,5.31284,9.23651,-3.59990
-0.42258,1.73756,-0.40006,-0.04954,0.41065,0.45004,1.53763,0.51171,-0.04641,1.75250,1.64669,6.04091,-0.28213,-0.76921,-0.49701,0.28583,17.09522,15.32211,-7.29029
-0.42221,1.74443,-0.38846,-0.03130,0.43036,0.54050,1.79347,0.42612,-0.07073,1.38605,1.20814,7.03209,-0.27842,-0.75930,-0.51100,0.29123,18.47722,-0.82265,-4.32092
-0.42223,1.75131,-0.37444,-0.02180,0.44595,0.65345,2.08002,0.10134,0.04729,0.28496,0.78611,6.96859,-0.26711,-0.75103,-0.52785,0.29322,18.37778,-20.12023,3.12498
-0.42264,1.75812,-0.35975,-0.02118,0.45713,0.75393,2.24691,-0.22267,0.24540,-0.08465,0.54191,5.81342,-0.25270,-0.74468,-0.54293,0.29466,12.04452,-22.33831,9.68852
-0.42296,1.76485,-0.34507,-0.02074,0.46360,0.82941,2.34965,-0.43620,0.40826,0.16299,0.28818,5.02197,-0.23856,-0.73820,-0.55682,0.29682,8.48990,-16.72495,9.98677
-0.42326,1.77788,-0.31746,-0.01635,0.46587,0.89571,2.41055,-0.65471,0.53385,0.47736,-0.05581,4.64064,-0.21323,-0.72471,-0.58247,0.30010,4.19750,-16.04271,7.22807
-0.42307,1.78404,-0.30070,-0.01012,0.46113,0.95805,2.51615,-0.91066,0.61642,0.43584,-0.49614,4.36028,-0.19473,-0.71790,-0.59820,0.29809,6.45100,-19.14408,3.46983
-0.42453,1.78981,-0.28345,-0.00500,0.44603,1.02282,2.70706,-1.10845,0.68814,0.43139,-1.45806,3.95942,-0.17489,-0.70840,-0.61592,0.29701,11.43115,-13.64358,3.04250
-0.42760,1.79483,-0.26664,-0.00119,0.41745,1.07876,2.91416,-1.21604,0.69772,0.55160,-2.20784,3.26958,-0.15659,-0.69647,-0.63440,0.29655,13.40732,-8.06199,0.76782
-0.42947,1.79926,-0.24961,0.00445,0.38879,1.12209,3.10356,-1.24578,0.67652,0.74082,-2.23428,3.09801,-0.13979,-0.68277,-0.65279,0.29691,13.75871,0.34083,0.18786
-0.42904,1.80269,-0.23142,0.00999,0.35862,1.16103,3.29303,-1.33975,0.64255,0.03044,-2.01707,2.42785,-0.12147,-0.66816,-0.67211,0.29507,13.73525,-6.22036,-3.71576
-0.42898,1.80572,-0.21325,0.00871,0.32827,1.19161,3.50669,-1.32053,0.70416,-0.45525,-1.86746,1.54463,-0.10220,-0.65124,-0.69079,0.29708,13.28061,-0.99285,3.52889
-0.42922,1.80869,-0.19562,0.00307,0.30362,1.20776,3.67352,-1.23364,0.81120,-0.61623,-2.19112,1.11252,-0.08307,-0.63329,-0.70782,0.30172,13.19666,5.57162,10.09143
-0.43002,1.81047,-0.17783,-0.01015,0.26574,1.22283,3.79006,-1.29760,0.92678,-0.80226,-2.73511,1.02789,-0.06064,-0.61622,-0.72406,0.30386,7.56137,-1.30124,8.85348
-0.43144,1.81158,-0.15982,-0.03039,0.22512,1.23821,3.92668,-1.50227,1.01405,-1.86197,-2.99298,1.22159,-0.03452,-0.59884,-0.74087,0.30217,8.19341,-14.97306,1.73104
-0.43372,1.81184,-0.14165,-0.05943,0.18011,1.25272,4.10650,-1.77310,1.14236,-2.21047,-3.46357,0.96543,-0.00390,-0.57999,-0.75762,0.29934,13.27402,-17.87548,5.91935
-0.43711,1.81024,-0.12369,-0.10019,0.11460,1.26054,4.36642,-2.21559,1.23441,-2.42928,-4.68225,-0.37712,0.03278,-0.55915,-0.77542,0.29154,18.05729,-25.18032,4.08539
-0.44026,1.80901,-0.10688,-0.12759,0.07061,1.24867,4.47540,-2.53509,1.21758,-2.90237,-4.37672,-2.19734,0.06647,-0.53921,-0.79096,0.28145,18.37533,-30.74646,-8.10923
-0.44487,1.80555,-0.09332,-0.17138,0.00184,1.18819,4.56261,-2.80021,1.34984,-2.40663,-3.30170,-4.66500,0.10342,-0.51848,-0.80350,0.27363,5.95051,-18.78335,-0.76890
-0.44781,1.80298,-0.08130,-0.17965,-0.03975,1.11496,4.59482,-2.63373,1.65136,0.81829,-2.69246,-6.19463,0.13459,-0.49454,-0.81257,0.27759,-0.06517,1.10761,25.22152
-0.44902,1.80084,-0.07064,-0.15884,-0.06461,1.03816,4.50646,-2.49640,1.66561,2.88906,-1.92599,-6.87305,0.16016,-0.47300,-0.82107,0.27653,-7.68095,8.78087,12.86850
-0.44776,1.79852,-0.06424,-0.10282,-0.08688,0.90878,4.26589,-2.24101,1.53777,3.30370,-0.71163,-7.80028,0.17819,-0.45455,-0.82834,0.27475,-12.90788,14.22322,-5.77300
-0.44659,1.79711,-0.05830,-0.06010,-0.08999,0.79735,3.94910,-2.02357,1.51623,2.43028,0.09546,-8.47698,0.19593,-0.43860,-0.83275,0.27526,-21.21453,14.83403,-2.91854
-0.44592,1.79603,-0.05343,-0.03573,-0.08723,0.69598,3.63070,-1.91591,1.62676,1.56817,0.24613,-8.64629,0.21617,-0.42438,-0.83413,0.27822,-28.30875,9.02723,5.73886
-0.44581,1.79452,-0.05157,-0.02638,-0.09225,0.57076,3.33928,-2.06883,1.75587,0.00302,-0.96897,-9.06318,0.24220,-0.41284,-0.83257,0.27879,-24.60042,-8.25092,3.32260
-0.44594,1.79205,-0.05349,-0.02246,-0.11132,0.41014,3.23758,-2.54831,1.82782,1.20488,-0.86523,-10.59753,0.27763,-0.40032,-0.82961,0.27278,-5.96608,-28.31902,5.77132
-0.44556,1.79058,-0.05736,-0.01078,-0.10953,0.25172,3.21644,-3.23674,1.49819,1.79536,1.18188,-11.96635,0.31554,-0.39040,-0.82734,0.25207,7.22984,-40.26208,-27.66443
-0.44431,1.79096,-0.06292,0.01217,-0.07819,0.10484,3.22080,-3.92530,0.86035,2.90762,3.83549,-12.67395,0.35214,-0.38330,-0.82534,0.21882,13.68990,-45.75096,-48.81054
-0.45183,1.79033,-0.07227,-0.01247,-0.01133,-0.09834,3.09351,-4.68909,0.14788,3.13631,7.51282,-13.00583,0.38997,-0.38222,-0.81890,0.17675,15.24928,-40.41499,-62.06361
-0.45837,1.78298,-0.07737,-0.00812,-0.00604,-0.09202,2.68442,-4.96239,0.08879,6.10653,9.61602,-11.28754,0.42378,-0.38251,-0.80634,0.15462,-15.38092,-25.54306,-26.14794
-0.46303,1.77784,-0.08411,0.00112,-0.00397,-0.08053,2.16540,-4.93702,0.27378,8.31783,9.70854,-8.72016,0.45299,-0.38411,-0.79149,0.14427,-43.84879,-4.18849,-0.78569
-0.46910,1.77266,-0.09605,0.00655,-0.00148,-0.06629,1.59561,-4.75324,0.26374,9.36585,8.41186,-6.59008,0.47503,-0.39040,-0.77712,0.13425,-35.22605,9.99280,-11.22336
-0.47692,1.76874,-0.10725,0.01525,-0.00181,-0.05156,1.04427,-4.50922,0.46717,9.36806,5.99125,-5.35996,0.49656,-0.39570,-0.76121,0.13194,-38.35267,14.45219,1.76036
-0.48875,1.76604,-0.11218,0.02039,-0.00216,-0.04307,0.75450,-4.36934,0.57633,9.14318,4.21274,-5.03267,0.51916,-0.39772,-0.74586,0.12640,-27.33432,11.34349,4.27126
-0.49823,1.76380,-0.11765,0.02307,-0.00201,-0.03950,0.64865,-4.35944,0.60059,8.31630,2.96901,-5.77489,0.54335,-0.39748,-0.73018,0.11671,-13.30815,4.34776,-0.94508
-0.50974,1.76074,-0.12629,0.02769,-0.00203,-0.03622,0.53356,-4.55919,0.66376,7.39886,2.27749,-7.55015,0.57183,-0.39768,-0.70969,0.10579,-6.11534,-8.81321,1.52967
-0.51934,1.75790,-0.13651,0.03139,-0.00189,-0.03382,0.41052,-5.02357,0.66216,7.87641,1.97989,-9.00397,0.60529,-0.39956,-0.68251,0.09033,-8.59187,-28.55157,-0.54417
-0.52856,1.75551,-0.14961,0.03197,-0.00094,-0.03231,0.31654,-5.66540,0.47815,9.73988,2.72737,-9.75330,0.64096,-0.40377,-0.64933,0.06717,-2.39116,-43.01509,-12.14109
-0.53662,1.75404,-0.16790,0.03119,-0.00020,-0.02897,0.15909,-6.33413,0.21437,12.71110,3.22837,-9.80523,0.67627,-0.41114,-0.60992,0.04028,1.90745,-48.11579,-22.56168
-0.54289,1.75377,-0.18954,0.02786,0.00107,-0.02737,0.10570,-6.95612,-0.16402,17.12128,4.37931,-7.45777,0.70921,-0.41888,-0.56701,0.00762,-1.09328,-46.65288,-22.91315
-0.54656,1.75511,-0.21393,0.02358,0.00180,-0.02394,0.00053,-7.38028,-0.55598,21.56520,5.78354,-4.53333,0.73705,-0.42815,-0.52231,-0.02537,12.20216,-36.59737,-28.72303
-0.54687,1.75803,-0.24067,0.01488,0.00260,-0.01975,-0.12514,-7.61847,-1.09689,26.18036,8.41881,0.75742,0.75766,-0.44111,-0.47726,-0.06006,2.22684,-20.36698,-32.44239
-0.54348,1.76417,-0.26803,-0.00397,0.00378,-0.01356,-0.37415,-7.56670,-2.00027,29.14129,10.79457,5.91128,0.76524,-0.46559,-0.43380,-0.09722,22.52931,0.09962,-61.05433
-0.53712,1.77253,-0.29096,-0.02999,0.00528,-0.00452,-0.81508,-7.31251,-3.12917,32.35436,11.38251,12.06783,0.76051,-0.50252,-0.38929,-0.13249,9.43562,12.03863,-85.09990
-0.52225,1.78873,-0.32029,-0.07112,0.01174,0.00341,-1.34723,-6.75810,-4.83923,35.44937,9.24699,21.68696,0.73448,-0.55861,-0.34573,-0.17019,17.86037,24.30570,-111.74880
-0.50320,1.80757,-0.34344,-0.11035,0.02758,-0.00590,-1.16701,-6.06008,-6.49774,37.52642,6.09525,31.00118,0.69495,-0.60983,-0.31221,-0.21835,56.66159,24.49193,-107.67750
-0.47794,1.83104,-0.36131,-0.14541,0.05472,-0.02659,-0.41762,-5.03904,-8.08716,38.79305,-0.33030,39.21531,0.63686,-0.65811,-0.29423,-0.27337,103.45700,22.91014,-96.39445
-0.44679,1.85844,-0.37229,-0.17141,0.09255,-0.04864,0.69070,-3.70337,-9.47994,41.55148,-8.83437,45.51998,0.56116,-0.70131,-0.29237,-0.32831,134.12210,25.67765,-70.31264
-0.40466,1.89301,-0.37147,-0.20322,0.16068,-0.06689,2.47018,-1.71242,-11.61777,42.75326,-20.47988,50.83271,0.43984,-0.74778,-0.31110,-0.38805,173.51160,32.65931,-93.46281
0.03288,1.97128,-0.24435,6.11541,0.89578,1.89818,4.21300,0.29536,-13.70536,43.08165,-40.65220,50.09940,0.29303,-0.78303,-0.32683,-0.44066,192.37440,36.61890,-128.86590
0.35515,1.99698,-0.13941,6.69395,0.13034,2.55781,6.02640,2.11184,-15.87792,39.93539,-71.90685,43.33961,0.11263,-0.80203,-0.33853,-0.47903,187.91860,21.53139,-140.34540
0.58649,1.97019,-0.05426,7.07622,-0.88846,3.00512,7.52902,3.68601,-17.58842,23.15760,-99.31284,30.44875,-0.07885,-0.79532,-0.33928,-0.49612,174.44340,16.74173,-161.74000
0.76248,1.86938,0.02182,7.10597,-2.70229,3.32214,9.58543,6.13368,-18.17068,-22.94215,-121.14970,8.32569,-0.27673,-0.75783,-0.36200,-0.46698,190.43530,5.54665,-92.30753
0.85341,1.73710,0.07440,6.46223,-4.42154,3.32708,12.42104,7.71550,-16.04239,-67.16704,-117.89970,-7.17496,-0.42012,-0.68502,-0.42962,-0.41191,208.85760,-133.52840,0.16530
0.89908,1.59773,0.11303,5.51957,-5.75204,3.15726,15.38459,7.50526,-13.50377,-87.74287,-102.54710,-19.56050,-0.52761,-0.57443,-0.51103,-0.36126,172.80750,-282.86130,-45.61880
0.90378,1.44128,0.13377,4.23104,-7.00901,2.75437,18.73244,6.57583,-11.17329,-97.18752,-78.06606,-38.67217,-0.61405,-0.42171,-0.59850,-0.29481,100.79590,-236.79800,-144.59000
0.88063,1.28845,0.13440,2.83488,-7.90294,2.12990,21.71147,5.05332,-9.23557,-102.81860,-48.67260,-50.13822,-0.66851,-0.23941,-0.67091,-0.21368,127.64160,-206.12180,-192.76190
0.84110,1.17048,0.12323,1.62001,-8.27727,1.52095,21.95132,2.40840,-8.44733,-101.00610,-19.90201,-45.27560,-0.68107,-0.07787,-0.70552,-0.17979,14.41289,-143.66840,-179.01470
0.76312,1.05727,0.10765,0.05581,-8.19939,0.84447,17.45937,-1.34818,-9.83421,-89.09628,21.97898,-38.83730,-0.66191,0.01797,-0.69666,-0.27608,-286.66890,128.64270,-194.08230
0.69888,0.97211,0.09326,-1.01272,-7.71452,0.41685,12.08086,-2.10520,-10.98970,-65.88654,45.79385,-23.15350,-0.65970,0.05768,-0.65074,-0.37150,-297.98750,256.55060,-101.60910
0.64229,0.90105,0.08772,-1.70028,-7.12276,0.23498,8.31026,-1.79821,-10.37777,-49.11334,56.19154,-8.97971,-0.65808,0.07084,-0.61698,-0.42573,-260.52900,245.19880,38.61368
0.57789,0.85439,0.08800,-2.37656,-6.27387,0.18700,4.01375,-1.14484,-10.04354,-36.49625,51.79043,1.26216,-0.64529,0.05390,-0.57047,-0.50523,-203.61170,162.85980,52.65941
0.52475,0.80829,0.09481,-2.75117,-5.59580,0.24906,0.54751,0.28752,-10.30180,-20.39676,49.56711,5.08688,-0.63883,0.03581,-0.49446,-0.58833,-149.27430,254.16910,-19.42138
0.47677,0.76323,0.10139,-2.94213,-5.05771,0.29251,-0.95492,0.84432,-9.83759,-10.85295,45.70469,1.08236,-0.62833,0.03572,-0.44208,-0.63913,-92.77023,163.93720,13.40352
0.42908,0.73498,0.10524,-3.06598,-4.37549,0.27037,-1.41780,1.35584,-8.64913,-2.61202,35.05654,-4.93545,-0.62749,0.03197,-0.40469,-0.66442,-4.00410,57.40443,58.72544
0.38484,0.70098,0.10594,-3.10427,-3.93153,0.19983,-0.85089,0.87239,-7.45148,-1.91134,29.84785,-6.86703,-0.62750,0.05355,-0.39127,-0.67103,26.18410,-32.68968,85.67278
0.34099,0.66716,0.10528,-3.12600,-3.58980,0.13066,-0.29764,0.31126,-6.58753,-2.04809,27.55529,-6.01140,-0.62656,0.08140,-0.38098,-0.67502,27.20612,-63.99184,79.78177
0.29767,0.64390,0.10368,-3.13828,-3.14840,0.06181,0.00936,-0.07044,-5.78792,-1.14102,27.53604,-3.19377,-0.62454,0.10420,-0.37247,-0.67850,13.49043,-40.11388,56.27486
0.25593,0.62295,0.10395,-3.12334,-2.76305,0.03887,-0.11697,0.20281,-5.47125,1.30964,27.06772,-0.72125,-0.62245,0.11710,-0.34657,-0.69190,0.61781,11.27548,26.26233
0.21528,0.60404,0.10511,-3.08739,-2.43738,0.04137,-0.45725,0.67354,-5.39494,3.16592,26.82169,0.25468,-0.61739,0.12453,-0.31226,-0.71121,-9.62690,36.38260,15.77738
0.17861,0.59394,0.10648,-2.99542,-2.03720,0.04448,-0.79207,1.49698,-5.35068,8.14853,23.54353,-0.88977,-0.61453,0.12192,-0.26814,-0.73184,-6.25508,60.90609,-5.41882
0.14499,0.58316,0.10660,-2.87150,-1.73418,0.02674,-0.76969,1.82915,-4.90214,10.57669,21.09845,-2.65998,-0.61452,0.12081,-0.23788,-0.74242,9.76870,33.23693,23.95637
0.11297,0.57306,0.10528,-2.74536,-1.49747,-0.00546,-0.58921,1.81700,-4.35390,11.30667,19.17076,-3.44826,-0.61568,0.12291,-0.21700,-0.74749,17.26991,3.46480,40.64712
0.08469,0.56745,0.10292,-2.58895,-1.24604,-0.05012,-0.19338,1.72183,-3.76459,11.08943,17.87711,-3.48374,-0.62227,0.12591,-0.20109,-0.74598,26.71219,-12.92840,42.47179
0.05960,0.56624,0.10062,-2.41336,-0.97497,-0.08312,0.26873,1.66225,-3.40635,10.69197,16.70356,-0.71472,-0.63164,0.13159,-0.18216,-0.74198,31.39650,-14.48567,23.90783
0.03454,0.56438,0.09989,-2.27379,-0.77975,-0.07812,0.49467,1.82629,-3.34963,12.10431,15.99642,1.75629,-0.63819,0.13546,-0.15437,-0.74198,25.00263,1.66914,5.53513
0.01436,0.56700,0.10116,-2.08577,-0.56085,-0.04098,0.61140,2.09840,-3.24001,15.21409,14.95502,3.88363,-0.64420,0.13420,-0.12503,-0.74254,14.19061,15.04026,-0.08677
0.00103,0.57404,0.10500,-1.82440,-0.31570,0.03037,0.19948,2.39353,-3.00079,18.14420,14.64907,4.98717,-0.64000,0.12485,-0.09938,-0.75162,-16.47174,19.14687,14.93990
-0.00934,0.58087,0.10941,-1.57119,-0.12939,0.09640,-0.19531,2.61579,-2.47094,18.30012,11.84783,4.61471,-0.63490,0.10873,-0.08165,-0.76053,-17.39550,24.14815,39.60656
-0.01666,0.58869,0.11380,-1.32356,0.02746,0.14539,-0.42068,2.76186,-2.04894,17.37203,11.19291,2.20299,-0.63074,0.09315,-0.06469,-0.76767,-13.66594,15.07607,40.50329
-0.02299,0.59656,0.11717,-1.12145,0.14695,0.16597,-0.45432,2.90079,-1.94262,16.43739,9.42151,1.08642,-0.62829,0.08173,-0.04175,-0.77254,-2.70443,11.47041,15.69332
-0.02318,0.60657,0.12014,-0.86465,0.27490,0.17574,-0.43249,3.00018,-1.87470,16.27492,7.16825,-0.08245,-0.62637,0.07092,-0.01832,-0.77608,2.00358,6.99067,2.65690
-0.02204,0.61605,0.12211,-0.63827,0.36605,0.16692,-0.42046,3.06359,-1.77301,16.69982,5.54065,-1.13894,-0.62405,0.05940,0.00386,-0.77911,3.82353,5.66190,4.03866
-0.01934,0.62487,0.12358,-0.44463,0.42476,0.15229,-0.47625,2.99001,-1.48289,16.49578,3.76429,-1.51013,-0.62049,0.04651,0.01837,-0.78262,0.02038,-0.05872,16.66059
-0.01067,0.63405,0.12407,-0.19702,0.47868,0.12646,-0.58733,2.71838,-0.91437,15.33726,2.87342,-1.89605,-0.61604,0.03194,0.02039,-0.78681,-0.77444,-13.66939,36.84599
-0.00151,0.64277,0.12412,0.00691,0.51597,0.09998,-0.72366,2.40047,-0.42237,14.31918,2.46849,-1.91509,-0.61026,0.01909,0.01902,-0.79174,-3.85496,-20.45054,38.09927
0.00962,0.65157,0.12372,0.19592,0.54467,0.07119,-0.84655,2.10309,-0.07338,13.14734,1.88294,-2.22316,-0.60369,0.00798,0.01737,-0.79699,-5.78829,-20.31547,30.82718
0.02269,0.65988,0.12250,0.37365,0.56317,0.03727,-0.94189,1.85296,0.12427,12.80196,1.11637,-2.62195,-0.59680,-0.00117,0.01698,-0.80221,-4.81074,-18.15623,18.10765
0.03806,0.66764,0.12025,0.55024,0.57067,-0.00560,-1.01423,1.64166,0.33605,13.00603,-0.03356,-3.48362,-0.58982,-0.01091,0.01494,-0.80732,-4.48845,-14.12146,14.66925
0.05604,0.67453,0.11690,0.72734,0.56009,-0.05784,-1.01298,1.41545,0.64331,13.13407,-1.45878,-4.08224,-0.58419,-0.02170,0.00837,-0.81128,1.14156,-14.43324,20.89273
0.07906,0.68849,0.11408,0.92053,0.54611,-0.11295,-0.89983,1.20942,1.14507,13.57569,-2.33795,-4.09798,-0.58118,-0.03601,-0.00436,-0.81296,8.10037,-15.27934,31.60302
0.10549,0.70320,0.11042,1.12537,0.53107,-0.16831,-0.70770,1.21248,1.70510,14.36379,-1.70514,-3.85040,-0.58025,-0.05724,-0.01847,-0.81221,17.24057,-2.64603,40.40965
0.13456,0.71530,0.10525,1.33672,0.52135,-0.22695,-0.49471,1.55266,2.11159,14.42471,-0.81175,-4.32687,-0.58019,-0.08632,-0.02638,-0.80946,15.20546,22.27682,32.09950
0.16661,0.72217,0.09758,1.56266,0.51526,-0.30309,-0.26350,2.08727,2.49954,13.60054,0.40847,-5.04461,-0.58074,-0.12310,-0.03188,-0.80410,13.03678,34.54367,23.32557
0.19897,0.73022,0.08884,1.74368,0.53084,-0.38064,-0.09649,2.63267,2.69951,12.32322,2.10913,-6.07884,-0.58042,-0.16099,-0.03278,-0.79757,8.43952,40.80517,13.90622
0.23260,0.74001,0.07811,1.90296,0.57219,-0.47370,0.01943,3.16925,2.86617,10.45287,3.72982,-7.26926,-0.57889,-0.20172,-0.03191,-0.78942,4.17963,40.45168,10.95410
0.26662,0.75153,0.06547,2.03074,0.63332,-0.57707,0.13884,3.56944,3.08077,8.10055,5.16806,-7.94038,-0.57679,-0.24334,-0.03332,-0.77909,4.79189,32.85530,12.46511
0.30040,0.76534,0.05084,2.12395,0.71898,-0.68956,0.22814,3.90662,3.28271,5.36249,7.20029,-8.32507,-0.57340,-0.28589,-0.03521,-0.76697,6.01796,25.29145,14.83923
0.33133,0.77886,0.03373,2.17183,0.82806,-0.80676,0.23391,4.23747,3.35146,1.96803,9.16429,-8.13972,-0.56790,-0.32834,-0.03387,-0.75401,1.74055,24.76995,9.20159
0.35716,0.78772,0.01486,2.16611,0.93040,-0.90614,0.08962,4.48411,3.28188,-0.33979,10.01493,-8.05813,-0.55864,-0.36842,-0.02917,-0.74252,-13.90818,20.35937,-1.37384
0.38090,0.79828,-0.00601,2.12298,1.06189,-1.01607,-0.11172,4.61060,3.32547,-2.91820,10.51930,-7.52254,-0.54560,-0.40821,-0.02701,-0.73141,-15.36274,10.07579,4.15699
0.40460,0.81902,-0.02755,2.04313,1.22881,-1.12970,-0.32080,4.56597,3.54766,-6.11824,10.99221,-6.87176,-0.52889,-0.44697,-0.03036,-0.72081,-8.61551,-3.33580,16.03745
0.42790,0.84386,-0.04812,1.95513,1.35783,-1.20811,-0.49322,4.45997,3.70813,-8.78122,10.56624,-6.12080,-0.51114,-0.48305,-0.03405,-0.71010,-5.75391,-9.44713,18.74865
0.44693,0.87095,-0.06996,1.81854,1.49154,-1.28736,-0.65492,4.27385,3.81464,-11.07245,8.83773,-5.33680,-0.49193,-0.51587,-0.03855,-0.70028,-8.18674,-13.93306,11.95386
0.46078,0.89929,-0.09262,1.62440,1.61621,-1.36236,-0.70998,3.95781,3.91173,-13.48372,6.84971,-4.35967,-0.47343,-0.54460,-0.04671,-0.69072,1.88072,-18.61407,8.33120
0.47214,0.92653,-0.11515,1.43089,1.69485,-1.41721,-0.66986,3.65888,3.90844,-14.53631,4.55129,-3.58256,-0.45713,-0.57033,-0.05478,-0.68027,5.75881,-20.71056,1.48566
0.48331,0.95251,-0.13709,1.28621,1.73271,-1.44945,-0.55383,3.46656,3.90038,-14.83319,3.15147,-2.90309,-0.44227,-0.59582,-0.06340,-0.66736,12.53309,-18.72803,-2.55819
