posX, posY, posZ, velX, velY, velZ, angVelX, angVelY, angVelZ, accX, accY, accZ, rotX, rotY, rotZ, rotW, angAccX, angAccY, angAccZ
-0.06481,1.68153,-0.61465,-0.29614,0.03936,-0.14125,0.04556,0.51205,0.26168,0.28874,-0.88645,-0.63972,-0.31103,-0.82880,-0.46492,-0.01408,-2.25179,-0.87643,0.09200
-0.06866,1.68134,-0.61738,-0.29155,0.02562,-0.14848,0.05867,0.54357,0.25142,0.37854,-1.11611,-0.31743,-0.31186,-0.82900,-0.46412,-0.00940,1.65224,3.46847,0.09752
-0.07251,1.68108,-0.62004,-0.28807,0.01437,-0.15364,0.01519,0.51887,0.23299,0.34587,-0.96086,-0.32193,-0.31225,-0.82981,-0.46246,-0.00656,-2.21312,-0.86285,-1.56020
-0.07628,1.68059,-0.62277,-0.28417,0.00208,-0.15879,-0.03359,0.50133,0.20830,0.10799,-0.58435,-0.15822,-0.31290,-0.83075,-0.46037,-0.00405,-4.46728,-1.92057,-1.62510
-0.08022,1.68023,-0.62528,-0.28410,-0.00506,-0.15851,0.00934,0.51958,0.20434,-0.13173,-0.41305,0.14160,-0.31366,-0.83071,-0.45993,0.00020,0.72222,1.00562,-0.94511
-0.08425,1.67993,-0.62767,-0.28558,-0.00932,-0.15641,0.05201,0.54145,0.21275,-0.06297,-0.33982,0.32995,-0.31428,-0.83059,-0.45971,0.00497,4.91749,2.72394,0.02186
-0.08849,1.67962,-0.62990,-0.29022,-0.01280,-0.15323,0.01494,0.45826,0.23326,-0.28902,-0.09450,0.13120,-0.31318,-0.83152,-0.45875,0.00685,-1.75122,-4.64964,0.80960
-0.09279,1.67959,-0.63233,-0.29491,-0.01108,-0.15391,-0.01220,0.44282,0.25831,-0.50194,0.30519,-0.19910,-0.31246,-0.83256,-0.45730,0.00992,-3.26194,-3.85710,1.86478
-0.09711,1.67965,-0.63475,-0.29858,-0.00812,-0.15536,0.00052,0.48593,0.27900,-0.39844,0.37132,-0.09657,-0.31244,-0.83312,-0.45615,0.01476,0.36175,2.85280,2.39979
-0.10179,1.68010,-0.63705,-0.30732,0.00065,-0.15390,0.01926,0.52354,0.31619,-0.46513,0.57131,0.29407,-0.31200,-0.83371,-0.45516,0.02017,1.71763,3.07338,1.85101
-0.10648,1.68066,-0.63914,-0.31423,0.00969,-0.15014,0.03108,0.50631,0.35992,-0.48357,0.75884,0.36402,-0.31052,-0.83450,-0.45451,0.02451,-0.16541,-1.67082,2.88671
-0.11126,1.68138,-0.64103,-0.32117,0.01926,-0.14448,0.05804,0.48931,0.41431,-0.41713,0.60243,0.39049,-0.30847,-0.83522,-0.45431,0.02924,2.64619,-0.32958,3.98291
-0.11596,1.68228,-0.64297,-0.32527,0.03007,-0.14071,0.05348,0.48879,0.44892,-0.31635,0.75182,0.17917,-0.30671,-0.83620,-0.45338,0.03386,-1.06414,-1.70261,2.39332
-0.12062,1.68328,-0.64497,-0.32785,0.04007,-0.13834,0.05911,0.53131,0.46365,-0.07306,0.62234,0.14589,-0.30581,-0.83686,-0.45230,0.03950,1.49986,3.47046,1.48222
-0.12510,1.68432,-0.64696,-0.32644,0.04826,-0.13747,0.04174,0.57820,0.43858,0.22927,0.66591,0.17818,-0.30598,-0.83747,-0.45057,0.04483,-1.34125,3.44608,-0.83896
-0.12946,1.68547,-0.64873,-0.32329,0.05650,-0.13262,0.01337,0.59368,0.39927,0.34375,0.45970,0.60342,-0.30643,-0.83809,-0.44863,0.04929,-1.98388,2.79868,-2.76281
-0.13364,1.68668,-0.65019,-0.31749,0.06385,-0.12260,-0.05999,0.53437,0.33539,0.43944,0.44031,0.77766,-0.30681,-0.83917,-0.44614,0.05115,-4.48637,-3.49245,-3.96470
-0.13781,1.68787,-0.65138,-0.31323,0.06917,-0.11216,-0.09688,0.49421,0.29751,0.27031,0.51932,0.97849,-0.30697,-0.84009,-0.44403,0.05339,-4.03813,-3.97782,-3.15692
-0.14198,1.68924,-0.65224,-0.31080,0.07609,-0.09627,-0.07075,0.48306,0.27931,0.00299,0.65401,1.25167,-0.30705,-0.84037,-0.44304,0.05667,-0.22065,-2.32931,-1.61949
-0.14621,1.69075,-0.65252,-0.30977,0.08389,-0.07353,0.05462,0.56376,0.25969,0.09012,0.42540,1.57804,-0.30825,-0.83908,-0.44379,0.06299,7.55951,4.76455,-1.15463
-0.15039,1.69218,-0.65250,-0.30788,0.08860,-0.05287,0.14938,0.60126,0.23555,0.25317,0.30445,2.01604,-0.30939,-0.83770,-0.44477,0.06867,8.31342,5.18691,-2.35376
-0.15457,1.69359,-0.65197,-0.30694,0.09256,-0.02392,0.22223,0.55881,0.22304,0.04735,0.27824,2.36828,-0.30949,-0.83643,-0.44645,0.07273,6.27672,-0.57675,-2.00158
-0.15899,1.69521,-0.65094,-0.31029,0.09919,0.00640,0.23605,0.43930,0.25789,-0.42295,0.60028,2.20748,-0.30741,-0.83627,-0.44783,0.07480,2.28419,-8.03954,1.10379
-0.16380,1.69713,-0.64937,-0.31901,0.10874,0.03551,0.24365,0.36363,0.33200,-0.81468,0.76857,2.04655,-0.30432,-0.83658,-0.44885,0.07781,-0.01068,-6.65516,5.11193
-0.16886,1.69917,-0.64763,-0.32981,0.11821,0.06118,0.21133,0.26144,0.42055,-0.68419,0.51743,1.76392,-0.29993,-0.83773,-0.44930,0.07991,-0.10129,-5.48307,6.16039
-0.17397,1.70125,-0.64579,-0.33889,0.12621,0.08249,0.15209,0.17993,0.48979,-0.73127,0.56167,1.47098,-0.29546,-0.83940,-0.44885,0.08151,-5.41887,-8.39587,5.77559
-0.17923,1.70340,-0.64349,-0.34814,0.13326,0.10573,0.12558,0.14142,0.53294,-0.61807,0.38336,1.43900,-0.29154,-0.84062,-0.44870,0.08380,-1.12874,-2.56620,3.37954
-0.18452,1.70552,-0.64132,-0.35567,0.13878,0.12365,0.14343,0.16974,0.55008,-0.64502,0.43279,1.14030,-0.28865,-0.84109,-0.44898,0.08755,0.08505,-0.30781,1.66333
-0.18983,1.70768,-0.63913,-0.36165,0.14327,0.13624,0.14799,0.21039,0.55916,-0.37806,0.23483,1.12386,-0.28617,-0.84154,-0.44889,0.09174,1.65878,5.64390,0.82386
-0.19531,1.70986,-0.63645,-0.36887,0.14702,0.15466,0.12446,0.21484,0.53955,-0.40086,0.21176,1.34312,-0.28402,-0.84222,-0.44837,0.09466,-2.45079,-0.70836,-0.01124
-0.20074,1.71197,-0.63349,-0.37312,0.14878,0.17506,0.14201,0.19058,0.49122,-0.30274,0.17924,1.61693,-0.28224,-0.84221,-0.44905,0.09682,0.88822,-0.84552,-3.03260
-0.20621,1.71414,-0.63011,-0.37729,0.15118,0.19731,0.23445,0.25402,0.42353,-0.45721,0.32923,1.62213,-0.28204,-0.84071,-0.45104,0.10112,4.87155,1.55751,-4.26596
-0.21185,1.71636,-0.62650,-0.38256,0.15426,0.22089,0.37864,0.36226,0.34876,-0.37376,0.22272,1.82267,-0.28303,-0.83782,-0.45436,0.10725,9.74508,9.14888,-5.61079
-0.21766,1.71861,-0.62270,-0.38936,0.15716,0.24335,0.50289,0.45007,0.27358,-0.65973,0.32686,1.55919,-0.28444,-0.83452,-0.45806,0.11336,8.83755,5.47752,-5.29252
-0.22370,1.72105,-0.61851,-0.39896,0.16228,0.26355,0.67749,0.64369,0.22380,-0.75248,0.47076,1.41382,-0.28708,-0.82972,-0.46256,0.12328,11.82880,13.48228,-3.95550
-0.22995,1.72372,-0.61425,-0.40906,0.17004,0.28067,0.80538,0.80800,0.19706,-0.54140,0.59859,1.26827,-0.28964,-0.82486,-0.46672,0.13375,9.96211,13.27015,-1.91821
-0.23634,1.72658,-0.60974,-0.41911,0.17928,0.29791,0.86897,0.87902,0.19804,-0.66527,0.60945,1.43825,-0.29110,-0.82069,-0.47042,0.14294,5.77181,7.33303,-0.75667
-0.24288,1.72961,-0.60465,-0.43032,0.18882,0.31760,0.90804,0.89353,0.23450,-0.77247,0.69834,1.55312,-0.29115,-0.81702,-0.47407,0.15154,3.28044,1.60224,1.99903
-0.24978,1.73270,-0.59927,-0.44387,0.19712,0.33987,0.91953,0.82789,0.31296,-0.91478,0.39819,1.81450,-0.28906,-0.81425,-0.47771,0.15887,1.84610,-2.29832,4.35753
-0.25705,1.73566,-0.59349,-0.46052,0.20130,0.36356,0.89453,0.68169,0.42984,-1.21071,0.21723,1.68665,-0.28438,-0.81282,-0.48109,0.16432,-1.34144,-11.12703,7.18426
-0.26452,1.73848,-0.58731,-0.47779,0.20167,0.38605,0.82111,0.51786,0.56873,-0.94712,-0.21713,1.21620,-0.27806,-0.81267,-0.48345,0.16889,-2.44380,-9.84574,9.07232
-0.27190,1.74118,-0.58121,-0.48975,0.19959,0.40058,0.72865,0.43749,0.66220,-0.88551,-0.13686,0.90329,-0.27275,-0.81276,-0.48455,0.17391,-7.34314,-9.85761,7.12962
-0.27915,1.74378,-0.57498,-0.49646,0.19633,0.41381,0.68899,0.47307,0.69895,-0.47957,-0.20682,1.01506,-0.26932,-0.81170,-0.48566,0.18094,-3.87594,-0.01374,4.02803
-0.28633,1.74629,-0.56845,-0.50057,0.19233,0.42855,0.72747,0.57991,0.70186,-0.43069,-0.36995,1.36232,-0.26729,-0.80903,-0.48776,0.19006,0.50303,7.25319,0.91685
-0.29377,1.74838,-0.56152,-0.50637,0.18209,0.45049,0.76138,0.65094,0.70151,-0.12392,-0.94941,1.42316,-0.26517,-0.80616,-0.49006,0.19908,3.14069,7.11396,0.19975
-0.30115,1.75025,-0.55456,-0.51032,0.17049,0.46616,0.73714,0.63521,0.69828,-0.32516,-1.14133,1.35523,-0.26239,-0.80434,-0.49172,0.20592,-1.85069,-1.04531,-0.62472
-0.30866,1.75150,-0.54723,-0.51561,0.15144,0.48333,0.68968,0.58812,0.71363,-0.35918,-1.57496,1.19295,-0.25883,-0.80321,-0.49287,0.21198,-2.37051,-2.62152,0.97850
-0.31629,1.75213,-0.53984,-0.52055,0.12679,0.49898,0.64112,0.54214,0.73654,-0.13817,-2.04251,1.04758,-0.25489,-0.80239,-0.49371,0.21784,-2.77681,-3.36392,1.89575
-0.32367,1.75211,-0.53263,-0.51981,0.09671,0.50736,0.48269,0.38383,0.73376,0.61552,-2.55077,0.26029,-0.25039,-0.80385,-0.49283,0.21966,-7.41879,-8.93066,0.58167
-0.33023,1.75153,-0.52566,-0.50612,0.06418,0.50813,0.26867,0.28733,0.65821,1.16278,-2.27586,0.04990,-0.24848,-0.80611,-0.48990,0.22011,-17.11724,-12.58311,-3.73795
-0.33598,1.74987,-0.51848,-0.48063,0.02025,0.51358,0.17297,0.33104,0.50417,1.74217,-3.07317,0.46444,-0.25011,-0.80591,-0.48828,0.22258,-6.27146,2.96167,-9.00623
-0.34181,1.74831,-0.51118,-0.46389,-0.01086,0.51812,0.11154,0.32739,0.40833,1.74909,-3.17235,0.54209,-0.25073,-0.80590,-0.48708,0.22454,-5.93827,1.08595,-10.11774
-0.34694,1.74500,-0.50353,-0.44048,-0.06380,0.52740,0.03023,0.32753,0.30949,1.21712,-3.50926,0.60245,-0.25229,-0.80619,-0.48519,0.22582,-5.72000,-0.84474,-7.45858
-0.35228,1.74113,-0.49586,-0.42543,-0.11452,0.53493,-0.03666,0.31872,0.28179,1.02290,-3.69171,0.53385,-0.25259,-0.80693,-0.48294,0.22765,-5.30145,-0.03477,-2.67344
-0.35753,1.73652,-0.48819,-0.41259,-0.16572,0.54041,-0.08210,0.32053,0.25857,0.88694,-3.59149,0.25743,-0.25302,-0.80751,-0.48079,0.22969,-3.16394,0.14059,-1.26264
-0.36264,1.73114,-0.48075,-0.40066,-0.21843,0.53886,-0.15597,0.29369,0.21019,0.72683,-2.95085,-0.54423,-0.25396,-0.80858,-0.47816,0.23036,-4.38620,-2.34838,-2.31245
-0.36770,1.72610,-0.47388,-0.39036,-0.25326,0.52782,-0.22417,0.33629,0.12569,0.55346,-1.99841,-1.04610,-0.25693,-0.80907,-0.47507,0.23173,-6.02295,1.39352,-5.23900
-0.37270,1.72136,-0.46755,-0.38207,-0.27408,0.50995,-0.23244,0.51086,0.02686,0.29099,-0.86743,-1.66405,-0.26238,-0.80775,-0.47216,0.23614,-1.84148,8.96118,-7.73765
-0.37785,1.71714,-0.46187,-0.37812,-0.28082,0.48393,-0.22178,0.76462,-0.02752,0.14228,-0.11435,-2.06024,-0.26892,-0.80540,-0.46858,0.24382,1.10179,18.62692,-5.17369
-0.38318,1.71336,-0.45658,-0.37839,-0.27827,0.45811,-0.23556,0.95153,-0.03080,-0.05165,0.44692,-2.25931,-0.27467,-0.80355,-0.46418,0.25180,-0.56454,16.43639,-1.72155
-0.38867,1.71005,-0.45195,-0.38128,-0.26849,0.42775,-0.27344,1.12166,0.00767,-0.23525,0.94603,-2.00858,-0.28004,-0.80207,-0.45851,0.26083,-3.01440,13.23308,2.18140
-0.39413,1.70725,-0.44736,-0.38397,-0.25211,0.40382,-0.25738,1.27891,0.05696,0.15706,1.07814,-0.99700,-0.28493,-0.79983,-0.45344,0.27108,0.73383,12.18636,4.00617
-0.39942,1.70449,-0.44230,-0.38310,-0.23888,0.39340,-0.24590,1.25052,0.07589,0.38244,1.18469,-0.79747,-0.28823,-0.79851,-0.44971,0.27761,2.16810,2.30457,1.14037
-0.40444,1.70240,-0.43751,-0.37790,-0.21774,0.38129,-0.27395,1.17834,0.08646,0.40593,1.77310,-0.91216,-0.29115,-0.79808,-0.44554,0.28248,-1.69737,-6.87112,1.52823
-0.40922,1.70094,-0.43283,-0.36974,-0.19127,0.36942,-0.29552,1.19574,0.10734,0.61272,2.04390,-0.83327,-0.29474,-0.79708,-0.44063,0.28921,-1.24228,0.21183,1.07849
-0.41377,1.70009,-0.42807,-0.35952,-0.16090,0.36178,-0.29399,1.22936,0.12500,0.77351,2.35126,-0.30774,-0.29841,-0.79560,-0.43589,0.29660,-0.72137,2.39164,1.30515
-0.41855,1.69985,-0.42323,-0.34908,-0.12742,0.36072,-0.25029,1.25328,0.13767,0.88374,2.50868,0.12639,-0.30173,-0.79349,-0.43212,0.30432,2.36973,2.88539,0.75987
-0.42583,1.70032,-0.41915,-0.34534,-0.09188,0.36631,-0.19323,1.21747,0.17160,0.78036,2.72486,0.86115,-0.30353,-0.79170,-0.42917,0.31127,3.44318,-1.74637,1.36943
-0.43302,1.70128,-0.41413,-0.34228,-0.05626,0.38540,-0.03927,1.12999,0.20605,0.80801,2.59543,1.87771,-0.30338,-0.78908,-0.42928,0.31786,9.39152,-4.51458,1.88431
-0.43838,1.70224,-0.40758,-0.33573,-0.02793,0.41163,0.15965,1.01073,0.23837,0.82636,2.41136,2.48005,-0.30159,-0.78590,-0.43179,0.32397,14.60177,-9.49152,1.89337
-0.44239,1.70363,-0.39942,-0.32424,0.00213,0.44809,0.43655,0.86989,0.26147,0.84983,2.10163,2.45111,-0.29792,-0.78146,-0.43784,0.32994,20.05054,-9.85925,0.57684
-0.44616,1.70552,-0.39099,-0.31112,0.03412,0.48072,0.69459,0.73482,0.28912,0.67059,1.87131,1.53956,-0.29322,-0.77670,-0.44498,0.33579,17.51566,-8.83269,0.71691
-0.44991,1.70771,-0.38322,-0.30113,0.06379,0.49705,0.87131,0.65310,0.34527,0.64331,1.63464,0.43276,-0.28828,-0.77225,-0.45083,0.34246,12.50950,-4.36682,2.69658
-0.45374,1.70969,-0.37605,-0.29465,0.08299,0.49861,0.92246,0.60213,0.39290,0.41823,1.50740,-0.12928,-0.28411,-0.76884,-0.45454,0.34865,6.21129,-6.19269,3.69229
-0.45749,1.71180,-0.36906,-0.28874,0.09913,0.49708,0.99111,0.59154,0.43498,0.46677,1.22711,-0.25938,-0.27981,-0.76472,-0.45859,0.35582,5.20910,-1.59214,3.41871
-0.46088,1.71428,-0.36236,-0.27808,0.11788,0.49046,1.06908,0.54637,0.47058,0.68700,0.92942,-0.56194,-0.27467,-0.76052,-0.46346,0.36245,5.06951,-1.98263,1.64551
-0.46427,1.71668,-0.35586,-0.27028,0.13102,0.48156,1.09407,0.46915,0.50509,0.56263,0.95363,-0.89451,-0.26920,-0.75727,-0.46773,0.36783,2.29052,-5.39086,2.00198
-0.46761,1.71920,-0.34966,-0.26349,0.14310,0.47050,1.09026,0.42487,0.54577,0.50629,1.05477,-0.95537,-0.26375,-0.75429,-0.47119,0.37346,0.16933,-6.01731,2.51805
-0.47064,1.72198,-0.34344,-0.25357,0.15595,0.46264,1.15032,0.45474,0.56398,0.69877,0.92482,-0.28309,-0.25877,-0.74956,-0.47554,0.38085,1.76542,1.42067,2.31605
-0.47331,1.72478,-0.33675,-0.24030,0.16615,0.46370,1.28744,0.48554,0.56490,1.02739,0.47599,0.28085,-0.25323,-0.74318,-0.48193,0.38898,8.88821,4.19171,0.07947
-0.47610,1.72732,-0.32986,-0.23176,0.16976,0.46907,1.38247,0.40116,0.56702,1.03209,0.27108,0.61608,-0.24615,-0.73803,-0.48897,0.39450,8.96221,-2.76038,-0.45724
-0.47852,1.72990,-0.32262,-0.21894,0.17255,0.47958,1.51912,0.16736,0.58026,0.83561,0.14347,0.64318,-0.23553,-0.73382,-0.49864,0.39672,9.71272,-14.26928,-0.85896
-0.48089,1.73254,-0.31516,-0.20786,0.17549,0.49158,1.65983,-0.08949,0.61095,0.53548,0.22003,0.70252,-0.22301,-0.72994,-0.50913,0.39779,9.43110,-15.74032,-0.28733
-0.48346,1.73528,-0.30785,-0.20266,0.17994,0.49869,1.74240,-0.27226,0.65312,0.28207,0.36752,0.54397,-0.21042,-0.72625,-0.51861,0.39915,8.70930,-16.24169,1.27809
-0.48600,1.73823,-0.30023,-0.19825,0.18655,0.50888,1.84329,-0.44615,0.71032,0.24648,0.53468,0.88733,-0.19618,-0.72239,-0.52866,0.40023,6.59526,-12.81405,2.82517
-0.48856,1.74127,-0.29204,-0.19534,0.19310,0.52606,2.00501,-0.62621,0.78492,0.02819,0.25836,0.91969,-0.17962,-0.71764,-0.54018,0.40116,9.94756,-10.81517,3.24039
-0.49116,1.74415,-0.28401,-0.19333,0.19607,0.53777,2.13311,-0.66999,0.84206,0.16294,0.31049,1.01502,-0.16436,-0.71151,-0.55089,0.40405,9.22146,-5.37625,4.72631
-0.49334,1.74723,-0.27552,-0.18838,0.20049,0.55090,2.25654,-0.73734,0.89946,0.47285,0.26403,0.74004,-0.14784,-0.70510,-0.56197,0.40640,9.51712,-5.27148,4.65217
-0.49507,1.75034,-0.26700,-0.17690,0.20437,0.56083,2.37867,-0.78833,0.93679,1.00571,0.16427,0.37459,-0.13113,-0.69785,-0.57339,0.40869,8.02058,-1.14540,3.57154
-0.49663,1.75337,-0.25887,-0.16306,0.20676,0.56402,2.43991,-0.95371,0.91960,1.14536,-0.00480,-0.05003,-0.11371,-0.69202,-0.58502,0.40735,5.40667,-10.16446,-1.65220
-0.49792,1.75626,-0.25112,-0.14850,0.20606,0.55979,2.47128,-1.12101,0.86839,1.39398,-0.16946,-0.84352,-0.09642,-0.68647,-0.59674,0.40419,5.11097,-13.11111,-4.76845
-0.49856,1.75916,-0.24410,-0.12671,0.20576,0.54374,2.45094,-1.24720,0.77470,1.41530,-0.01583,-1.54053,-0.08070,-0.68123,-0.60799,0.39969,0.41857,-10.85913,-8.81307
-0.49833,1.76197,-0.23812,-0.09420,0.20426,0.51395,2.45737,-1.08057,0.71470,2.23400,-0.20820,-2.36738,-0.06875,-0.67254,-0.61841,0.40067,0.35655,7.68561,-2.85616
-0.49754,1.76476,-0.23265,-0.05991,0.20293,0.48273,2.43278,-0.86553,0.65760,3.28000,-0.10561,-2.95734,-0.05895,-0.66307,-0.62795,0.40318,-0.92718,17.91519,-0.50766
-0.49544,1.76775,-0.22836,-0.01237,0.20541,0.43912,2.32449,-0.69032,0.53664,3.59244,0.33207,-3.42497,-0.05211,-0.65470,-0.63654,0.40430,-6.70201,15.21618,-5.91129
-0.49311,1.77151,-0.22515,0.03958,0.21944,0.38806,2.15079,-0.44842,0.46227,2.97066,1.30197,-2.89610,-0.04787,-0.64681,-0.64292,0.40744,-11.38320,14.72463,-4.83702
-0.49162,1.77562,-0.22137,0.06984,0.23535,0.35933,2.07615,-0.28884,0.48899,2.41155,1.40832,-1.98887,-0.04093,-0.63814,-0.64933,0.41167,-9.01412,15.46769,1.64357
-0.49031,1.77993,-0.21736,0.08867,0.25044,0.34235,2.06044,-0.34016,0.51590,1.68068,1.22075,-0.80045,-0.03027,-0.63057,-0.65660,0.41271,-3.39635,5.28224,4.31046
-0.48862,1.78428,-0.21266,0.09548,0.26425,0.33952,2.16899,-0.70684,0.54948,-0.22540,0.70577,0.32920,-0.01171,-0.62441,-0.66630,0.40745,6.02103,-20.62228,-1.26686
-0.48777,1.78821,-0.20726,0.08013,0.26836,0.34789,2.32105,-1.28582,0.60210,-1.64723,-0.04143,0.81211,0.01382,-0.61992,-0.67672,0.39692,11.52129,-35.21179,-0.50061
-0.48850,1.79154,-0.20150,0.04168,0.26144,0.36029,2.54282,-2.07661,0.66565,-3.03995,-0.66505,0.62606,0.04762,-0.61655,-0.68796,0.37987,15.53097,-49.43921,-2.36827
-0.49127,1.79480,-0.19618,-0.00579,0.25234,0.36565,2.71811,-2.75356,0.73348,-3.42894,-0.65351,-0.02392,0.08318,-0.61282,-0.69773,0.36153,15.41212,-49.78004,-0.41951
-0.49461,1.79816,-0.19130,-0.05031,0.24691,0.36277,2.87349,-3.02006,0.97808,-3.73736,-0.22435,-0.57206,0.11780,-0.60520,-0.70490,0.35067,11.61313,-32.90019,5.89095
-0.49798,1.80155,-0.18682,-0.08879,0.24451,0.35366,3.00496,-2.93099,1.41314,-2.51486,-0.18738,-0.80955,0.15121,-0.59312,-0.70916,0.34992,3.61004,-1.09446,32.18453
-0.50153,1.80493,-0.18286,-0.11881,0.24115,0.33756,3.14465,-2.88215,1.75881,-1.18703,-0.49240,-1.48777,0.18537,-0.57929,-0.71303,0.34880,4.49600,2.53124,31.40048
-0.50477,1.80796,-0.17947,-0.13639,0.23297,0.31617,3.29023,-2.98591,1.86161,-0.73903,-1.07189,-1.99042,0.21970,-0.56552,-0.71793,0.34130,7.99946,-6.88783,14.21034
-0.50816,1.80996,-0.17778,-0.15338,0.20942,0.27087,3.55950,-3.29838,1.88343,-0.66609,-1.76448,-3.53770,0.25893,-0.54974,-0.72365,0.32724,17.17051,-14.54082,3.02489
-0.51167,1.81152,-0.17779,-0.17116,0.18402,0.20574,3.83378,-3.78894,1.80772,-1.25811,-1.78146,-5.77705,0.30169,-0.53404,-0.72823,0.30571,24.92943,-28.45879,-7.49888
-0.51522,1.81331,-0.17956,-0.18603,0.16961,0.12755,3.99320,-4.21395,1.84120,-1.19498,-0.63856,-7.50435,0.34608,-0.51805,-0.72867,0.28443,21.85731,-33.66620,-5.25969
-0.51805,1.81615,-0.18463,-0.18969,0.17818,0.01391,3.98468,-4.68367,1.87462,0.22200,1.11716,-9.20105,0.39177,-0.50469,-0.72368,0.26093,8.84634,-34.95490,-3.41512
-0.51738,1.81966,-0.19320,-0.16160,0.20285,-0.13430,3.77010,-5.05550,2.09741,2.39250,1.97819,-9.85775,0.43792,-0.49302,-0.71152,0.24269,-11.37259,-27.70923,6.02205
-0.51499,1.82355,-0.20272,-0.10495,0.22583,-0.26825,3.48144,-5.26534,2.38764,4.56267,1.43837,-9.52898,0.48220,-0.48091,-0.69552,0.22906,-21.52979,-22.83631,6.32358
-0.51217,1.82764,-0.21316,-0.03666,0.24296,-0.38228,3.39706,-5.49705,2.47862,6.86377,1.65849,-9.32386,0.52589,-0.46618,-0.67970,0.21006,-15.24869,-21.40695,7.15889
-0.50555,1.83286,-0.22764,0.08788,0.27493,-0.53517,3.30241,-5.84795,2.60310,9.46079,2.55322,-9.57267,0.57192,-0.45098,-0.65856,0.18925,-4.49218,-22.67051,1.57051
-0.49672,1.83910,-0.24178,0.21893,0.31643,-0.64658,3.32909,-6.14247,2.52247,13.52364,4.61857,-8.71990,0.61494,-0.43458,-0.63754,0.16289,2.16837,-25.43111,-2.41708
-0.47914,1.84942,-0.25838,0.46687,0.41791,-0.77337,3.37472,-6.23502,1.99183,17.87287,7.91697,-7.17345,0.64775,-0.42273,-0.62066,0.12847,14.10885,-0.48538,-27.90595
-0.45542,1.86328,-0.27533,0.76919,0.55929,-0.87984,3.14108,-6.24932,1.53860,19.92996,9.91918,-7.06473,0.67617,-0.41586,-0.60026,0.09775,9.00556,5.84952,-34.77419
-0.43235,1.87721,-0.29082,0.98133,0.66484,-0.93440,2.57878,-6.25674,1.49242,22.05341,11.55260,-5.30580,0.70548,-0.41131,-0.57166,0.07954,-31.24571,0.55146,-25.48158
-0.39676,1.89852,-0.30711,1.35271,0.86957,-0.98757,1.97082,-6.43200,1.04933,25.21779,14.20195,-1.04387,0.73030,-0.41730,-0.53803,0.05525,-29.51677,-10.05847,-40.33236
-0.35343,1.92507,-0.31929,1.78071,1.12320,-0.95509,1.51344,-6.29398,0.40489,29.11094,18.23118,6.56717,0.74649,-0.42667,-0.50974,0.02951,-23.04130,4.36340,-44.06811
-0.31194,1.95230,-0.32804,2.06632,1.32241,-0.87519,1.64664,-5.94636,-0.37830,29.95476,21.69743,10.62757,0.75516,-0.43244,-0.49262,-0.00708,16.94836,28.90143,-54.48787
-0.25481,1.99338,-0.32762,2.54284,1.70562,-0.65741,1.26748,-5.09955,-1.86200,31.12829,26.59811,16.10371,0.74155,-0.46324,-0.48350,-0.04165,22.75498,54.85321,-82.48675
-0.19022,2.04296,-0.31891,3.04848,2.15626,-0.33959,0.58163,-3.94970,-4.12738,35.27452,29.72100,22.99915,0.70355,-0.52074,-0.47734,-0.07746,0.86729,80.40055,-127.61890
-0.12700,2.09012,-0.30956,3.40178,2.44875,-0.09605,0.19669,-3.00555,-6.05723,38.25392,28.15451,25.01840,0.65602,-0.57868,-0.47003,-0.11764,33.48590,81.33022,-177.42650
-0.03957,2.14698,-0.28572,4.07287,2.82618,0.32993,-0.44327,-1.34410,-9.30307,47.90491,18.38784,28.64821,0.55553,-0.66940,-0.46600,-0.16163,28.66701,104.57080,-201.11870
0.06409,2.19550,-0.25518,4.88269,2.97661,0.78409,-0.10792,-0.12387,-12.39742,56.82391,-2.83070,30.42101,0.43310,-0.74323,-0.45740,-0.22542,55.88843,45.40078,-207.16980
0.17556,2.22639,-0.22323,5.63403,2.78928,1.15073,0.79631,1.34569,-14.77557,66.05482,-29.33565,30.71552,0.29055,-0.79173,-0.45581,-0.28458,101.60450,22.34507,-190.29410
0.30673,2.22872,-0.18287,6.51685,2.15624,1.56168,1.97807,3.34616,-16.67377,59.43671,-60.54466,26.38518,0.12023,-0.81601,-0.46190,-0.32609,160.13320,37.80940,-167.73090
0.44701,2.18659,-0.14224,7.35072,0.89726,1.88199,2.99511,5.90870,-18.07480,41.51911,-95.92550,11.17294,-0.06844,-0.81794,-0.46279,-0.33483,137.50270,37.39943,-128.33690
0.57072,2.12515,-0.11103,7.70889,-0.38033,1.96678,3.78986,8.07447,-18.37354,15.45170,-114.61460,2.29153,-0.24091,-0.79656,-0.45560,-0.31603,180.29350,47.76357,-82.23907
0.67419,2.00813,-0.08591,7.61025,-2.30888,1.91687,6.35134,10.02784,-17.17663,-27.55380,-121.37000,-7.22652,-0.39468,-0.72935,-0.48853,-0.27131,209.64330,-64.50236,-42.46789
0.74762,1.88384,-0.07043,7.02130,-3.91327,1.71568,8.53214,9.51982,-16.12255,-55.57751,-106.86700,-19.58926,-0.51035,-0.63989,-0.51310,-0.25848,78.71162,-165.86740,-52.75821
0.79418,1.75266,-0.06531,6.11647,-5.24740,1.38535,10.76927,9.45550,-14.85993,-73.97689,-84.57192,-29.06713,-0.61456,-0.53282,-0.53934,-0.21801,74.21039,-144.92110,-51.31487
0.81547,1.62259,-0.07035,4.99718,-6.23850,0.96069,12.65134,9.04077,-13.80693,-85.94133,-56.44263,-29.54604,-0.70039,-0.41144,-0.55783,-0.17030,84.06409,-128.78850,-61.27011
0.82331,1.50611,-0.07576,3.93676,-6.74369,0.64004,13.70580,7.42709,-12.84946,-89.17471,-29.98064,-21.19814,-0.75148,-0.28845,-0.57618,-0.14171,7.66398,-150.40090,-70.36087
0.79745,1.39993,-0.08224,2.55527,-6.94370,0.38227,12.48985,4.01543,-11.88090,-80.23143,-0.76789,-7.56378,-0.75563,-0.19863,-0.60050,-0.17018,-173.64130,-126.26740,-44.36949
0.77367,1.30999,-0.08048,1.52355,-6.81801,0.32777,10.08494,1.46760,-11.07436,-68.10258,15.85068,0.20166,-0.75083,-0.13767,-0.60916,-0.21501,-260.15190,-59.19543,-26.33537
0.75132,1.22801,-0.07418,0.78008,-6.59329,0.36294,7.39490,0.15259,-10.60410,-59.41391,20.66330,5.51464,-0.74872,-0.09337,-0.59957,-0.26687,-244.48130,-10.07078,30.40323
0.71399,1.15985,-0.06174,-0.03954,-6.18088,0.49494,3.50865,-0.51475,-10.36055,-43.41071,30.45424,10.83352,-0.73995,-0.08197,-0.56712,-0.35232,-237.65420,123.00860,6.79493
0.68318,1.09698,-0.04600,-0.56113,-5.77691,0.65275,1.26415,-1.05689,-9.61593,-30.87750,30.43465,11.29962,-0.72462,-0.06487,-0.54807,-0.41272,-172.73830,62.98350,34.97252
0.65635,1.03722,-0.03001,-0.88454,-5.42828,0.77387,-0.21201,-1.28989,-8.78060,-24.14062,30.15199,8.21830,-0.70877,-0.05035,-0.53091,-0.46178,-137.64270,47.24502,56.34533
0.62661,0.98527,-0.01451,-1.17534,-5.03185,0.85280,-1.28152,-1.23639,-7.90454,-18.31431,28.13285,2.56265,-0.69392,-0.04194,-0.51262,-0.50393,-83.41199,47.13091,55.84043
0.59600,0.93865,-0.00240,-1.41639,-4.63312,0.85548,-1.71622,-0.75516,-7.01016,-13.18328,24.38036,-2.06197,-0.68885,-0.03581,-0.49074,-0.53233,-22.51118,48.20443,50.12278
0.56870,0.88770,0.00812,-1.54304,-4.40591,0.83234,-1.64523,-0.60526,-6.46286,-11.66651,22.43535,-2.54483,-0.68443,-0.01769,-0.47304,-0.55450,7.15306,35.71637,51.92696
0.53566,0.84648,0.01731,-1.73118,-4.07390,0.79132,-1.56912,-0.39585,-5.76011,-12.35226,19.91978,-2.59366,-0.68105,-0.00672,-0.45815,-0.57116,10.67199,7.68371,49.05635
0.50013,0.80771,0.02590,-1.92185,-3.76790,0.74655,-1.67839,0.08130,-5.42691,-12.47474,18.24302,-3.18530,-0.67921,0.00161,-0.43222,-0.59318,2.74913,35.01355,23.56483
0.46316,0.76967,0.03372,-2.09535,-3.51789,0.69969,-1.67827,0.37095,-5.42493,-11.97125,18.40858,-3.67073,-0.67612,0.01746,-0.40323,-0.61641,6.43994,24.33172,-1.11755
0.42451,0.73573,0.04052,-2.25534,-3.25733,0.64549,-1.57279,0.34032,-5.35328,-9.86493,19.01801,-4.36156,-0.67030,0.03706,-0.37995,-0.63637,6.54279,3.89824,1.64517
0.38567,0.70531,0.04626,-2.37821,-2.99928,0.58485,-1.33345,-0.07225,-5.01632,-6.71565,18.64165,-4.45680,-0.66182,0.05955,-0.36911,-0.64977,7.65170,-25.98506,18.05667
0.34772,0.67880,0.05114,-2.45741,-2.73647,0.52509,-1.20034,-0.23613,-4.57079,-5.20072,19.04665,-4.24963,-0.65438,0.07537,-0.35896,-0.66125,5.21769,-25.70803,37.52827
0.31051,0.65609,0.05523,-2.50365,-2.47192,0.46523,-1.13418,0.14992,-4.27645,-2.89447,18.89599,-4.35826,-0.65213,0.08259,-0.33766,-0.67372,9.08634,18.78613,22.93061
0.27410,0.63715,0.05855,-2.52459,-2.20642,0.40614,-0.99875,0.78332,-4.09652,-0.72992,19.29470,-4.31961,-0.65462,0.08524,-0.30842,-0.68489,19.40387,40.81017,10.91876
0.23887,0.61990,0.06146,-2.52226,-1.97981,0.35689,-0.79645,1.44279,-4.00702,0.80344,19.07252,-4.12397,-0.65994,0.08607,-0.27415,-0.69419,25.70886,45.88144,4.92968
0.20456,0.61029,0.06342,-2.50146,-1.67814,0.30123,-0.36002,2.11127,-3.89658,2.20137,19.35448,-3.15115,-0.67156,0.08521,-0.23627,-0.69708,38.58175,43.11578,0.62795
0.17041,0.60300,0.06607,-2.48351,-1.40472,0.26990,-0.02000,2.04226,-3.79998,2.06375,19.83302,-1.74729,-0.67721,0.09503,-0.21008,-0.69873,28.26307,1.15761,4.01612
0.13693,0.59785,0.06940,-2.46177,-1.16312,0.26025,0.03866,1.47721,-3.67727,3.23249,19.83738,0.16348,-0.67474,0.11232,-0.19560,-0.70274,11.79691,-34.33161,6.42576
0.10522,0.59883,0.07399,-2.40926,-0.88231,0.27093,-0.29735,0.51670,-3.49000,5.77054,19.73942,1.14622,-0.66032,0.13563,-0.19500,-0.71243,-35.44796,-62.21404,14.09872
0.07896,0.60543,0.07907,-2.27607,-0.56996,0.28629,-0.75386,-0.02333,-3.06581,9.62199,19.15184,0.64975,-0.64424,0.14815,-0.19692,-0.72404,-39.95953,-36.32171,31.26814
0.05499,0.60994,0.08347,-2.14322,-0.36301,0.29108,-0.84648,0.01714,-2.92284,11.70146,16.52255,0.15879,-0.63605,0.15662,-0.18488,-0.73262,-15.96887,0.54112,16.61149
0.03593,0.61795,0.08767,-1.96450,-0.14750,0.29354,-0.83600,0.06665,-2.72407,13.89636,15.16244,0.16258,-0.63003,0.16347,-0.17408,-0.73894,1.60923,5.07181,12.85070
0.02257,0.62978,0.09209,-1.72929,0.08488,0.29923,-0.86871,0.20993,-2.60841,15.69295,13.97095,0.73657,-0.62346,0.16857,-0.16067,-0.74637,0.48710,7.93642,8.40992
0.01413,0.64309,0.09673,-1.45700,0.29454,0.30735,-0.96849,0.63182,-2.64818,18.19231,12.35705,0.18318,-0.61596,0.16922,-0.13910,-0.75671,-3.97841,22.65702,-2.23893
0.00700,0.65476,0.10071,-1.22895,0.42499,0.30192,-0.98272,1.02282,-2.77425,20.06602,9.49110,-1.15140,-0.60914,0.17015,-0.11364,-0.76621,2.11025,34.34279,-10.80491
0.00666,0.66639,0.10394,-0.94370,0.52085,0.28521,-0.96751,1.39831,-2.54446,21.45423,4.22995,-1.80127,-0.60460,0.16344,-0.09335,-0.77397,7.30628,29.52168,3.22438
0.01297,0.67612,0.10574,-0.60734,0.56253,0.24731,-0.93127,1.45545,-1.86261,21.73117,0.83971,-3.11314,-0.60213,0.15270,-0.08825,-0.77868,7.66187,8.56022,38.22239
0.01916,0.68411,0.10709,-0.35437,0.56500,0.21107,-0.89514,1.41561,-1.24833,21.11657,-0.39045,-2.91272,-0.59982,0.14216,-0.08716,-0.78257,6.66013,-2.02595,50.93906
0.02927,0.69163,0.10799,-0.10346,0.55925,0.17716,-0.89389,1.48006,-0.68458,20.67239,-0.44982,-2.54676,-0.59760,0.12731,-0.08713,-0.78681,6.40513,2.84846,49.63237
0.04959,0.69873,0.10755,0.26486,0.54746,0.12780,-0.83166,1.95667,-0.19130,20.08685,-0.84305,-2.82498,-0.59782,0.10197,-0.08064,-0.79102,6.87184,26.96727,26.58588
0.06704,0.70554,0.10716,0.50170,0.53335,0.09030,-0.77862,2.33133,0.10547,19.69813,-1.47402,-3.58134,-0.59727,0.07795,-0.07178,-0.79501,6.97896,33.27895,19.75232
0.08964,0.71161,0.10507,0.76544,0.51026,0.03354,-0.66415,2.72241,0.48182,18.43700,-1.88987,-4.68237,-0.59867,0.04867,-0.06422,-0.79693,10.26022,31.09562,24.24619
0.11651,0.71687,0.10094,1.04360,0.47861,-0.04580,-0.48736,3.07633,0.95114,16.94195,-1.91115,-5.43449,-0.60198,0.01528,-0.05954,-0.79614,14.82206,25.25800,25.29299
0.14237,0.72247,0.09644,1.23808,0.46051,-0.11216,-0.36126,3.35087,1.28140,15.64976,-1.10889,-5.56080,-0.60426,-0.01779,-0.05438,-0.79473,15.37844,21.69591,27.41466
0.17209,0.72837,0.09010,1.44821,0.45219,-0.19294,-0.26764,3.68185,1.61824,14.61156,-0.07614,-6.02587,-0.60590,-0.05544,-0.04896,-0.79210,10.82440,26.51594,20.40433
0.20502,0.73537,0.08152,1.66657,0.46486,-0.29414,-0.25107,4.02950,2.03755,13.03074,1.51193,-6.80790,-0.60523,-0.09801,-0.04560,-0.78867,4.89541,22.84049,25.27201
0.23694,0.74340,0.07231,1.81541,0.49171,-0.38191,-0.25932,4.29856,2.35281,11.90247,2.92148,-7.93388,-0.60284,-0.14046,-0.04206,-0.78428,4.10256,21.64580,25.27556
0.27227,0.75342,0.05900,1.98660,0.54642,-0.51902,-0.22098,4.66793,2.72880,9.62754,3.98804,-9.37833,-0.59979,-0.18871,-0.03860,-0.77662,3.13844,24.81379,21.75870
0.30730,0.76540,0.04293,2.11599,0.62439,-0.67595,-0.11882,4.98234,3.08460,6.61164,5.98875,-10.45326,-0.59661,-0.23797,-0.03629,-0.76558,9.40493,20.83423,21.63484
0.34050,0.77856,0.02631,2.18171,0.70364,-0.80337,-0.03731,5.19352,3.31760,4.36317,7.45015,-11.03758,-0.59211,-0.28544,-0.03354,-0.75287,8.40574,20.71143,15.80421
0.37186,0.79515,0.00674,2.21526,0.82292,-0.95552,-0.02949,5.44582,3.47082,0.55156,9.71009,-10.72980,-0.58498,-0.33410,-0.02861,-0.73848,6.40121,17.87860,15.08813
0.39817,0.81414,-0.01321,2.19288,0.96011,-1.09767,-0.18152,5.69748,3.42689,-2.74906,10.25769,-10.19474,-0.57385,-0.38078,-0.01798,-0.72483,-13.50019,18.35483,1.43544
0.42187,0.83526,-0.03408,2.12312,1.10531,-1.22809,-0.39617,5.78557,3.42310,-6.02505,10.70289,-9.40653,-0.55913,-0.42490,-0.00888,-0.71186,-15.53097,6.09329,3.74756
0.44463,0.85909,-0.05762,2.01494,1.25443,-1.34798,-0.66452,5.71899,3.44054,-9.17478,10.55518,-8.11890,-0.54088,-0.46566,-0.00134,-0.70043,-16.75487,-4.34224,6.37282
0.46425,0.88459,-0.08218,1.86742,1.39291,-1.44704,-0.88873,5.41787,3.53364,-11.88442,9.18269,-6.63062,-0.52057,-0.50169,0.00078,-0.69088,-11.43386,-20.05453,11.84868
