posX, posY, posZ, velX, velY, velZ, angVelX, angVelY, angVelZ, accX, accY, accZ, rotX, rotY, rotZ, rotW, angAccX, angAccY, angAccZ
0.00910,1.21423,-0.53753,-0.51445,0.40367,-0.22797,1.17393,0.81530,0.25489,0.11705,1.49963,0.21354,-0.30944,-0.89232,-0.09128,-0.31571,10.70962,4.07423,-2.86539
0.00204,1.22112,-0.54070,-0.51329,0.42653,-0.22707,1.03343,0.79698,0.28296,0.13505,1.52337,0.43722,-0.30901,-0.89434,-0.09440,-0.30945,-4.82868,0.54712,0.87130
-0.00509,1.22822,-0.54381,-0.51357,0.44744,-0.22525,0.90559,0.75195,0.33450,-0.15735,2.06121,-0.13694,-0.30738,-0.89635,-0.09730,-0.30431,-15.66195,-5.81036,4.68277
-0.01244,1.23628,-0.54677,-0.51763,0.47933,-0.22155,0.99251,0.76966,0.37245,-0.47873,2.51796,0.05626,-0.30751,-0.89824,-0.10441,-0.29613,2.29882,0.52120,3.52344
-0.02000,1.24504,-0.54966,-0.52454,0.51571,-0.21758,1.21425,0.83335,0.39923,-0.53655,2.63154,0.23567,-0.30920,-0.89991,-0.11514,-0.28514,14.57632,4.35014,1.90402
-0.02763,1.25423,-0.55248,-0.53099,0.55072,-0.21324,1.40246,0.86488,0.40693,-0.48556,2.32025,0.53382,-0.31129,-0.90104,-0.12644,-0.27431,15.75159,4.21804,0.28243
-0.03535,1.26366,-0.55514,-0.53701,0.58111,-0.20758,1.50986,0.85470,0.38459,-0.44144,2.07769,0.40138,-0.31359,-0.90157,-0.13681,-0.26479,7.14124,-0.22515,-1.25564
-0.04303,1.27321,-0.55769,-0.54068,0.60600,-0.20148,1.64256,0.86983,0.32649,-0.31222,2.10802,0.47158,-0.31743,-0.90149,-0.14796,-0.25428,8.94900,1.21598,-4.35603
-0.05091,1.28357,-0.55991,-0.54711,0.63869,-0.19125,1.77241,0.86835,0.27333,-0.37035,1.93728,1.04591,-0.32171,-0.90083,-0.16002,-0.24372,11.20022,1.99558,-4.73783
-0.05885,1.29412,-0.56195,-0.55290,0.66713,-0.18077,1.66881,0.76003,0.29211,-0.27769,1.69102,0.51382,-0.32234,-0.90075,-0.16818,-0.23764,-6.19125,-6.84010,0.69058
-0.06675,1.30459,-0.56415,-0.55688,0.68702,-0.17579,1.65779,0.75419,0.29029,-0.51317,1.72415,0.04126,-0.32404,-0.90063,-0.17712,-0.22910,-6.07598,-4.67764,0.53216
-0.07485,1.31567,-0.56623,-0.56353,0.71227,-0.17006,1.78088,0.83756,0.25511,-0.56243,1.93459,0.41490,-0.32791,-0.89994,-0.18838,-0.21703,7.06893,5.82937,-2.06952
-0.08327,1.32740,-0.56798,-0.57370,0.74387,-0.15931,1.96324,0.94613,0.22807,-0.68317,2.12291,0.83084,-0.33246,-0.89873,-0.20148,-0.20287,11.29274,7.38758,-1.80548
-0.09176,1.33923,-0.56959,-0.58271,0.76985,-0.14866,2.08373,1.01709,0.23866,-0.74017,2.23419,1.01844,-0.33593,-0.89749,-0.21436,-0.18899,10.96300,6.42788,-0.65072
-0.10041,1.35148,-0.57096,-0.59195,0.79600,-0.13685,2.13715,1.06504,0.27041,-0.77603,2.10722,1.20852,-0.33839,-0.89636,-0.22645,-0.17535,6.88780,4.64541,2.38232
-0.10942,1.36426,-0.57172,-0.60497,0.82461,-0.11752,2.03964,1.04609,0.36220,-0.52762,1.42070,1.60050,-0.33789,-0.89627,-0.23585,-0.16405,-2.78191,0.68151,5.27177
-0.11817,1.37668,-0.57228,-0.61080,0.84117,-0.09936,1.83171,0.95044,0.45240,-0.34396,0.89827,1.29461,-0.33556,-0.89675,-0.24257,-0.15621,-13.36642,-8.55389,7.06239
-0.12685,1.38889,-0.57276,-0.61391,0.85005,-0.08447,1.71154,0.89950,0.48816,-0.38121,0.63930,0.96966,-0.33436,-0.89668,-0.24975,-0.14765,-13.21418,-7.08712,4.57252
-0.13556,1.40073,-0.57304,-0.61731,0.85736,-0.06494,1.70826,0.95844,0.46072,-0.17757,0.44313,1.02236,-0.33562,-0.89575,-0.25792,-0.13592,-0.63943,3.42785,-1.06105
-0.14421,1.41250,-0.57335,-0.61887,0.86145,-0.05010,1.78600,1.01092,0.41827,-0.15123,0.44528,1.38514,-0.33785,-0.89378,-0.26799,-0.12325,4.08527,5.48446,-2.94788
-0.15293,1.42441,-0.57303,-0.62098,0.86585,-0.02837,1.89331,1.03837,0.37139,-0.13240,0.38119,1.71951,-0.34053,-0.89095,-0.27937,-0.11042,7.40006,3.58323,-3.60029
-0.16175,1.43651,-0.57212,-0.62409,0.87168,-0.00315,2.04466,1.08898,0.32593,-0.38341,0.51308,1.84568,-0.34378,-0.88726,-0.29210,-0.09626,9.09859,2.49636,-3.33629
-0.17078,1.44857,-0.57093,-0.62978,0.87656,0.02228,2.16215,1.13495,0.31189,-0.31763,0.22903,1.87124,-0.34647,-0.88338,-0.30487,-0.08161,10.78394,4.91993,-2.62521
-0.17986,1.46057,-0.56960,-0.63489,0.87765,0.04344,2.14591,1.14815,0.34331,-0.27015,-0.09981,1.52178,-0.34738,-0.88053,-0.31517,-0.06828,1.27511,0.88655,1.79217
-0.18901,1.47246,-0.56778,-0.63951,0.87381,0.06497,2.03992,1.12472,0.38633,-0.22401,-0.48478,1.34201,-0.34718,-0.87846,-0.32336,-0.05659,-5.86739,-1.40715,3.11960
-0.19803,1.48402,-0.56598,-0.64079,0.86488,0.08136,1.88981,1.06679,0.41690,0.04149,-0.75155,1.12575,-0.34651,-0.87679,-0.33016,-0.04660,-9.62183,-4.29110,2.86035
-0.20691,1.49537,-0.56404,-0.63985,0.85371,0.09584,1.75310,1.02204,0.42267,0.00855,-0.81034,0.95065,-0.34618,-0.87506,-0.33625,-0.03704,-10.56815,-4.00816,1.15056
-0.21590,1.50635,-0.56212,-0.64045,0.84127,0.10852,1.63901,0.98695,0.44673,-0.10354,-0.87397,0.81880,-0.34531,-0.87349,-0.34209,-0.02743,-8.10408,-2.99869,1.40914
-0.22506,1.51714,-0.56026,-0.64385,0.82816,0.11714,1.56869,1.01400,0.47344,-0.37438,-1.02417,0.33970,-0.34468,-0.87177,-0.34777,-0.01626,-5.67254,-0.68258,1.90184
-0.23421,1.52779,-0.55854,-0.64650,0.81448,0.12016,1.49146,1.08900,0.49317,-0.14092,-1.27517,0.21603,-0.34450,-0.87021,-0.35218,-0.00386,-5.25812,5.07491,3.03919
-0.24336,1.53785,-0.55647,-0.64746,0.79409,0.12690,1.42592,1.21643,0.47358,-0.03431,-1.18937,0.66375,-0.34580,-0.86829,-0.35552,0.00988,-6.21836,6.69297,0.09072
-0.25237,1.54780,-0.55379,-0.64620,0.77622,0.14287,1.44616,1.30200,0.42016,0.20095,-1.20565,1.50750,-0.34798,-0.86501,-0.36070,0.02371,0.25456,8.02728,-2.69001
-0.26135,1.55773,-0.55056,-0.64528,0.76204,0.16410,1.50581,1.34909,0.37720,0.04167,-1.08939,1.95087,-0.35002,-0.86099,-0.36713,0.03748,2.85546,4.58964,-3.83262
-0.27034,1.56716,-0.54636,-0.64406,0.74359,0.19676,1.61388,1.39583,0.32043,0.19142,-1.26900,2.06580,-0.35266,-0.85576,-0.37497,0.05193,7.30436,3.93448,-3.99557
-0.27928,1.57659,-0.54226,-0.64230,0.72870,0.21977,1.62114,1.37265,0.29625,0.28453,-1.36012,1.95346,-0.35418,-0.85141,-0.38148,0.06434,3.02240,0.99637,-3.43091
-0.28824,1.58558,-0.53782,-0.64204,0.71003,0.24246,1.52439,1.25230,0.31163,0.06183,-1.40476,1.47159,-0.35379,-0.84861,-0.38642,0.07334,-4.26477,-6.99253,0.02460
-0.29723,1.59442,-0.53338,-0.64226,0.69307,0.25922,1.41953,1.15322,0.34732,-0.17917,-1.05109,0.95251,-0.35265,-0.84641,-0.39052,0.08200,-8.88666,-9.45848,2.07740
-0.30627,1.60303,-0.52900,-0.64380,0.67642,0.27100,1.32540,1.08902,0.38955,0.09933,-1.39042,0.65575,-0.35129,-0.84439,-0.39409,0.09105,-4.63551,-3.72464,3.26738
-0.31505,1.61126,-0.52511,-0.64140,0.65848,0.27477,1.17332,1.01716,0.40681,-0.02590,-1.19274,-0.04270,-0.35015,-0.84321,-0.39584,0.09846,-11.36960,-7.66113,2.28440
-0.32363,1.61894,-0.52183,-0.63712,0.63791,0.27120,1.08050,1.12148,0.41114,0.31828,-1.15613,-0.26923,-0.35093,-0.84113,-0.39653,0.11005,-6.15414,5.06290,1.58577
-0.33207,1.62664,-0.51833,-0.63081,0.62102,0.27129,1.07609,1.28464,0.37533,0.37005,-1.02645,0.29709,-0.35343,-0.83746,-0.39798,0.12392,-3.20135,10.94511,-0.84830
-0.34031,1.63426,-0.51421,-0.62169,0.60467,0.27870,1.11754,1.43580,0.31569,0.88171,-1.32705,0.76266,-0.35685,-0.83259,-0.40031,0.13859,3.67111,12.11347,-3.04579
-0.34805,1.64155,-0.50976,-0.60620,0.58697,0.29069,1.12222,1.50463,0.23383,1.43550,-1.26918,1.14463,-0.36069,-0.82763,-0.40249,0.15140,-0.10718,7.39678,-5.31930
-0.35514,1.64860,-0.50467,-0.58278,0.56908,0.31116,1.08231,1.44749,0.19107,1.74516,-0.89886,1.60742,-0.36297,-0.82367,-0.40470,0.16135,-2.37597,-1.76083,-3.56957
-0.36228,1.65600,-0.49922,-0.56588,0.56062,0.33215,1.02649,1.28880,0.24476,1.49402,-0.52724,2.02183,-0.36193,-0.82133,-0.40718,0.16920,-3.60495,-9.11664,1.05012
-0.36922,1.66349,-0.49315,-0.54967,0.55617,0.35856,0.96997,1.06651,0.38621,1.04508,-0.14370,1.75611,-0.35721,-0.82070,-0.40996,0.17545,-4.07199,-18.03603,8.46816
-0.37585,1.67090,-0.48695,-0.53199,0.55098,0.38041,0.96685,0.95250,0.50821,1.34458,-0.52273,1.31623,-0.35250,-0.81944,-0.41297,0.18363,-0.60953,-11.37971,9.87050
-0.38163,1.67779,-0.48087,-0.50283,0.53771,0.39653,1.09750,1.04176,0.46329,2.32420,-1.25329,0.90866,-0.35244,-0.81418,-0.41782,0.19576,6.01412,1.47408,0.97807
-0.38624,1.68390,-0.47495,-0.46060,0.51445,0.40597,1.22826,1.16864,0.30612,3.62143,-2.15871,0.47982,-0.35598,-0.80661,-0.42339,0.20832,11.82687,13.71235,-11.09219
-0.38976,1.68938,-0.46930,-0.41081,0.48597,0.40706,1.16466,1.07715,0.19736,3.97009,-2.28528,0.03782,-0.35787,-0.80217,-0.42699,0.21477,-2.14205,-1.27264,-9.37652
-0.39263,1.69445,-0.46377,-0.36220,0.45653,0.40587,1.07006,0.88401,0.18373,3.42480,-2.08743,-0.19162,-0.35683,-0.79980,-0.43041,0.21850,-7.73661,-13.48064,-3.56560
-0.39493,1.69892,-0.45863,-0.31516,0.42352,0.39784,0.95349,0.63490,0.23242,3.53142,-2.91150,-1.05028,-0.35329,-0.79923,-0.43356,0.22010,-6.51720,-18.10335,3.35939
-0.39611,1.70213,-0.45442,-0.26037,0.37735,0.37554,0.89698,0.57484,0.18312,3.99572,-3.63032,-2.26663,-0.35314,-0.79661,-0.43652,0.22395,-6.63641,-9.03422,-1.86752
-0.39597,1.70395,-0.45144,-0.19617,0.31870,0.33761,0.87996,0.71531,0.05997,4.78411,-4.71126,-3.16185,-0.35718,-0.79149,-0.43862,0.23144,-2.39057,7.00661,-6.56363
-0.39378,1.70369,-0.44977,-0.11096,0.23730,0.28582,0.89988,0.90257,-0.11749,6.02716,-5.60153,-3.26764,-0.36402,-0.78435,-0.44110,0.24024,2.25035,17.56113,-12.00688
-0.39096,1.70249,-0.44865,-0.03472,0.15799,0.23573,0.66561,0.55913,-0.12117,6.13978,-6.33237,-3.83493,-0.36352,-0.78484,-0.44230,0.23716,-10.24689,-12.56715,-4.16510
-0.38770,1.70056,-0.44842,0.02961,0.08657,0.18296,0.30002,0.01173,-0.02907,5.40954,-6.27473,-4.93875,-0.35824,-0.79090,-0.44153,0.22627,-28.10362,-43.50428,5.22000
-0.38293,1.69662,-0.45051,0.10291,-0.00081,0.10426,-0.13318,-0.53137,0.06122,4.97945,-6.39685,-6.45403,-0.35161,-0.80000,-0.43815,0.21070,-31.71574,-42.04085,7.17897
-0.37841,1.69084,-0.45634,0.18023,-0.10245,-0.00998,-0.58630,-0.86422,0.02642,4.57511,-6.32418,-7.90061,-0.34903,-0.80875,-0.43161,0.19449,-30.21680,-25.05848,-0.58113
-0.37582,1.68549,-0.46353,0.22953,-0.17406,-0.10760,-0.85760,-0.91637,-0.10600,4.20856,-5.98912,-8.34594,-0.35109,-0.81398,-0.42530,0.18248,-22.92996,-8.95252,-9.87242
-0.37279,1.67940,-0.47243,0.27116,-0.23813,-0.20700,-1.09262,-0.86600,-0.28018,3.54171,-4.92048,-8.25796,-0.35631,-0.81816,-0.41754,0.17121,-20.78859,-0.26153,-14.31500
-0.36732,1.67211,-0.48401,0.31881,-0.30651,-0.34286,-1.36643,-0.68755,-0.46455,1.95206,-2.62291,-6.76690,-0.36504,-0.82192,-0.40629,0.16163,-15.16558,9.78965,-13.56876
-0.36195,1.66663,-0.49275,0.33471,-0.32819,-0.41179,-1.48614,-0.61366,-0.46918,1.14550,-0.74526,-4.78818,-0.36902,-0.82623,-0.39707,0.15334,-10.67156,10.02657,-6.11497
-0.35704,1.66197,-0.50104,0.33899,-0.33096,-0.45498,-1.62304,-0.70821,-0.42122,0.13950,0.41979,-2.44867,-0.36987,-0.83232,-0.38784,0.14150,-10.59459,-2.09312,5.88990
-0.35272,1.65871,-0.50806,0.33209,-0.30845,-0.46567,-1.47390,-0.88686,-0.32023,-0.92825,2.62312,0.62257,-0.36644,-0.83664,-0.38568,0.13040,5.33122,-12.96746,8.60515
-0.34885,1.65700,-0.51336,0.31941,-0.26492,-0.44577,-1.20560,-0.86618,-0.21882,-1.31016,3.60430,2.00748,-0.36369,-0.83866,-0.38559,0.12530,17.31300,-0.27808,12.11471
-0.34541,1.65662,-0.51723,0.30222,-0.20936,-0.40640,-0.82016,-0.70174,-0.26249,-1.55597,4.74792,3.35345,-0.36512,-0.83666,-0.38890,0.12430,22.42404,10.01153,-3.04635
-0.34198,1.65810,-0.51978,0.28880,-0.13540,-0.35499,-0.41168,-0.54438,-0.37359,-0.75074,6.03550,3.99224,-0.36847,-0.83220,-0.39521,0.12447,35.65754,9.93554,-9.13794
-0.33875,1.66235,-0.52111,0.27489,-0.03222,-0.29577,-0.02700,-0.49985,-0.05213,-1.05786,7.77314,4.41933,-0.36065,-0.83155,-0.40247,0.12836,31.27035,5.03894,12.71583
-0.33671,1.66859,-0.52075,0.24362,0.08125,-0.22012,0.15844,-0.59595,0.26276,-2.11987,6.85494,5.23988,-0.34993,-0.83346,-0.40784,0.12870,11.48324,-3.30281,20.09704
-0.33510,1.67516,-0.51966,0.21260,0.17523,-0.14895,0.24854,-0.78220,0.51470,-2.16188,6.45243,5.06872,-0.33788,-0.83631,-0.41304,0.12576,7.19783,-13.53016,19.53342
-0.33362,1.68252,-0.51772,0.18692,0.26019,-0.08032,0.33827,-0.86260,0.64779,-1.93907,5.84151,4.75982,-0.32773,-0.83804,-0.41829,0.12371,5.07940,-10.00066,13.01687
-0.33223,1.69059,-0.51498,0.16611,0.33690,-0.01434,0.46375,-0.81445,0.67894,-1.46889,5.20490,4.60805,-0.32041,-0.83790,-0.42410,0.12412,9.15771,2.42289,4.26221
-0.33069,1.69926,-0.51140,0.15143,0.40576,0.05069,0.61787,-0.64786,0.60762,-1.03911,4.76076,4.81757,-0.31674,-0.83565,-0.43037,0.12707,8.76313,9.39405,-2.69622
-0.32903,1.70845,-0.50654,0.14233,0.46684,0.12224,0.80300,-0.46685,0.47172,-0.40371,4.16545,5.44726,-0.31553,-0.83147,-0.43809,0.13109,13.57945,15.83672,-7.89291
-0.32722,1.71826,-0.50016,0.13829,0.52397,0.20284,0.99432,-0.29509,0.29844,-0.29146,4.28929,6.44534,-0.31619,-0.82581,-0.44691,0.13542,11.49708,11.47520,-10.39144
-0.32540,1.72889,-0.49123,0.13335,0.58110,0.30771,1.35084,-0.11026,0.13375,-0.59222,4.37021,8.47430,-0.31750,-0.81671,-0.46027,0.14259,21.42016,14.95283,-11.23688
-0.32416,1.74031,-0.47959,0.11962,0.63813,0.43370,1.79263,-0.00484,0.06750,-1.13727,4.06283,9.52147,-0.31614,-0.80558,-0.47774,0.15123,32.89781,10.90681,-6.22196
-0.32356,1.75260,-0.46549,0.09847,0.69609,0.57120,2.22146,0.05867,0.09569,-1.84814,4.16500,10.38779,-0.31207,-0.79353,-0.49694,0.16115,29.70186,4.24896,0.37068
-0.32363,1.76545,-0.44878,0.06963,0.74892,0.71976,2.67638,0.09468,0.22319,-2.26290,3.41270,10.89216,-0.30450,-0.78002,-0.51847,0.17331,33.42149,3.02219,7.41560
-0.32422,1.77810,-0.43106,0.03999,0.78576,0.84813,2.96005,0.02013,0.39950,-2.42579,2.50650,10.86990,-0.29360,-0.76794,-0.53885,0.18360,28.91363,-2.22938,12.64958
-0.32637,1.79124,-0.40908,-0.00743,0.82187,1.01846,3.20210,-0.25507,0.72802,-3.20177,1.78476,10.80747,-0.27454,-0.75761,-0.56034,0.19151,15.08971,-20.47473,15.73533
-0.32896,1.80357,-0.38597,-0.05188,0.83612,1.17006,3.45814,-0.51865,1.04319,-3.06782,0.36694,11.00666,-0.25263,-0.74612,-0.58274,0.19977,18.66068,-20.58208,19.49943
-0.33182,1.81508,-0.36202,-0.08914,0.83326,1.29769,3.64953,-0.83901,1.30097,-3.03904,-1.00912,10.41529,-0.22791,-0.73450,-0.60530,0.20536,18.66792,-28.66687,17.01462
-0.33562,1.82458,-0.33326,-0.13443,0.79415,1.47854,4.01929,-1.13748,1.59328,-2.42973,-3.47575,9.65234,-0.19844,-0.71896,-0.63127,0.21263,18.92689,-21.86507,13.83819
-0.33838,1.83258,-0.30632,-0.15135,0.73851,1.58724,4.38839,-1.11362,1.72625,-0.80639,-5.78458,8.33307,-0.17447,-0.69859,-0.65660,0.22451,29.49825,-3.57309,14.46622
-0.34028,1.83842,-0.27862,-0.14932,0.66166,1.67911,4.67458,-1.05966,1.69964,0.84466,-7.43375,7.06283,-0.15357,-0.67567,-0.68173,0.23480,25.82161,5.60926,7.00122
-0.34046,1.83907,-0.24895,-0.11624,0.51536,1.78440,5.07881,-0.85439,1.55519,2.85149,-9.13793,4.56143,-0.13672,-0.64622,-0.70908,0.24679,22.79022,13.85045,-1.89875
-0.33967,1.83973,-0.22134,-0.07464,0.40300,1.83266,5.31714,-0.64856,1.39601,3.90912,-9.89379,3.68585,-0.12213,-0.61661,-0.73378,0.25776,18.32244,20.32353,-5.10526
-0.33759,1.83683,-0.19322,-0.02175,0.25873,1.87638,5.56681,-0.56904,1.16186,4.14923,-10.94874,2.51697,-0.10773,-0.58404,-0.75970,0.26485,20.48466,19.06379,-8.17142
-0.33485,1.83063,-0.16559,0.03030,0.08998,1.90154,5.68902,-0.74005,0.86376,2.65058,-10.57481,0.84214,-0.09118,-0.55307,-0.78497,0.26386,9.00391,-2.80433,-23.17967
-0.33293,1.82466,-0.13896,0.05577,-0.03402,1.90418,5.78297,-0.86432,0.74647,1.55932,-9.94532,-0.36453,-0.07224,-0.52161,-0.80787,0.26465,8.58973,-4.85159,-15.61808
-0.33115,1.81640,-0.11338,0.07260,-0.16532,1.88822,5.86576,-0.97443,0.78922,0.72326,-8.92145,-1.92270,-0.05020,-0.48946,-0.82848,0.26746,7.47115,-7.04308,-2.39319
-0.32970,1.80805,-0.08877,0.07981,-0.26546,1.86014,5.90512,-1.07637,0.90463,0.39654,-8.01913,-2.92632,-0.02625,-0.45734,-0.84647,0.27136,4.33993,-10.25458,4.94637
-0.32840,1.79725,-0.06642,0.08276,-0.38288,1.80074,5.85692,-1.35622,0.92975,0.21559,-6.97425,-4.55025,0.00080,-0.42760,-0.86272,0.26997,-0.64500,-16.54415,-2.21632
-0.32749,1.78656,-0.04553,0.07847,-0.47291,1.72965,5.72927,-1.65235,0.82733,-0.41682,-6.22471,-5.92814,0.02718,-0.39979,-0.87731,0.26413,-4.88739,-16.54357,-10.42926
-0.32721,1.77603,-0.02597,0.06496,-0.53816,1.65509,5.52690,-1.97203,0.57559,-1.71506,-5.09105,-6.66561,0.05253,-0.37483,-0.89062,0.25207,-11.89501,-18.76121,-29.29581
-0.32809,1.76435,-0.00884,0.03562,-0.60613,1.55875,5.39211,-2.19607,0.52794,-3.07238,-4.39329,-7.20710,0.07982,-0.34891,-0.90143,0.24353,-10.16384,-14.97652,-18.17831
-0.33012,1.75232,0.00643,-0.00559,-0.66439,1.45407,5.33484,-2.31494,0.75423,-3.52525,-3.67866,-7.88042,0.10966,-0.32065,-0.90904,0.24248,-4.88807,-12.63665,7.86170
-0.33358,1.73984,0.01869,-0.06170,-0.71743,1.32194,5.27854,-2.44385,1.18996,-4.07405,-2.75394,-8.74267,0.14328,-0.29200,-0.91268,0.24743,-6.57258,-16.22351,18.86883
-0.33763,1.72761,0.02932,-0.11514,-0.75499,1.19112,5.26121,-2.57692,1.80953,-3.91399,-2.73469,-10.25737,0.18055,-0.26137,-0.91215,0.25899,-6.28750,-22.01269,36.60098
-0.34245,1.71440,0.03635,-0.16905,-0.80034,1.03049,5.34194,-2.78769,2.30884,-3.61147,-3.75103,-12.81699,0.22083,-0.22783,-0.90927,0.26936,-1.01336,-25.82615,33.41100
-0.34798,1.70047,0.03881,-0.22217,-0.84672,0.83086,5.49955,-3.09645,2.41631,-3.17038,-2.74957,-15.59665,0.26223,-0.19273,-0.90615,0.27017,11.46171,-23.76638,13.53167
-0.35416,1.68759,0.03674,-0.27383,-0.86427,0.60244,5.57325,-3.50978,2.34874,-4.03460,0.22500,-17.35673,0.30573,-0.16038,-0.90042,0.26468,13.98822,-21.05795,-15.30080
-0.36128,1.67751,0.02838,-0.32977,-0.82948,0.31746,5.46190,-4.12763,2.44877,-3.36675,4.41820,-18.79873,0.35609,-0.13333,-0.88722,0.26127,2.92871,-37.41985,-7.17798
-0.36796,1.66998,0.01965,-0.36513,-0.76095,0.09418,5.20039,-4.70692,2.59377,-2.81824,7.21359,-19.31520,0.40719,-0.11102,-0.86850,0.25994,-10.08186,-45.84291,-9.64315
-0.37463,1.66547,0.00693,-0.39079,-0.66019,-0.13598,4.85372,-5.36366,2.63564,-1.12481,9.86766,-19.80981,0.46151,-0.09459,-0.84402,0.25632,-15.91876,-56.76773,-14.40925
-0.38077,1.66879,-0.01605,-0.40146,-0.45031,-0.48698,4.22798,-6.33970,2.00376,0.90430,13.43549,-19.67264,0.51999,-0.09708,-0.81511,0.23620,-12.26262,-46.57682,-55.02208
-0.38529,1.67280,-0.03664,-0.38301,-0.27608,-0.72050,3.88694,-6.92250,1.27699,2.93188,15.92251,-19.49381,0.57192,-0.09701,-0.78713,0.20960,3.00699,-35.73771,-72.50081
-0.38737,1.68136,-0.06049,-0.32935,-0.07298,-0.94675,3.53475,-7.43703,0.56675,5.97088,18.43990,-18.83933,0.62212,-0.10234,-0.75523,0.17920,8.53036,-28.35694,-77.58924
-0.38330,1.69942,-0.09073,-0.18596,0.23967,-1.22474,2.92717,-7.96327,-0.28036,11.69545,20.91985,-16.57364,0.66965,-0.12124,-0.71813,0.14543,-4.94203,-23.39920,-70.04948
-0.37424,1.72056,-0.12053,0.00847,0.53540,-1.43564,2.37563,-8.40192,-0.94835,15.96407,21.71353,-13.90972,0.71408,-0.14198,-0.67605,0.11347,-11.52144,-19.87951,-65.18674
-0.35896,1.74632,-0.15087,0.26107,0.83889,-1.60667,1.84277,-8.69821,-1.63119,20.97349,22.12126,-10.82498,0.75306,-0.16743,-0.63124,0.07998,-8.11658,-17.63855,-67.12952
-0.33591,1.77617,-0.18046,0.58386,1.13956,-1.72502,1.24938,-8.51607,-2.10682,25.61162,21.20424,-6.68013,0.78075,-0.19406,-0.59151,0.05365,-14.00136,13.88132,-59.45284
-0.30184,1.81161,-0.20779,1.02181,1.46819,-1.77803,0.41381,-8.43338,-2.70605,29.84736,21.79152,-1.46428,0.80372,-0.23224,-0.54698,0.03032,-25.61792,18.08245,-63.60394
-0.26313,1.84872,-0.23177,1.44070,1.75329,-1.76374,-0.14891,-7.80153,-3.46437,31.20681,20.99351,3.72358,0.81345,-0.27198,-0.51410,0.00449,-20.24047,53.83982,-52.23219
-0.21856,1.88980,-0.25209,1.85973,2.03780,-1.69024,-0.66016,-7.43554,-4.65036,31.24584,20.53075,6.74353,0.81683,-0.32488,-0.47567,-0.03131,21.50235,31.40610,-88.61058
-0.16612,1.93397,-0.26807,2.31356,2.30689,-1.56036,-1.21670,-7.04929,-6.05128,34.69489,18.31829,11.73425,0.80889,-0.38984,-0.43460,-0.06958,9.29635,23.19459,-105.18850
-0.10436,1.97976,-0.27861,2.81846,2.53930,-1.36849,-1.49120,-6.47466,-7.61874,38.71536,14.90484,16.43894,0.78576,-0.46054,-0.39657,-0.11493,32.67923,26.36038,-110.66320
-0.03228,2.02500,-0.28300,3.37886,2.70575,-1.11763,-1.36769,-5.87312,-9.30562,42.07423,7.98113,20.15336,0.74662,-0.53289,-0.35960,-0.17108,68.23155,10.15152,-110.82790
0.05146,2.06490,-0.27959,4.00493,2.74073,-0.79322,-1.36850,-5.12998,-10.67081,48.66768,-2.98578,26.45929,0.69465,-0.60415,-0.32298,-0.21942,57.75131,13.95861,-98.00152
0.14749,2.09528,-0.26679,4.68951,2.60495,-0.38632,-1.07005,-3.96264,-11.78409,48.76160,-16.27940,33.10675,0.62632,-0.66986,-0.29933,-0.26348,75.70451,42.02943,-82.03407
0.25265,2.11374,-0.24329,5.36651,2.29958,0.10559,-0.11888,-2.61988,-12.55612,47.96106,-27.69603,38.27437,0.54557,-0.72147,-0.29226,-0.31052,114.73730,24.70417,-42.00311
0.36549,2.11887,-0.20960,6.01248,1.84019,0.65299,1.05978,-1.22666,-13.49444,45.96434,-39.09544,39.34644,0.44376,-0.76758,-0.29270,-0.35809,137.80850,-4.70566,-47.36161
0.48555,2.10677,-0.16751,6.62882,1.19693,1.21224,2.02828,0.37121,-14.79024,44.56731,-55.02153,39.58601,0.31437,-0.81306,-0.29259,-0.39306,129.02520,25.35742,-77.91943
0.61227,2.07137,-0.11906,7.20953,0.30987,1.74606,3.65276,1.41364,-16.37064,38.00724,-74.45741,37.42158,0.15734,-0.83612,-0.29061,-0.43782,132.87010,-14.27394,-113.72430
0.73646,2.01519,-0.06963,7.60235,-0.70089,2.16279,5.12462,2.35215,-17.87421,26.77762,-96.90626,30.95340,-0.01683,-0.83650,-0.28190,-0.46960,111.38870,-52.90515,-136.04710
0.85474,1.91178,-0.01456,7.78441,-2.24502,2.56110,7.32134,4.45477,-19.24512,-2.05233,-124.29660,22.73960,-0.22412,-0.80647,-0.29452,-0.46112,172.80820,-19.08566,-133.86690
0.94801,1.76666,0.03525,7.47184,-4.10930,2.76085,10.96095,7.74201,-19.60937,-44.44849,-139.36040,-1.75838,-0.44488,-0.72682,-0.34628,-0.39231,228.13920,-97.50786,-162.38830
0.98613,1.57628,0.06580,6.31058,-6.27873,2.60644,18.04193,12.24980,-17.75680,-96.64898,-123.48700,-18.62642,-0.65336,-0.55107,-0.47143,-0.21727,456.45400,-193.03070,-250.81200
0.98358,1.39891,0.07538,4.77393,-7.78089,2.14811,24.70530,11.30848,-16.06115,-123.68560,-85.21439,-44.46738,-0.76614,-0.28386,-0.56833,-0.09721,171.79050,-142.78050,-437.92760
0.93803,1.24261,0.06342,2.87846,-8.56715,1.43752,29.14382,7.57731,-12.60044,-134.46690,-27.10683,-43.30883,-0.75253,-0.02229,-0.65807,0.01195,136.66190,-148.00050,-468.74990
0.88535,1.12347,0.05196,1.34501,-8.55000,0.92065,26.35308,1.28655,-11.18694,-116.51380,14.61397,-30.15553,-0.68810,0.12770,-0.71390,-0.02376,-293.94920,-34.20299,-445.09640
0.81458,1.04020,0.04506,-0.12023,-7.94589,0.60408,15.22657,-2.53996,-10.71052,-76.08454,43.69507,-7.13952,-0.64987,0.07572,-0.72909,-0.20092,-662.43400,246.41130,-136.45600
0.76155,0.96659,0.05399,-0.97849,-7.32060,0.61654,4.51911,-1.75680,-10.64722,-58.06612,48.28618,1.77036,-0.64819,-0.03780,-0.65965,-0.37852,-634.43420,538.05200,6.99995
0.70114,0.89897,0.06444,-1.76078,-6.74166,0.64946,-1.05680,-0.27680,-10.50256,-52.16242,42.55201,1.34604,-0.64499,-0.09669,-0.57502,-0.49396,-305.51250,403.34660,-2.65359
0.63585,0.83649,0.07210,-2.43723,-6.20925,0.62674,-3.47884,0.83265,-11.32579,-41.61067,41.71289,-4.92215,-0.64169,-0.09423,-0.48399,-0.58746,-121.14750,193.30280,-98.67458
0.57089,0.78160,0.07422,-2.94645,-5.67319,0.51651,-3.10231,0.90317,-11.23279,-28.18783,41.10635,-11.26268,-0.64211,-0.05476,-0.43193,-0.63097,5.41483,33.63959,-21.95707
0.51002,0.73315,0.07100,-3.26843,-5.15915,0.34260,-1.56676,0.43009,-10.20347,-16.67355,36.32108,-13.60701,-0.64886,-0.00549,-0.41310,-0.63898,64.47610,-80.01082,62.73533
0.45346,0.68973,0.06498,-3.45004,-4.68387,0.16247,-0.06048,-0.30971,-8.85292,-9.88304,32.48543,-11.78588,-0.65499,0.04315,-0.41119,-0.63250,72.35164,-101.56820,100.18360
0.39930,0.65116,0.05870,-3.54885,-4.23808,0.02038,0.72070,-0.80091,-7.79124,-6.03581,30.77704,-8.10645,-0.65647,0.08408,-0.40553,-0.63049,35.14953,-82.33995,84.51747
0.34735,0.61870,0.05359,-3.58929,-3.79514,-0.06849,0.80657,-0.58272,-7.14064,-2.05012,31.42147,-3.94988,-0.65837,0.11025,-0.38309,-0.63847,15.09641,-5.35886,53.85033
0.29747,0.58898,0.05087,-3.58848,-3.41655,-0.09732,0.53275,0.04507,-6.79180,0.49557,31.16363,-0.37522,-0.65982,0.12586,-0.34773,-0.65413,3.40324,35.96454,36.17152
0.25027,0.57236,0.05024,-3.54393,-2.90988,-0.08526,-0.06815,1.35880,-6.48477,4.14610,31.64745,1.83621,-0.66366,0.11978,-0.29579,-0.67654,1.51551,91.64176,22.65215
0.20599,0.56029,0.05103,-3.45801,-2.42981,-0.05221,-0.64199,2.33852,-6.19397,7.61887,28.68437,1.75681,-0.66180,0.11238,-0.24516,-0.69949,-7.29628,78.53506,15.27865
0.16344,0.54590,0.05105,-3.36384,-2.10174,-0.04068,-0.93087,2.57364,-5.72802,9.82109,26.52805,-0.29423,-0.65622,0.11162,-0.20947,-0.71627,-9.01758,44.50541,30.60956
0.12493,0.53749,0.04928,-3.22576,-1.75611,-0.06222,-1.04467,2.46895,-4.97119,11.32945,23.64433,-3.25492,-0.65101,0.10951,-0.18790,-0.72724,-4.58566,4.04170,52.23039
0.09081,0.53341,0.04420,-3.04356,-1.41392,-0.13478,-0.69271,2.46090,-4.03880,10.62886,20.62952,-6.03907,-0.65602,0.10337,-0.17169,-0.72765,17.60175,-11.15321,61.45221
0.05727,0.52893,0.03731,-2.89124,-1.15419,-0.22094,0.13010,2.94644,-3.73302,10.06213,18.10378,-6.16446,-0.67333,0.09912,-0.13538,-0.72005,64.18196,17.26777,20.40861
0.02390,0.52523,0.03045,-2.77478,-0.94633,-0.28468,0.85748,3.21946,-3.63918,9.86942,17.41933,-4.53998,-0.69064,0.09943,-0.09710,-0.70972,70.87154,16.66105,-2.34496
-0.00608,0.52906,0.02385,-2.62825,-0.66051,-0.32767,1.47960,3.14689,-3.64797,9.70398,17.80779,-0.67824,-0.70661,0.10685,-0.06231,-0.69671,43.92750,-8.90289,-8.75400
-0.03456,0.53491,0.02006,-2.48698,-0.40409,-0.31359,1.55075,2.67862,-3.53750,11.79329,17.83336,3.00010,-0.71260,0.11804,-0.03936,-0.69045,9.75028,-29.79414,-1.36743
-0.06091,0.54271,0.01815,-2.34656,-0.17941,-0.27245,1.37231,2.25886,-3.56000,11.29356,19.30731,6.38643,-0.71255,0.13143,-0.01692,-0.68900,-32.44543,-37.23879,14.63654
-0.07816,0.55621,0.01972,-2.08427,0.08651,-0.18150,0.49242,2.24573,-3.31724,17.96951,15.24001,6.06455,-0.69920,0.13109,0.00409,-0.70280,-56.20795,4.30781,22.52636
-0.09136,0.56848,0.02183,-1.81119,0.27251,-0.10263,-0.02982,2.47619,-3.04951,20.70471,11.61740,5.07936,-0.68913,0.12486,0.02911,-0.71321,-34.23624,19.20492,21.55776
-0.10398,0.57825,0.02311,-1.60181,0.36909,-0.05802,-0.21956,2.73295,-2.85957,21.31402,8.16627,3.96080,-0.68254,0.11735,0.05677,-0.71912,-21.50996,26.01023,24.84333
-0.10518,0.58845,0.02560,-1.25932,0.44889,-0.00503,-0.28342,3.23677,-2.39862,21.86877,2.34661,2.58809,-0.67830,0.09648,0.08446,-0.72351,4.40694,31.60955,24.23621
-0.10207,0.59570,0.02695,-0.91454,0.46468,0.01791,-0.18463,3.59985,-1.74235,21.65440,-0.27397,0.19320,-0.67752,0.07029,0.10562,-0.72448,18.02673,25.73528,37.46061
-0.09987,0.60153,0.02703,-0.66555,0.45385,0.01484,-0.09718,3.75580,-1.21671,20.39257,-1.52612,-0.89557,-0.67636,0.04624,0.12352,-0.72467,18.89929,14.57169,40.21970
-0.09076,0.60620,0.02591,-0.35962,0.42629,-0.00774,-0.08618,3.72478,-0.45520,18.48191,-2.04150,-2.34921,-0.67482,0.01805,0.13054,-0.72612,13.11697,2.54179,43.96744
-0.08174,0.61069,0.02368,-0.12253,0.40174,-0.04403,-0.16570,3.45961,0.27476,15.83818,-1.76966,-3.15760,-0.67168,-0.00754,0.12940,-0.72942,6.63804,-14.94185,52.54805
-0.07169,0.61466,0.02065,0.07576,0.37423,-0.08488,-0.30046,2.98933,0.89958,13.31937,-2.22698,-3.22296,-0.66740,-0.02851,0.12137,-0.73419,1.98471,-27.11971,45.28419
-0.06054,0.61824,0.01677,0.24606,0.34681,-0.13067,-0.34880,2.53943,1.45881,10.77181,-1.07511,-2.95663,-0.66404,-0.04916,0.10930,-0.73803,3.78120,-39.87191,49.72631
-0.04847,0.62114,0.01223,0.39187,0.31378,-0.17650,-0.15963,2.70978,1.28692,9.89475,-2.28183,-2.64550,-0.66308,-0.06944,0.12026,-0.73556,8.05988,-1.39233,1.33171
-0.03473,0.62352,0.00657,0.53133,0.28019,-0.23054,0.07321,2.92176,1.16252,9.43360,-3.07702,-3.73306,-0.66340,-0.09188,0.13338,-0.73052,14.16127,24.82901,-21.52826
-0.02160,0.62558,0.00150,0.64624,0.24301,-0.27379,0.20421,2.87647,1.17086,8.20721,-3.04674,-3.32119,-0.66323,-0.11186,0.13986,-0.72667,9.32130,3.00415,-3.54506
-0.00764,0.62743,-0.00368,0.74651,0.21213,-0.30933,0.25257,2.64403,1.34457,7.04240,-1.89889,-2.63567,-0.66234,-0.13074,0.13865,-0.72456,9.35838,-14.08786,9.85022
0.00779,0.62933,-0.00924,0.83944,0.19259,-0.33764,0.22900,2.30392,1.56926,6.46379,-0.18222,-1.95101,-0.66033,-0.14758,0.13232,-0.72435,3.59873,-22.84056,16.00569
0.02387,0.63196,-0.01503,0.91150,0.19173,-0.35698,0.10279,2.14849,1.64235,5.45300,-0.03862,-0.69966,-0.65540,-0.16426,0.13016,-0.72562,-3.59430,-20.09855,15.21434
0.04129,0.63470,-0.02073,0.98789,0.19344,-0.37084,-0.05377,1.96096,1.73850,5.51255,0.59447,-1.74952,-0.64903,-0.17985,0.12622,-0.72834,-10.58284,-11.59690,0.93043
0.05993,0.63832,-0.02696,1.06753,0.20880,-0.38979,-0.25498,1.65671,1.93062,4.61195,1.09435,-1.22599,-0.64089,-0.19397,0.11661,-0.73351,-9.00843,-20.43841,15.19805
0.07817,0.64190,-0.03321,1.12161,0.22044,-0.40439,-0.36538,1.39820,2.12081,4.04495,1.29617,-2.00615,-0.63325,-0.20844,0.10560,-0.73783,-6.55476,-20.58786,14.17711
0.09746,0.64613,-0.04023,1.17946,0.23969,-0.42797,-0.43582,1.08823,2.35734,3.78113,1.65813,-2.02118,-0.62547,-0.22214,0.09012,-0.74251,-2.30964,-23.23194,18.56532
0.11696,0.65059,-0.04792,1.22746,0.25802,-0.45672,-0.49603,0.94129,2.43275,2.87511,1.24266,-1.78189,-0.61752,-0.23572,0.07882,-0.74625,0.06496,-14.22945,11.09864
0.13728,0.65516,-0.05636,1.27568,0.27500,-0.49294,-0.45951,0.80274,2.52998,2.86751,1.18618,-2.74210,-0.61093,-0.24952,0.06601,-0.74843,1.96562,-8.71613,3.67331
0.15765,0.65982,-0.06554,1.31497,0.28925,-0.53300,-0.34528,0.84376,2.52685,2.27013,1.34593,-2.71963,-0.60607,-0.26533,0.05701,-0.74768,7.79178,-0.82701,4.41067
0.17840,0.66513,-0.07571,1.35006,0.31081,-0.57770,-0.28706,0.94041,2.52121,2.33983,1.89820,-3.21234,-0.60014,-0.28234,0.04963,-0.74676,3.14539,8.34485,-2.84056
0.19940,0.67089,-0.08641,1.37634,0.33414,-0.61859,-0.21927,1.07654,2.49716,1.68462,2.29519,-3.30499,-0.59460,-0.30038,0.04365,-0.74452,5.30815,10.19712,-0.80761
0.22040,0.67754,-0.09784,1.39547,0.36492,-0.66020,-0.20717,1.26615,2.42700,1.10063,2.83752,-3.30594,-0.58815,-0.31929,0.04085,-0.74193,0.06479,14.67886,-5.88105
0.24122,0.68611,-0.11075,1.40880,0.41977,-0.71849,-0.23554,1.55511,2.30754,0.02045,3.38620,-3.13774,-0.58091,-0.33994,0.04243,-0.73837,-4.13383,15.57654,-6.41222
0.26096,0.69505,-0.12334,1.40251,0.46932,-0.76052,-0.32551,1.82545,2.13387,-1.33601,3.84548,-2.66515,-0.57262,-0.35983,0.04688,-0.73514,-7.84617,16.97898,-9.08081
0.27991,0.70400,-0.13562,1.38917,0.50686,-0.78760,-0.43408,2.02261,1.99667,-1.58277,3.66653,-2.72211,-0.56326,-0.37918,0.05192,-0.73230,-15.05052,18.49866,-14.78503
0.29761,0.71528,-0.14955,1.35598,0.57169,-0.83457,-0.51259,2.37695,1.87397,-2.30401,3.57570,-2.41661,-0.55338,-0.40256,0.06084,-0.72664,-6.57368,17.27800,-5.45006
0.31482,0.72648,-0.16322,1.32160,0.62154,-0.86783,-0.61846,2.74737,1.73903,-2.99943,3.62466,-2.16651,-0.54241,-0.42692,0.07245,-0.71992,-11.01614,25.03625,-8.87947
0.33064,0.73842,-0.17698,1.27365,0.67279,-0.89442,-0.73844,3.04200,1.65683,-4.06530,3.55045,-1.69314,-0.52989,-0.45146,0.08416,-0.71297,-12.75058,22.39475,-5.84195
0.34486,0.75096,-0.19044,1.21018,0.72084,-0.91103,-0.84770,3.19143,1.62583,-5.18103,3.19950,-0.95777,-0.51646,-0.47449,0.09398,-0.70661,-10.01365,12.60112,-2.31802
0.35797,0.76359,-0.20347,1.14458,0.75868,-0.91622,-0.90810,3.18767,1.64600,-5.95863,2.94350,-0.26052,-0.50305,-0.49542,0.10051,-0.70100,-6.43902,2.84082,0.90698
