posX, posY, posZ, velX, velY, velZ, angVelX, angVelY, angVelZ, accX, accY, accZ, rotX, rotY, rotZ, rotW, angAccX, angAccY, angAccZ
0.34528,1.04372,-0.43309,-0.30677,0.81816,-1.17008,-0.44913,2.13143,1.75196,-4.79216,-3.94330,5.51158,-0.31084,-0.76557,0.04522,-0.56146,23.53329,-18.53237,-11.40359
0.33731,1.05201,-0.44494,-0.36885,0.76589,-1.09481,-0.26302,1.86238,1.64689,-4.09889,-3.46290,5.49453,-0.30508,-0.77238,0.04049,-0.55561,15.01728,-18.70552,-8.69866
0.32906,1.06018,-0.45567,-0.42101,0.72425,-1.01850,-0.09889,1.61991,1.56906,-3.36525,-2.40036,5.64980,-0.29967,-0.77854,0.03484,-0.55033,14.03933,-15.94081,-7.76931
0.32053,1.06858,-0.46531,-0.46571,0.69626,-0.94204,-0.08819,1.36447,1.54310,-2.93152,-1.55808,5.63342,-0.29161,-0.78361,0.03043,-0.54772,5.71871,-17.43058,-2.77958
0.31214,1.07724,-0.47458,-0.49711,0.67957,-0.87856,-0.12455,1.14286,1.53767,-2.23399,-1.21809,5.09818,-0.28237,-0.78815,0.02661,-0.54625,-2.51946,-19.17315,-0.80449
0.30338,1.08571,-0.48227,-0.52699,0.66355,-0.80365,-0.03304,0.90294,1.55793,-1.51471,-0.97958,3.94968,-0.27457,-0.79175,0.01909,-0.54533,5.14371,-16.14448,0.94513
0.29502,1.09432,-0.49077,-0.54332,0.65350,-0.75961,0.19829,0.82699,1.56188,-1.08792,-0.89663,2.97383,-0.26956,-0.79707,0.00901,-0.54030,14.65288,-8.58598,-0.01894
0.28659,1.10272,-0.49892,-0.55660,0.64247,-0.72086,0.59220,0.85266,1.56271,-0.70261,-0.84664,2.33813,-0.26818,-0.80368,-0.00555,-0.53117,27.37095,2.65083,-1.30527
0.27841,1.11082,-0.50727,-0.56310,0.62890,-0.69401,0.88756,0.95961,1.51379,-0.28608,-1.00879,1.72417,-0.26768,-0.81103,-0.01845,-0.51984,23.33001,8.98425,-3.21420
0.27042,1.11856,-0.51570,-0.56489,0.61243,-0.67473,1.02800,1.09953,1.40001,-0.09107,-1.20634,1.46957,-0.26748,-0.81845,-0.02752,-0.50777,12.02654,12.03810,-6.66287
0.26261,1.12595,-0.52406,-0.56343,0.59438,-0.65861,1.01035,1.21160,1.25747,0.21606,-1.21311,1.27093,-0.26656,-0.82534,-0.03259,-0.49668,0.36766,9.08233,-10.17339
0.25515,1.13317,-0.53205,-0.55659,0.57685,-0.63973,0.83622,1.26364,1.09066,0.52141,-0.76328,1.41894,-0.26449,-0.83125,-0.03320,-0.48781,-10.90804,4.16380,-9.58808
0.24777,1.14090,-0.53968,-0.54997,0.57185,-0.61953,0.69261,1.23670,1.01142,0.50176,0.11841,1.39911,-0.26103,-0.83645,-0.03488,-0.48062,-12.76258,-1.54702,-6.23144
0.24030,1.14935,-0.54692,-0.54660,0.58010,-0.59735,0.68613,1.19093,1.02384,0.19195,0.93444,1.41361,-0.25731,-0.84164,-0.04038,-0.47307,-3.08028,-3.65379,-0.02983
0.23273,1.15847,-0.55398,-0.54585,0.59730,-0.57687,0.81102,1.17514,1.07001,0.03696,1.40545,1.24185,-0.25453,-0.84710,-0.04946,-0.46389,6.63550,-2.29860,2.50253
0.22508,1.16810,-0.56078,-0.54692,0.61926,-0.55725,0.98450,1.18531,1.13372,-0.13541,1.71537,1.49712,-0.25217,-0.85276,-0.06074,-0.45334,13.10415,1.90528,2.71421
0.21731,1.17796,-0.56743,-0.54949,0.63947,-0.53978,1.07578,1.17791,1.19415,-0.26525,1.71649,1.59008,-0.24882,-0.85816,-0.07133,-0.44336,10.31646,0.51418,4.24466
0.20952,1.18826,-0.57361,-0.55240,0.66237,-0.51846,1.12615,1.15375,1.25227,-0.19529,1.64778,1.57816,-0.24475,-0.86321,-0.08174,-0.43393,4.51158,-1.72533,4.00119
0.20162,1.19911,-0.57928,-0.55679,0.68925,-0.49341,1.18501,1.13210,1.32217,-0.43915,1.67182,1.54296,-0.24022,-0.86814,-0.09297,-0.42424,4.19059,-1.12839,4.14389
0.19357,1.20985,-0.58503,-0.56229,0.70831,-0.47539,1.23431,1.13317,1.36471,-0.49440,1.47636,1.41997,-0.23597,-0.87299,-0.10398,-0.41400,4.00902,-0.82826,3.96796
0.18539,1.22089,-0.59032,-0.56830,0.72714,-0.45487,1.35669,1.16281,1.37809,-0.42775,1.22027,1.30059,-0.23333,-0.87758,-0.11672,-0.40223,7.07828,1.82877,1.48558
0.17719,1.23229,-0.59520,-0.57371,0.74821,-0.43218,1.55363,1.26805,1.36571,-0.37441,1.40380,1.53758,-0.23278,-0.88236,-0.13114,-0.38738,12.16568,7.92385,-1.49903
0.16886,1.24366,-0.60002,-0.57968,0.76390,-0.41304,1.62802,1.30550,1.36310,-0.62262,1.26730,1.94541,-0.23083,-0.88657,-0.14396,-0.37414,9.08312,5.93920,-0.32974
0.16032,1.25520,-0.60410,-0.58838,0.77915,-0.38661,1.60763,1.27920,1.37087,-0.64735,0.95023,2.19808,-0.22742,-0.89024,-0.15524,-0.36285,1.24907,-0.56917,0.34652
0.15165,1.26668,-0.60751,-0.59750,0.79010,-0.35497,1.43219,1.15433,1.37272,-0.55923,0.46117,1.99111,-0.22177,-0.89322,-0.16294,-0.35556,-9.77745,-8.32645,0.40452
0.14300,1.27792,-0.61086,-0.60354,0.79436,-0.32863,1.30649,1.07773,1.32384,-0.41161,0.16795,1.66639,-0.21761,-0.89595,-0.17007,-0.34783,-10.42845,-7.73581,-2.37042
0.13439,1.28923,-0.61392,-0.60812,0.79922,-0.30372,1.30653,1.06893,1.25879,-0.33860,0.55000,1.60624,-0.21547,-0.89845,-0.17903,-0.33811,-3.06791,-1.23881,-5.29790
0.12559,1.30090,-0.61657,-0.61476,0.80904,-0.27762,1.41687,1.09166,1.23283,-0.57596,0.92001,1.87674,-0.21398,-0.90061,-0.19096,-0.32657,5.41458,2.10824,-2.77625
0.11649,1.31292,-0.61866,-0.62455,0.82193,-0.24848,1.59014,1.11787,1.23101,-0.82931,0.95006,2.11144,-0.21291,-0.90216,-0.20540,-0.31397,11.67008,2.80123,-0.97173
0.10711,1.32508,-0.62039,-0.63702,0.83461,-0.22012,1.80259,1.17701,1.23049,-0.96626,0.91424,1.80989,-0.21270,-0.90322,-0.22163,-0.29971,13.87306,3.65768,-0.74090
0.09766,1.33726,-0.62204,-0.64734,0.84438,-0.19732,1.99259,1.28241,1.23431,-0.79437,0.73967,1.99600,-0.21287,-0.90424,-0.23823,-0.28334,15.67738,9.39611,-0.16564
0.08791,1.34941,-0.62257,-0.66030,0.85117,-0.16096,2.10057,1.31587,1.24728,-0.59464,-0.11457,2.38824,-0.21208,-0.90469,-0.25422,-0.26822,8.28787,4.13930,0.59892
0.07850,1.36098,-0.62338,-0.66446,0.84689,-0.13718,2.02287,1.21835,1.23914,-0.05810,-0.64203,2.03842,-0.20937,-0.90486,-0.26634,-0.25779,-3.48328,-6.19869,-0.39175
0.06952,1.37214,-0.62397,-0.66051,0.83717,-0.11617,1.89500,1.10034,1.17143,0.50884,-1.04399,1.65418,-0.20740,-0.90467,-0.27621,-0.24953,-8.86730,-9.83919,-4.19784
0.06104,1.38256,-0.62438,-0.65004,0.81936,-0.09606,1.71337,0.97588,1.05811,0.67012,-1.20594,0.81139,-0.20612,-0.90443,-0.28343,-0.24329,-12.34489,-9.38899,-7.58184
0.05276,1.39267,-0.62525,-0.63886,0.80116,-0.08706,1.61712,0.97271,0.93955,0.81827,-1.35641,0.27019,-0.20671,-0.90427,-0.29098,-0.23431,-8.63103,-1.98093,-7.85296
0.04473,1.40246,-0.62638,-0.62578,0.78105,-0.08458,1.55928,1.04552,0.81277,0.92077,-1.43590,-0.08314,-0.20897,-0.90417,-0.29819,-0.22335,-5.46777,4.58705,-7.76791
0.03684,1.41200,-0.62763,-0.61277,0.76140,-0.08456,1.56640,1.17111,0.68273,0.90096,-1.36177,-0.04983,-0.21305,-0.90371,-0.30606,-0.21035,-1.60781,9.29337,-8.38872
0.02912,1.42130,-0.62884,-0.60049,0.74306,-0.08343,1.61433,1.31357,0.56964,0.89610,-1.15023,0.18305,-0.21817,-0.90280,-0.31463,-0.19586,1.77959,11.16804,-8.31575
0.02156,1.43056,-0.62980,-0.58779,0.72762,-0.07837,1.66736,1.42130,0.48652,0.79229,-0.66696,0.58142,-0.22322,-0.90143,-0.32364,-0.18127,3.16665,8.18786,-5.56696
0.01391,1.44008,-0.63054,-0.57952,0.71954,-0.07048,1.63911,1.40779,0.48947,0.63178,-0.46645,0.85516,-0.22514,-0.90032,-0.33188,-0.16911,0.28867,1.53103,-0.92077
0.00633,1.44958,-0.63118,-0.57221,0.71337,-0.06236,1.48427,1.27487,0.53930,0.61100,-0.43962,0.71912,-0.22386,-0.90003,-0.33767,-0.16068,-8.14280,-7.99970,3.21427
-0.00110,1.45904,-0.63175,-0.56370,0.70712,-0.05577,1.27290,1.09394,0.59714,0.65802,-0.46656,0.40728,-0.22073,-0.90035,-0.34157,-0.15485,-14.33759,-14.02673,4.33780
-0.00839,1.46846,-0.63229,-0.55406,0.70090,-0.05106,1.11267,0.97565,0.63313,0.58788,-0.41277,0.10123,-0.21799,-0.90068,-0.34523,-0.14858,-12.66807,-11.63343,3.07218
-0.01558,1.47777,-0.63287,-0.54514,0.69436,-0.04797,1.03157,0.95017,0.66666,0.64490,-0.42142,0.10827,-0.21592,-0.90086,-0.34954,-0.14021,-7.16993,-4.07482,2.75113
-0.02256,1.48706,-0.63333,-0.53467,0.68881,-0.04381,1.00346,0.98379,0.68228,0.71076,-0.25686,0.35548,-0.21479,-0.90077,-0.35428,-0.13025,-3.28910,0.88935,1.83077
-0.02947,1.49633,-0.63342,-0.52536,0.68493,-0.03390,1.05049,1.03828,0.71043,0.67181,-0.22057,0.96613,-0.21384,-0.90004,-0.36068,-0.11882,2.37813,4.70680,1.37058
-0.03622,1.50558,-0.63305,-0.51536,0.68143,-0.01850,1.10780,1.02951,0.72688,0.89727,-0.25452,1.32401,-0.21257,-0.89869,-0.36792,-0.10862,4.33308,0.87901,1.66260
-0.04263,1.51480,-0.63233,-0.50220,0.67764,-0.00150,1.13643,0.94663,0.73400,1.08002,-0.35249,1.20577,-0.21058,-0.89707,-0.37522,-0.10063,3.61446,-4.86036,-0.22541
-0.04866,1.52395,-0.63151,-0.48539,0.67344,0.01251,1.13438,0.84551,0.71152,1.37937,-0.34286,0.88621,-0.20880,-0.89535,-0.38197,-0.09408,0.54873,-6.39235,-1.62969
-0.05438,1.53307,-0.63083,-0.46779,0.66967,0.02093,1.13694,0.76839,0.65265,1.52193,-0.36977,0.51397,-0.20811,-0.89326,-0.38863,-0.08800,-0.32159,-7.17312,-3.65907
-0.05928,1.54205,-0.63016,-0.44055,0.66472,0.02750,1.17385,0.75180,0.51107,1.68622,-0.18311,0.20197,-0.21054,-0.89024,-0.39557,-0.08166,0.69620,-1.86572,-8.10145
-0.06401,1.55117,-0.62959,-0.41631,0.66382,0.03152,1.28420,0.82286,0.34543,1.61106,0.12018,0.14377,-0.21564,-0.88599,-0.40394,-0.07314,6.58988,5.25312,-11.72275
-0.06895,1.56057,-0.62911,-0.40200,0.66711,0.03296,1.35371,0.89681,0.23965,1.23578,0.56906,0.10941,-0.22046,-0.88187,-0.41184,-0.06391,7.15141,7.30813,-12.05660
-0.07380,1.57063,-0.62835,-0.38965,0.68098,0.03881,1.48542,1.07342,0.13002,0.19559,1.05520,0.61743,-0.22765,-0.87661,-0.42085,-0.05119,6.57375,11.08466,-6.48853
-0.07963,1.58101,-0.62721,-0.39597,0.69737,0.05012,1.57730,1.16152,0.13372,-0.71304,1.19668,0.85064,-0.23168,-0.87172,-0.43001,-0.03894,5.94675,5.61541,-0.64642
-0.08572,1.59136,-0.62599,-0.40527,0.70906,0.05934,1.64070,1.24570,0.19785,-1.05329,1.28931,0.94385,-0.23418,-0.86712,-0.43888,-0.02554,5.75748,5.74460,3.08330
-0.09235,1.60215,-0.62430,-0.42212,0.72589,0.07669,1.71130,1.36142,0.30805,-0.98325,0.82166,1.33304,-0.23568,-0.86238,-0.44796,-0.00968,6.17899,8.11870,7.09134
-0.09903,1.61265,-0.62252,-0.43700,0.73618,0.09512,1.64133,1.32636,0.46882,-0.57679,0.29729,1.36824,-0.23358,-0.85946,-0.45472,0.00297,-1.68833,-1.54204,9.28988
-0.10531,1.62288,-0.62084,-0.44061,0.73745,0.10409,1.55364,1.24397,0.54371,-0.15549,-0.22536,1.29918,-0.23177,-0.85664,-0.46074,0.01324,-6.06346,-6.44195,11.56981
-0.11085,1.63214,-0.61865,-0.43337,0.72401,0.12057,1.18108,0.87853,0.62433,1.06614,-1.48171,0.95287,-0.22511,-0.85828,-0.46096,0.01375,-18.07311,-19.40409,4.97566
-0.11510,1.64050,-0.61683,-0.40673,0.69842,0.12873,0.77027,0.45487,0.53813,1.88390,-1.79358,0.24837,-0.22058,-0.86051,-0.45913,0.00806,-25.98095,-29.09397,-4.23750
-0.11914,1.64871,-0.61512,-0.38193,0.67559,0.13093,0.57317,0.31424,0.43214,1.62803,-1.67108,-0.26485,-0.21957,-0.86090,-0.45890,0.00720,-21.78457,-19.99227,-9.38393
-0.12272,1.65641,-0.61362,-0.35471,0.64921,0.13034,0.55491,0.46720,0.35841,1.73849,-1.51859,-0.29767,-0.22190,-0.85952,-0.46021,0.01403,-6.03139,5.14464,-6.43974
-0.12607,1.66416,-0.61194,-0.33019,0.62999,0.13283,0.69935,0.79063,0.31562,1.83701,-1.31754,0.40445,-0.22676,-0.85576,-0.46420,0.02774,6.44933,22.69489,-3.31996
-0.12883,1.67120,-0.60953,-0.30144,0.60304,0.14631,0.93511,1.14776,0.26234,2.04767,-1.95502,1.39148,-0.23359,-0.84964,-0.47065,0.04510,16.46748,26.55351,-2.06378
-0.13148,1.67813,-0.60639,-0.27590,0.57976,0.16566,0.98380,1.21072,0.18025,1.89578,-1.66203,1.83588,-0.23851,-0.84522,-0.47505,0.05519,5.23039,8.69819,-6.27647
-0.13421,1.68514,-0.60258,-0.25775,0.56308,0.19093,1.02316,1.23810,0.11115,1.17871,-1.01787,2.54004,-0.24324,-0.84064,-0.47957,0.06456,1.13936,2.02135,-5.59455
-0.13728,1.69214,-0.59697,-0.24947,0.55016,0.24018,1.13604,1.21555,0.12245,0.07641,-0.41004,3.64815,-0.24559,-0.83518,-0.48645,0.07433,7.53671,0.89749,-1.44059
-0.14132,1.69974,-0.59025,-0.25861,0.55062,0.30081,1.21781,0.98551,0.28332,-0.87618,0.42631,4.18512,-0.24112,-0.83120,-0.49440,0.08085,5.99157,-12.39556,7.82597
-0.14602,1.70778,-0.58331,-0.27651,0.55758,0.34968,1.26203,0.73187,0.46759,-1.83421,0.78518,4.15778,-0.23390,-0.82802,-0.50226,0.08609,5.05797,-21.28009,11.39042
-0.15200,1.71633,-0.57463,-0.31193,0.57107,0.41501,1.36106,0.47578,0.77696,-2.69699,0.91960,4.04858,-0.22130,-0.82501,-0.51168,0.09259,6.61585,-19.01946,16.75258
-0.15871,1.72493,-0.56557,-0.35157,0.58200,0.47165,1.45653,0.25936,1.06971,-2.92661,0.60355,4.07552,-0.20708,-0.82181,-0.52134,0.09975,9.46643,-14.65667,20.23189
-0.16581,1.73377,-0.55625,-0.38777,0.59457,0.51851,1.49452,0.02250,1.41723,-2.88782,1.16471,3.79347,-0.18856,-0.81978,-0.53012,0.10668,7.15894,-20.62304,21.03711
-0.17414,1.74265,-0.54597,-0.43611,0.60429,0.57022,1.46962,-0.29611,1.77610,-3.24227,0.14737,2.80296,-0.16556,-0.81910,-0.53786,0.11125,0.67822,-23.15500,20.64704
-0.18235,1.75119,-0.53629,-0.47074,0.60643,0.60011,1.43507,-0.45715,1.99476,-2.77244,0.08127,2.14276,-0.14524,-0.81776,-0.54451,0.11699,-0.57209,-18.10219,18.82011
-0.19072,1.75966,-0.52648,-0.49930,0.60690,0.62450,1.41560,-0.52589,2.17243,-2.32281,-0.12123,1.86711,-0.12526,-0.81588,-0.55064,0.12431,-1.61530,-10.59676,15.21789
-0.19985,1.76775,-0.51572,-0.53378,0.60105,0.65960,1.44728,-0.56706,2.36947,-1.69170,-0.49558,2.05754,-0.10381,-0.81300,-0.55726,0.13310,0.70960,-3.44596,11.24025
-0.20844,1.77556,-0.50509,-0.55204,0.59190,0.68485,1.52531,-0.57736,2.46556,-1.40497,-0.98402,2.18304,-0.08398,-0.80847,-0.56502,0.14170,4.95248,-1.74987,8.67051
-0.21709,1.78282,-0.49399,-0.56664,0.57628,0.71125,1.63447,-0.57241,2.53686,-1.03360,-1.52671,2.23787,-0.06413,-0.80251,-0.57369,0.15080,7.80150,1.08992,7.53287
-0.22611,1.78903,-0.48197,-0.58384,0.54694,0.74739,1.71434,-0.67172,2.58521,-0.94539,-1.78499,1.94027,-0.04273,-0.79644,-0.58237,0.15714,6.14710,-4.96152,2.29818
-0.23500,1.79537,-0.47026,-0.59538,0.52589,0.77083,1.74695,-0.70717,2.62410,-1.08340,-1.81647,1.93903,-0.02209,-0.79040,-0.58977,0.16419,2.80147,-5.55095,2.03798
-0.24431,1.80083,-0.45764,-0.61126,0.49542,0.80416,1.84114,-0.69958,2.71579,-1.02107,-1.92175,2.32808,-0.00025,-0.78256,-0.59800,0.17321,4.83805,0.83877,5.33425
-0.25372,1.80576,-0.44461,-0.62363,0.46285,0.83770,1.97047,-0.76423,2.79131,-0.36194,-2.63158,2.61748,0.02315,-0.77340,-0.60718,0.18070,8.52602,-0.34778,7.21891
-0.26296,1.80990,-0.43117,-0.63013,0.42479,0.87067,2.08966,-0.98589,2.78148,-0.30375,-2.95590,2.37636,0.04805,-0.76402,-0.61691,0.18270,11.30880,-13.69220,-1.40497
-0.27193,1.81315,-0.41717,-0.63154,0.38049,0.90446,2.24812,-1.06447,2.75058,-0.26436,-3.26105,2.36547,0.07119,-0.75252,-0.62769,0.18617,11.51903,-8.95348,-3.29473
-0.28087,1.81562,-0.40260,-0.63304,0.33318,0.93876,2.43454,-0.93450,2.81138,-0.28546,-3.38885,2.33674,0.09313,-0.73816,-0.63896,0.19540,12.05156,9.53850,3.98120
-0.29005,1.81691,-0.38759,-0.63798,0.27585,0.97342,2.62450,-0.76497,2.96499,-0.48622,-3.83277,1.96962,0.11633,-0.72164,-0.65003,0.20777,9.67013,11.09913,10.59812
-0.29938,1.81791,-0.37288,-0.64498,0.22747,0.99370,2.74505,-0.72667,3.11862,-0.43220,-4.31744,1.62005,0.14172,-0.70508,-0.65955,0.21858,8.76480,8.35079,14.94399
-0.30909,1.81717,-0.35816,-0.65657,0.16229,1.00874,2.87285,-0.87531,3.26342,-0.78880,-5.08556,0.91207,0.17109,-0.68773,-0.66848,0.22560,10.20324,-7.00581,10.18902
-0.31950,1.81441,-0.34372,-0.67764,0.07725,1.01573,3.06433,-1.31941,3.37051,-1.37580,-5.74647,0.17891,0.20677,-0.66937,-0.67721,0.22491,15.45447,-22.63450,4.43953
-0.33031,1.81114,-0.32987,-0.70088,0.00356,1.01087,3.23944,-1.70360,3.47774,-2.64371,-6.41109,-0.88828,0.24382,-0.64950,-0.68481,0.22302,21.85038,-32.60572,-1.04649
-0.34228,1.80549,-0.31679,-0.73788,-0.09160,0.99394,3.44226,-2.00558,3.80500,-3.06152,-7.22532,-1.95094,0.28620,-0.62541,-0.69021,0.22486,17.68424,-22.81926,16.91615
-0.35477,1.79780,-0.30529,-0.77464,-0.19867,0.95456,3.61066,-2.36623,4.14355,-2.07767,-8.10227,-3.66092,0.33228,-0.59946,-0.69242,0.22537,14.83691,-25.35907,23.87698
-0.36707,1.78825,-0.29571,-0.79843,-0.31118,0.89125,3.79074,-2.77733,4.34654,-1.08184,-8.32494,-5.63177,0.37951,-0.57174,-0.69297,0.22109,19.52244,-29.58062,11.50837
-0.37850,1.77682,-0.28856,-0.80331,-0.42925,0.80348,3.84384,-2.99021,4.67017,0.17136,-8.56125,-7.30587,0.42600,-0.54224,-0.68930,0.22222,9.80076,-21.07912,15.60153
-0.38854,1.76371,-0.28385,-0.78386,-0.54759,0.69583,3.80783,-3.13979,4.97345,2.59258,-8.55976,-8.54167,0.47144,-0.51204,-0.68182,0.22512,-2.01732,-17.00083,20.81082
-0.39633,1.74922,-0.28176,-0.73239,-0.66211,0.57034,3.66664,-3.21596,5.19293,4.80849,-8.09215,-9.65526,0.51361,-0.48285,-0.67125,0.22910,-5.94123,-13.57579,11.89381
-0.40142,1.73343,-0.28203,-0.64713,-0.77091,0.43405,3.45935,-3.17652,5.39085,7.43970,-7.62480,-10.32274,0.55248,-0.45333,-0.65840,0.23618,-15.70574,-7.16870,10.77131
-0.40426,1.71746,-0.28355,-0.54619,-0.85609,0.31064,3.20236,-3.04756,5.56042,9.18712,-6.76459,-10.74792,0.58759,-0.42384,-0.64379,0.24624,-20.90283,-2.22254,9.55092
-0.40086,1.69905,-0.29092,-0.36329,-0.96282,0.11671,2.69487,-2.91366,5.89148,11.34213,-5.13826,-11.35844,0.62127,-0.39619,-0.62206,0.26476,-33.36371,-4.62946,15.38421
-0.39621,1.68211,-0.29906,-0.19688,-1.02280,-0.05050,2.28924,-3.06494,6.05247,13.03119,-3.46298,-12.66776,0.65643,-0.37030,-0.59594,0.27719,-26.54007,-17.17682,5.88422
-0.39080,1.66616,-0.30773,-0.06206,-1.05091,-0.18229,2.06494,-3.38680,6.08363,14.70564,-2.23985,-13.74117,0.69296,-0.34466,-0.56641,0.28320,-18.35283,-30.19834,-0.43300
-0.37358,1.65039,-0.32646,0.23863,-1.06831,-0.45027,2.04261,-4.39155,6.01060,19.66618,0.98777,-14.97888,0.73996,-0.32190,-0.52325,0.27395,15.92824,-51.79443,-7.80400
-0.35311,1.63809,-0.34482,0.53178,-1.02320,-0.65586,2.67132,-5.21576,5.61073,23.07239,5.95014,-13.05118,0.78514,-0.29302,-0.48686,0.24631,54.75564,-44.68204,-13.83754
-0.32901,1.62971,-0.36294,0.81165,-0.92385,-0.80591,3.53320,-5.76542,5.13515,24.51333,11.29507,-11.18794,0.82635,-0.25944,-0.45472,0.20755,93.58211,-16.88955,-16.80975
-0.29423,1.63159,-0.38151,1.20472,-0.67423,-0.92624,4.24011,-6.16990,4.46330,24.68786,20.40479,-4.17393,0.86116,-0.23105,-0.42285,0.16189,68.78683,-5.85985,-20.55038
-0.25867,1.64172,-0.39409,1.52297,-0.34041,-0.91864,4.24280,-6.10218,3.59484,21.66357,27.69880,3.87105,0.88318,-0.21738,-0.39571,0.12708,32.10647,16.18111,-43.76907
-0.22207,1.66140,-0.40002,1.78312,0.07541,-0.80033,3.48172,-5.77333,2.36412,16.46598,32.36153,11.14199,0.89363,-0.22755,-0.37232,0.10498,-14.28117,34.84715,-83.34940
-0.18652,1.68974,-0.39910,1.96361,0.53896,-0.59424,2.13398,-5.40946,0.63897,10.95361,34.72299,16.97376,0.89325,-0.26719,-0.34946,0.09268,-48.42499,40.29657,-131.95190
-0.15197,1.72575,-0.39190,2.08492,1.02217,-0.33124,1.17559,-4.77932,-1.50604,7.87213,34.82630,21.14778,0.88051,-0.32454,-0.33782,0.07241,-34.98946,52.90952,-163.86750
-0.11634,1.76781,-0.37955,2.19730,1.49303,-0.04384,0.76971,-3.95885,-3.70133,9.02293,32.70240,20.97557,0.85628,-0.38907,-0.33726,0.04084,21.78300,68.69330,-156.26990
-0.07679,1.81400,-0.36308,2.35005,1.92173,0.24492,0.61325,-3.26439,-5.78288,13.09540,28.71708,20.87678,0.82155,-0.45958,-0.33740,0.00232,31.91174,56.89972,-148.97450
-0.03089,1.86216,-0.34276,2.57447,2.28197,0.53096,0.91065,-2.70906,-7.60060,18.80331,22.75391,21.02337,0.77764,-0.52745,-0.33880,-0.04790,55.61656,33.25948,-127.64560
0.02541,1.91145,-0.31557,2.92770,2.57971,0.87134,1.53711,-2.24679,-9.35929,25.01154,14.42761,22.40885,0.72041,-0.59384,-0.34114,-0.10952,64.67340,10.19116,-103.81510
0.08800,1.95546,-0.28473,3.30999,2.71853,1.19872,2.02135,-1.83062,-10.69945,29.76183,5.32866,24.43100,0.65455,-0.65371,-0.34063,-0.16793,62.80114,6.74529,-89.48524
0.15572,1.99378,-0.25009,3.68142,2.72475,1.50668,2.27850,-1.53288,-11.78691,31.99832,-4.70029,26.75972,0.57942,-0.70951,-0.33383,-0.22231,49.94781,12.93185,-87.83147
0.23406,2.02212,-0.20562,4.13751,2.55919,1.90305,2.68541,-1.00691,-12.60945,32.12651,-19.31983,29.92746,0.49334,-0.75595,-0.33228,-0.27342,47.51702,13.64338,-63.78761
0.31701,2.03522,-0.15400,4.56278,2.17597,2.32619,3.30530,-0.38424,-12.76247,27.19088,-35.08056,31.34324,0.40879,-0.78508,-0.33924,-0.31852,56.50439,2.82457,-22.82786
0.39861,2.03579,-0.09943,4.86064,1.68261,2.69287,4.18911,-0.00085,-12.27778,21.31511,-46.27890,30.88825,0.33315,-0.79470,-0.35421,-0.36332,74.88227,-18.27258,28.05603
0.48180,2.01054,-0.03607,5.14727,0.87575,3.14265,5.45814,0.17031,-11.51854,15.64878,-54.56890,25.20871,0.26069,-0.78571,-0.37994,-0.41273,66.70889,-69.97707,44.38311
0.55950,1.97771,0.02385,5.31992,0.09858,3.46760,6.11931,0.36519,-11.51614,11.12021,-59.39810,21.39133,0.17241,-0.78116,-0.39130,-0.45491,45.34626,-25.99822,9.62115
0.63599,1.93704,0.08390,5.40765,-0.63354,3.70051,6.70932,0.44902,-11.91310,4.38036,-65.49301,18.46678,0.07125,-0.76959,-0.39444,-0.49706,41.92958,-16.92990,-26.75100
0.70824,1.86204,0.15018,5.35994,-1.74091,3.94639,7.63580,0.91685,-12.34618,-10.61677,-74.55123,11.16670,-0.04518,-0.74572,-0.40375,-0.52805,57.37016,0.10700,-44.11172
0.76818,1.77123,0.21106,5.10205,-2.85331,4.03361,9.01209,2.22950,-11.99986,-26.72387,-81.83960,-1.05745,-0.16457,-0.71051,-0.43680,-0.52659,120.42820,-23.84105,10.75620
0.81930,1.68063,0.26515,4.77415,-3.67197,3.99424,10.25708,3.23358,-11.19142,-38.55156,-81.55636,-8.23495,-0.27299,-0.66338,-0.47488,-0.50980,149.48660,-33.39243,54.84076
0.83499,1.54109,0.30329,3.94232,-5.09122,3.69393,13.03360,4.38167,-9.26904,-53.27047,-75.77647,-25.97736,-0.37857,-0.57997,-0.55806,-0.45704,162.20940,-105.93620,39.43990
0.84869,1.41692,0.33286,3.26199,-5.95611,3.32419,15.34204,4.82333,-8.02049,-61.40576,-68.81881,-37.66505,-0.47891,-0.47600,-0.62062,-0.39863,173.99160,-117.39910,3.62936
0.83688,1.27885,0.34098,2.33455,-6.83080,2.69902,18.64226,4.85428,-6.47636,-72.22265,-55.26613,-53.80542,-0.56701,-0.32414,-0.69198,-0.30755,204.71410,-134.11410,-54.98740
0.78671,1.14231,0.31436,0.95594,-7.50677,1.62221,21.87274,2.97941,-4.95453,-80.22513,-18.74229,-61.35551,-0.60491,-0.12825,-0.75544,-0.21668,165.96300,-132.50430,-124.71920
0.74305,1.03696,0.29337,-0.00642,-7.51445,0.88279,21.47418,0.42840,-4.82087,-79.65686,12.14027,-55.66866,-0.60299,0.02078,-0.77536,-0.18650,2.21285,-80.21841,-182.05150
0.68103,0.95761,0.26491,-1.03165,-7.08824,0.20886,17.77736,-2.18630,-6.06705,-67.52153,39.72558,-36.77158,-0.57650,0.11182,-0.77364,-0.23799,-219.15180,52.12424,-200.38840
0.61850,0.89932,0.24605,-1.82216,-6.40683,-0.15034,12.32780,-3.01069,-8.07742,-47.35721,53.40210,-16.47065,-0.55928,0.14620,-0.74126,-0.34112,-296.22860,216.40950,-183.77040
0.56355,0.85347,0.23839,-2.30263,-5.68248,-0.23953,6.58641,-1.57707,-8.79304,-24.69594,51.24477,0.18370,-0.56332,0.11166,-0.68963,-0.44116,-305.92240,328.38570,-31.81392
0.51384,0.81250,0.23639,-2.58890,-5.04763,-0.21635,2.79603,-0.32035,-8.38156,-15.87150,44.80761,2.56234,-0.56294,0.07540,-0.64645,-0.50943,-214.71360,247.18550,38.83521
0.46467,0.77473,0.23445,-2.80353,-4.50996,-0.19981,0.48234,0.54724,-7.91041,-13.68273,35.69974,-0.38564,-0.55914,0.05212,-0.60626,-0.56311,-134.31470,147.39170,52.23217
0.41425,0.73863,0.22970,-2.98936,-4.06863,-0.23394,-0.56844,0.84437,-7.68467,-11.69681,30.33893,-4.41157,-0.55242,0.05219,-0.56916,-0.60677,-66.20702,79.96832,19.27437
0.36287,0.70524,0.22082,-3.14900,-3.68496,-0.32853,-0.76344,0.54145,-7.44599,-9.62181,26.87258,-8.85624,-0.54153,0.07202,-0.54208,-0.63852,-30.47145,0.85156,18.45543
0.31290,0.67255,0.20909,-3.24787,-3.38246,-0.44723,-0.55738,0.11588,-7.16219,-6.35343,25.21140,-11.31140,-0.53164,0.10078,-0.51957,-0.66125,-7.33520,-32.34877,21.22122
0.26383,0.64885,0.19155,-3.30885,-3.00329,-0.63387,-0.09932,-0.39620,-6.62536,-1.33613,23.20436,-12.24625,-0.52388,0.13335,-0.50551,-0.67248,11.10822,-44.76250,33.09116
0.21886,0.62576,0.17296,-3.28995,-2.69497,-0.79623,0.27218,-0.44448,-6.12809,3.17849,21.07419,-11.44203,-0.52306,0.15861,-0.48632,-0.68173,18.64383,-22.64744,36.64165
0.17797,0.60524,0.15322,-3.21006,-2.41546,-0.94147,0.65553,-0.09689,-5.59926,7.36822,19.72314,-10.03407,-0.53118,0.17583,-0.46291,-0.68749,31.30815,5.31189,36.94904
0.14001,0.58590,0.13348,-3.10226,-2.18391,-1.05096,0.97890,0.44449,-5.09622,9.92540,18.95525,-8.56723,-0.54480,0.18597,-0.43629,-0.69157,39.42625,24.92770,42.27289
0.10747,0.57307,0.11177,-2.93087,-1.89995,-1.16658,1.38196,1.23373,-4.43817,11.26727,17.10608,-6.05558,-0.56815,0.18617,-0.40782,-0.69009,42.24367,37.87853,42.15218
0.07752,0.56291,0.09073,-2.75133,-1.62735,-1.24841,1.69189,1.97717,-3.91655,11.01242,17.08235,-4.38481,-0.59168,0.18310,-0.37684,-0.68875,33.06305,32.88735,38.82020
0.04767,0.55220,0.07080,-2.61157,-1.42765,-1.29220,1.95536,2.66866,-3.72610,12.02673,16.51360,-3.15844,-0.61476,0.18065,-0.33812,-0.68928,37.07010,46.18639,20.21664
0.02391,0.54589,0.05003,-2.40921,-1.16363,-1.33843,2.27251,3.33132,-3.29640,13.83470,17.58730,-2.41237,-0.64198,0.17136,-0.30149,-0.68381,34.69283,36.35123,25.42077
0.00206,0.53934,0.02947,-2.22101,-0.93511,-1.36723,2.55583,3.71135,-2.91426,14.02032,16.91808,-1.08297,-0.66705,0.16359,-0.26772,-0.67573,30.88349,21.48946,26.23872
-0.02050,0.53308,0.00996,-2.08758,-0.78127,-1.36985,2.70886,3.80993,-2.60021,13.84926,15.86300,0.94702,-0.68818,0.15805,-0.23781,-0.66699,30.47294,11.23309,24.41340
-0.03537,0.53823,-0.00682,-1.85651,-0.50516,-1.32898,2.76406,3.70687,-2.11636,12.44645,15.02882,3.83315,-0.70712,0.15071,-0.21660,-0.65601,8.88499,-12.83975,26.83728
-0.05086,0.54330,-0.02144,-1.68148,-0.30107,-1.26292,2.74543,3.66240,-1.97193,12.67477,14.36281,5.83978,-0.72290,0.14627,-0.18968,-0.64811,2.82373,-6.62795,12.45179
-0.06358,0.55039,-0.03353,-1.50121,-0.11120,-1.16976,2.62820,3.58349,-1.91814,13.33320,12.38136,7.63571,-0.73541,0.14275,-0.16272,-0.64211,-6.72240,-2.73858,5.31652
-0.07389,0.55784,-0.04274,-1.31845,0.03859,-1.04895,2.24979,3.26112,-1.80350,13.86272,8.80300,9.91461,-0.74112,0.14082,-0.14381,-0.64049,-16.72019,-15.29462,7.87860
-0.07185,0.56357,-0.04539,-0.95929,0.12191,-0.84171,1.94988,4.64761,-1.24986,44.22673,-0.42330,21.27907,-0.75455,0.09926,-0.10208,-0.64061,-54.35728,-43.81260,37.35305
-0.04202,0.56386,-0.03659,-0.23606,0.09814,-0.49918,1.40920,7.72736,0.43454,44.71298,-3.78601,14.11583,-0.76946,-0.01538,-0.03452,-0.63757,51.79724,358.39090,83.69868
-0.02324,0.57500,-0.03326,0.12169,0.14280,-0.34363,0.55866,7.08154,1.29985,14.88968,6.87391,5.94558,-0.76280,-0.06255,-0.02980,-0.64292,-18.90429,-63.56951,153.05680
-0.01086,0.59009,-0.03397,0.29397,0.24834,-0.29165,0.01117,5.81533,0.79975,11.09544,6.23826,0.60640,-0.75472,-0.06727,-0.01670,-0.65237,-47.52386,-59.08972,-38.80119
-0.00127,0.60211,-0.03597,0.38271,0.33155,-0.26482,-0.61195,3.43790,0.70792,4.00183,3.36349,1.42560,-0.74204,-0.05135,-0.04183,-0.66708,-39.18512,-165.52380,14.83017
0.00777,0.60816,-0.03838,0.44643,0.35480,-0.24331,-1.04585,1.26300,0.78567,5.77449,1.02081,1.27904,-0.72844,-0.03108,-0.07755,-0.68000,-25.30640,-163.61620,9.63608
0.02135,0.61441,-0.04105,0.57442,0.37683,-0.23110,-1.44989,-0.71390,1.38002,9.28691,1.11802,0.91783,-0.71062,-0.01646,-0.12950,-0.69136,-16.52092,-131.81560,43.25674
0.03661,0.62010,-0.04416,0.69891,0.38406,-0.22925,-1.57011,-1.53201,1.86605,10.28605,0.54824,0.51924,-0.69676,-0.01571,-0.16678,-0.69747,-12.31568,-86.83287,52.05848
0.05688,0.62563,-0.04755,0.88230,0.38635,-0.23295,-1.49935,-1.89866,2.45592,11.61176,0.49731,-0.09107,-0.68587,-0.02391,-0.20280,-0.69849,2.38992,-27.09605,39.95756
0.07758,0.63150,-0.05122,1.02763,0.39422,-0.24002,-1.36171,-1.67882,2.78792,11.64919,1.21576,-0.28255,-0.67862,-0.03932,-0.22575,-0.69783,5.55266,7.14008,33.88534
0.10199,0.63811,-0.05526,1.19796,0.41311,-0.25167,-1.16677,-0.90539,2.95686,11.72949,1.97640,-0.75307,-0.67636,-0.06498,-0.23428,-0.69529,3.36240,48.85371,13.16805
0.12850,0.64588,-0.05988,1.36273,0.44690,-0.27023,-0.96701,0.16721,3.00791,11.36158,3.19714,-1.64647,-0.67766,-0.09862,-0.23112,-0.69111,0.57871,74.42379,1.23760
