posX, posY, posZ, velX, velY, velZ, angVelX, angVelY, angVelZ, accX, accY, accZ, rotX, rotY, rotZ, rotW, angAccX, angAccY, angAccZ
-0.04387,1.20730,-0.52551,-0.15022,0.13948,0.00866,-0.05101,0.22254,0.13799,1.22449,-1.36702,0.01406,-0.19290,-0.95272,-0.02605,-0.23331,-5.77601,3.08592,-4.50537
-0.04487,1.20800,-0.52535,-0.13252,0.11867,0.01055,-0.11008,0.26625,0.11163,1.09702,-1.17674,0.21679,-0.19231,-0.95346,-0.02362,-0.23101,-3.78415,2.90555,-1.88021
-0.04602,1.20903,-0.52510,-0.12136,0.10861,0.01293,-0.14467,0.28044,0.11074,1.12989,-0.80805,0.31518,-0.19124,-0.95417,-0.02166,-0.22917,-4.07044,2.28942,-0.75411
-0.04672,1.20980,-0.52458,-0.10538,0.09697,0.01995,-0.20675,0.25898,0.15624,0.94798,-0.57524,0.59703,-0.18861,-0.95494,-0.01920,-0.22836,-4.16991,-0.74933,2.56760
-0.04733,1.21073,-0.52384,-0.09145,0.09105,0.02949,-0.24209,0.21832,0.19210,1.00149,-0.23135,0.73583,-0.18599,-0.95553,-0.01718,-0.22819,-4.00118,-2.87011,3.29857
-0.04776,1.21189,-0.52276,-0.07744,0.09020,0.04246,-0.20314,0.17071,0.20912,0.94557,0.02848,1.01905,-0.18408,-0.95592,-0.01701,-0.22813,1.70510,-3.47819,1.59115
-0.04805,1.21320,-0.52131,-0.06411,0.09115,0.05735,-0.16103,0.10890,0.22079,0.98549,0.10934,1.08828,-0.18233,-0.95612,-0.01737,-0.22868,3.82910,-3.51186,0.24574
-0.04824,1.21453,-0.51988,-0.05233,0.09227,0.06834,-0.15552,0.05072,0.22052,0.95470,0.04553,0.84867,-0.18062,-0.95619,-0.01699,-0.22974,1.15482,-5.37222,0.98377
-0.04800,1.21589,-0.51821,-0.03591,0.09355,0.08072,-0.13056,-0.00410,0.16140,0.99558,0.08529,0.65049,-0.18064,-0.95587,-0.01682,-0.23106,0.69334,-4.25438,-2.30095
-0.04760,1.21684,-0.51705,-0.02291,0.09639,0.08998,-0.06780,-0.01840,0.07814,1.11778,0.32016,0.85778,-0.18237,-0.95549,-0.01762,-0.23125,4.68349,-0.96554,-6.65077
-0.04699,1.21882,-0.51483,-0.00560,0.10378,0.10397,0.00995,-0.09305,-0.01176,0.99682,0.63476,0.90201,-0.18451,-0.95459,-0.01914,-0.23311,4.24721,-4.36381,-5.41250
-0.04631,1.22126,-0.51231,0.00758,0.11565,0.11763,0.14778,-0.13645,-0.12852,0.81285,1.03580,0.93204,-0.18874,-0.95338,-0.02259,-0.23438,8.43809,-3.46068,-7.76929
-0.04562,1.22394,-0.50987,0.01764,0.13501,0.13262,0.32588,-0.19937,-0.24070,0.49510,1.41063,0.91466,-0.19408,-0.95179,-0.02803,-0.23589,11.94403,-3.55688,-7.95080
-0.04519,1.22677,-0.50760,0.02076,0.15189,0.14085,0.41509,-0.26043,-0.28708,0.11686,1.49754,0.65141,-0.19802,-0.95030,-0.03253,-0.23802,9.11297,-5.17812,-5.13998
-0.04504,1.23020,-0.50532,0.01807,0.17548,0.14700,0.42848,-0.36479,-0.27644,-0.28025,1.63209,0.34157,-0.20038,-0.94868,-0.03626,-0.24196,2.89579,-5.59692,-1.04757
-0.04513,1.23368,-0.50338,0.01178,0.19505,0.14662,0.37577,-0.44781,-0.19028,-0.63968,1.79771,-0.24143,-0.20006,-0.94752,-0.03873,-0.24634,-4.67126,-8.19909,5.83753
-0.04559,1.23777,-0.50169,0.00053,0.22010,0.14214,0.38420,-0.47957,-0.11896,-1.05863,1.76259,-0.60932,-0.19982,-0.94654,-0.04237,-0.24967,-2.20726,-4.68691,6.50926
-0.04648,1.24237,-0.50026,-0.01529,0.24866,0.13446,0.55646,-0.43055,-0.13999,-1.11848,1.75642,-0.72668,-0.20284,-0.94544,-0.04958,-0.25010,8.96138,2.40789,0.07230
-0.04738,1.24697,-0.49895,-0.02751,0.27093,0.12708,0.80807,-0.32313,-0.25203,-1.22944,1.84917,-0.90169,-0.20944,-0.94402,-0.05904,-0.24796,16.71240,6.21552,-4.91324
-0.04867,1.25217,-0.49787,-0.04328,0.29798,0.11824,1.21795,-0.13020,-0.44913,-1.18787,1.95825,-0.64693,-0.22091,-0.94211,-0.07321,-0.24140,29.07880,13.17846,-12.53228
-0.05036,1.25786,-0.49702,-0.06233,0.32731,0.10688,1.54811,0.03464,-0.60742,-1.09782,1.89479,-0.41509,-0.23274,-0.93985,-0.08767,-0.23414,24.73752,12.36900,-10.77551
-0.05209,1.26347,-0.49621,-0.07728,0.34857,0.09806,1.64072,0.06361,-0.63094,-1.26953,1.82169,-0.43581,-0.24060,-0.93768,-0.09898,-0.23036,11.92796,4.92112,-4.23067
-0.05439,1.26916,-0.49533,-0.09789,0.36524,0.09272,1.61370,-0.03460,-0.63234,-2.09904,1.17760,-0.08125,-0.24703,-0.93492,-0.10848,-0.23051,1.78205,-3.21485,0.40066
-0.05735,1.27606,-0.49536,-0.12445,0.39988,0.07278,1.45047,-0.04959,-0.40905,-0.68449,2.50100,-1.67022,-0.24670,-0.93446,-0.11498,-0.22957,-10.55407,1.38612,10.97212
-0.05979,1.28290,-0.49560,-0.13693,0.42423,0.05405,1.37082,-0.01832,-0.32440,-1.74676,1.64985,-1.65901,-0.24876,-0.93358,-0.12204,-0.22727,-8.92503,-2.95320,14.00047
-0.06297,1.29016,-0.49607,-0.15865,0.44988,0.03641,1.47980,0.12328,-0.35418,-1.54660,1.87155,-1.30882,-0.25491,-0.93211,-0.13222,-0.22069,5.20954,9.44061,-0.79045
-0.06632,1.29779,-0.49668,-0.17784,0.47516,0.01956,1.59654,0.24791,-0.40737,-1.31838,1.73882,-1.12665,-0.26218,-0.93020,-0.14302,-0.21339,9.72037,9.50451,-2.58747
-0.07003,1.30579,-0.49771,-0.19887,0.50168,0.00010,1.66821,0.34889,-0.43649,-1.38232,1.64410,-1.13983,-0.26903,-0.92826,-0.15336,-0.20602,6.07901,7.14021,-1.90352
-0.07397,1.31405,-0.49882,-0.21905,0.52494,-0.01812,1.65977,0.43219,-0.42678,-1.43596,1.75170,-1.29237,-0.27460,-0.92669,-0.16211,-0.19888,0.37946,5.44546,0.98263
-0.07827,1.32267,-0.50025,-0.24068,0.54932,-0.03734,1.56671,0.48944,-0.34870,-1.52126,1.78927,-1.21967,-0.27775,-0.92593,-0.16900,-0.19224,-4.15876,5.04161,4.40452
-0.08316,1.33180,-0.50212,-0.26769,0.57704,-0.05950,1.36840,0.50055,-0.20223,-1.83165,1.78768,-1.42120,-0.27773,-0.92618,-0.17329,-0.18714,-12.50974,-0.93088,9.86958
-0.08806,1.34094,-0.50382,-0.28835,0.59870,-0.07335,1.32266,0.56737,-0.12235,-1.79362,1.84795,-1.14507,-0.27933,-0.92595,-0.17962,-0.17980,-7.50246,3.05235,8.19752
-0.09347,1.35018,-0.50574,-0.31268,0.62371,-0.08331,1.36776,0.65883,-0.05907,-1.85154,1.90025,-0.49031,-0.28141,-0.92546,-0.18766,-0.17065,1.09512,6.19769,5.60211
-0.09933,1.35974,-0.50735,-0.33892,0.64778,-0.08510,1.49249,0.74378,0.00353,-1.93525,1.70798,0.07116,-0.28362,-0.92448,-0.19807,-0.16022,8.72824,5.87373,4.78507
-0.10555,1.36961,-0.50864,-0.36487,0.66789,-0.08310,1.59866,0.80237,0.07320,-1.76429,1.19605,0.29518,-0.28521,-0.92336,-0.20894,-0.14965,9.32982,4.86177,5.04098
-0.11196,1.37918,-0.51005,-0.38731,0.68016,-0.08227,1.59464,0.82123,0.13662,-1.39205,0.56543,0.13419,-0.28593,-0.92256,-0.21780,-0.14035,2.32469,1.78560,4.99120
-0.11831,1.38854,-0.51160,-0.40315,0.68561,-0.08384,1.53745,0.82322,0.15238,-1.02923,0.23439,-0.17658,-0.28713,-0.92166,-0.22508,-0.13203,-3.86596,-0.86271,2.70989
-0.12451,1.39800,-0.51305,-0.41287,0.68806,-0.08565,1.48193,0.83468,0.13609,-0.68109,0.24712,-0.02756,-0.28911,-0.92055,-0.23177,-0.12366,-4.00497,1.84355,-1.07744
-0.13112,1.40725,-0.51471,-0.42672,0.69179,-0.08688,1.36744,0.80637,0.13773,-1.10603,0.33736,-0.07788,-0.29014,-0.91982,-0.23683,-0.11689,-8.01950,-2.89302,0.18527
-0.13792,1.41670,-0.51623,-0.44060,0.69514,-0.08695,1.34762,0.84941,0.13374,-1.29088,0.36339,-0.11717,-0.29196,-0.91871,-0.24313,-0.10779,-3.72506,1.18510,0.36398
-0.14513,1.42636,-0.51761,-0.45820,0.69870,-0.08692,1.39552,0.95850,0.10337,-1.40555,0.25975,-0.08873,-0.29521,-0.91702,-0.25033,-0.09620,1.98187,6.55825,-1.08858
-0.15284,1.43579,-0.51915,-0.47958,0.70170,-0.08652,1.53947,1.17573,0.01361,-1.40918,0.29080,0.03609,-0.30137,-0.91414,-0.25892,-0.08054,7.61970,12.98121,-3.81745
-0.16055,1.44544,-0.52033,-0.49627,0.70646,-0.08055,1.73959,1.41108,-0.10452,-1.11131,0.46092,0.83303,-0.30949,-0.90990,-0.26903,-0.06254,12.90038,18.56062,-7.39935
-0.16837,1.45548,-0.52065,-0.51111,0.71314,-0.06446,1.92627,1.58452,-0.21745,-0.81039,0.58329,1.60864,-0.31819,-0.90466,-0.27994,-0.04453,13.39754,14.78909,-8.82865
-0.17626,1.46558,-0.52041,-0.52282,0.72166,-0.04068,1.98044,1.60258,-0.24801,-0.56072,0.62070,2.24629,-0.32432,-0.90001,-0.28967,-0.02984,7.39673,5.95793,-4.26978
-0.18427,1.47582,-0.51967,-0.53374,0.72935,-0.01503,1.93182,1.50847,-0.19754,-0.89987,0.64876,2.42025,-0.32737,-0.89646,-0.29809,-0.01841,-2.22070,-6.02107,1.56390
-0.19275,1.48639,-0.51767,-0.55067,0.73842,0.02384,1.85773,1.38832,-0.09574,-1.07855,0.49500,2.49947,-0.32819,-0.89363,-0.30602,-0.00815,-4.34455,-9.12087,5.76954
-0.20127,1.49682,-0.51540,-0.56434,0.74318,0.05824,1.81357,1.29878,-0.03241,-0.91438,0.25082,2.39091,-0.32939,-0.89039,-0.31417,0.00225,-3.19565,-7.31630,4.44491
-0.20990,1.50721,-0.51253,-0.57679,0.74636,0.09556,1.78534,1.25316,-0.00331,-0.79726,0.18589,2.25248,-0.33120,-0.88678,-0.32213,0.01313,-1.95819,-4.34640,2.26147
-0.21842,1.51754,-0.50963,-0.58426,0.74751,0.12427,1.84407,1.28553,-0.02088,-0.61369,0.18902,2.38338,-0.33452,-0.88182,-0.33138,0.02617,1.76516,0.54480,-0.17570
-0.22707,1.52781,-0.50591,-0.59170,0.74818,0.16029,1.95251,1.34130,-0.05035,-0.48340,0.01145,2.67766,-0.33847,-0.87573,-0.34189,0.04053,7.33213,4.70121,-2.83449
-0.23595,1.53798,-0.50141,-0.60193,0.74632,0.20140,2.02930,1.36453,-0.05618,-0.66667,-0.24644,2.52429,-0.34170,-0.86956,-0.35233,0.05446,5.53113,1.84826,-0.73617
-0.24497,1.54791,-0.49716,-0.61104,0.74211,0.22948,2.06176,1.39461,-0.05410,-0.85043,-0.45121,2.28778,-0.34475,-0.86343,-0.36186,0.06849,2.75827,1.62782,0.09058
-0.25431,1.55760,-0.49243,-0.62295,0.73528,0.25917,2.06345,1.44384,-0.02705,-0.76783,-0.45822,2.07371,-0.34732,-0.85747,-0.37040,0.08324,0.96259,3.35334,1.67127
-0.26397,1.56727,-0.48719,-0.63858,0.72865,0.29063,2.03623,1.48101,0.04681,-1.12743,-0.30719,1.97438,-0.34855,-0.85203,-0.37805,0.09817,-1.39093,2.39430,3.60924
-0.27375,1.57698,-0.48216,-0.65391,0.72509,0.31224,1.96643,1.47902,0.17018,-1.23509,-0.29623,1.84772,-0.34778,-0.84765,-0.38456,0.11252,-2.67147,-0.27778,8.78440
-0.28390,1.58663,-0.47675,-0.67127,0.72167,0.33563,1.87825,1.48023,0.30493,-1.33605,-0.14711,1.66248,-0.34594,-0.84391,-0.38990,0.12696,-6.63025,-2.49733,10.38080
-0.29447,1.59612,-0.47071,-0.69193,0.71444,0.36469,1.80843,1.56128,0.45042,-0.97026,-0.62245,1.65615,-0.34387,-0.84006,-0.39418,0.14380,-3.08144,4.16494,9.75617
-0.30470,1.60554,-0.46492,-0.70138,0.70700,0.38414,1.73965,1.58419,0.52789,-0.64776,-0.74745,1.92324,-0.34225,-0.83593,-0.39843,0.15919,-4.20299,2.42346,7.35862
-0.31517,1.61453,-0.45849,-0.71192,0.69393,0.41061,1.60640,1.49049,0.65445,-0.48657,-1.18922,2.16005,-0.33806,-0.83363,-0.40152,0.17191,-6.78137,-4.22780,8.67979
-0.32545,1.62319,-0.45140,-0.71765,0.67805,0.43926,1.46083,1.34554,0.75549,-0.33761,-1.12587,2.10533,-0.33303,-0.83219,-0.40411,0.18233,-10.86334,-13.36171,7.92838
-0.33549,1.63133,-0.44396,-0.71832,0.65849,0.46857,1.39610,1.27332,0.81130,0.12660,-1.54414,2.12648,-0.32869,-0.82969,-0.40742,0.19388,-4.35511,-6.26688,4.64671
-0.34513,1.63922,-0.43637,-0.71193,0.63897,0.49193,1.34718,1.21319,0.80372,0.80392,-1.61591,1.99872,-0.32543,-0.82665,-0.41090,0.20471,-3.98855,-5.19929,1.68871
-0.35400,1.64648,-0.42784,-0.69364,0.61224,0.52379,1.32804,1.16438,0.73508,1.25959,-1.76958,2.05204,-0.32356,-0.82271,-0.41506,0.21490,-1.51946,-2.15118,-4.37809
-0.36267,1.65352,-0.41910,-0.67599,0.58699,0.55055,1.28561,1.09716,0.67902,1.35542,-1.80576,1.86450,-0.32149,-0.81914,-0.41887,0.22405,-2.53831,-4.67557,-3.10004
-0.37114,1.66047,-0.41014,-0.65828,0.56536,0.57311,1.31158,1.13354,0.59381,1.28043,-1.70301,1.86522,-0.32109,-0.81379,-0.42342,0.23530,-1.36275,-1.19656,-6.51045
-0.37904,1.66674,-0.40065,-0.63691,0.53834,0.59860,1.39656,1.23028,0.49112,1.77425,-2.08530,1.63619,-0.32204,-0.80657,-0.42903,0.24834,6.31397,8.43924,-7.36029
-0.38606,1.67246,-0.39105,-0.60518,0.50730,0.61944,1.39358,1.28226,0.35198,2.19582,-2.05111,1.10522,-0.32451,-0.79966,-0.43355,0.25937,-0.15246,4.20341,-8.58673
-0.39313,1.67830,-0.38190,-0.58370,0.48739,0.62911,1.35717,1.27293,0.27280,2.32742,-2.06737,0.88227,-0.32598,-0.79370,-0.43746,0.26907,-2.92497,2.96451,-8.31468
-0.39905,1.68332,-0.37250,-0.54810,0.45717,0.63826,1.20623,1.17639,0.16394,2.19715,-1.95330,0.34373,-0.32841,-0.78946,-0.43970,0.27489,-8.49051,-4.33923,-6.96515
-0.40487,1.68820,-0.36328,-0.51916,0.42984,0.64120,1.02442,1.05135,0.11445,1.54089,-1.43895,-0.00390,-0.32979,-0.78679,-0.44067,0.27930,-13.00583,-8.48890,-3.28059
-0.41073,1.69325,-0.35422,-0.49663,0.41244,0.64150,0.95860,1.09396,0.07749,1.30921,-0.91589,-0.03085,-0.33222,-0.78207,-0.44195,0.28754,-7.50267,-0.74083,-2.37601
-0.41637,1.69828,-0.34512,-0.47589,0.39929,0.64248,0.99114,1.24055,0.05208,1.47888,-0.85768,0.09242,-0.33538,-0.77518,-0.44393,0.29924,1.42999,10.76947,-2.14317
-0.42175,1.70316,-0.33586,-0.45585,0.38629,0.64588,1.08898,1.37353,0.03206,1.35117,-0.86502,0.26588,-0.33817,-0.76699,-0.44723,0.31202,4.63124,9.71432,-1.00656
-0.42693,1.70760,-0.32669,-0.43646,0.36892,0.64726,1.17896,1.46620,0.07511,1.46602,-1.42081,-0.24153,-0.33938,-0.75891,-0.45047,0.32551,8.22078,8.65747,1.32909
-0.43200,1.71198,-0.31796,-0.41976,0.35510,0.64012,1.09373,1.36131,0.15145,1.85143,-1.39060,-0.91239,-0.33865,-0.75476,-0.45161,0.33422,-1.24660,-3.81037,6.15973
-0.43626,1.71603,-0.30980,-0.39374,0.33886,0.62513,0.90145,1.18748,0.20067,2.03302,-1.16610,-1.16000,-0.33799,-0.75319,-0.45086,0.33940,-13.16394,-13.56289,5.03588
-0.43989,1.71988,-0.30187,-0.36252,0.32364,0.61047,0.77198,1.06167,0.20845,2.23125,-0.87543,-0.93746,-0.33792,-0.75109,-0.45063,0.34440,-11.23020,-11.86925,1.59823
-0.44286,1.72360,-0.29379,-0.32730,0.30974,0.60160,0.76875,1.06954,0.15241,2.48137,-0.81683,-0.40752,-0.33966,-0.74606,-0.45198,0.35177,-2.85132,-0.94423,-2.87635
-0.44537,1.72717,-0.28553,-0.29269,0.29669,0.59829,0.83602,1.07218,0.09750,2.58909,-0.91133,-0.22449,-0.34096,-0.73985,-0.45501,0.35962,4.96205,2.18873,-4.58187
-0.44771,1.73068,-0.27729,-0.26380,0.28613,0.59616,0.88530,0.99893,0.08786,2.50661,-0.92191,-0.15587,-0.34054,-0.73470,-0.45844,0.36618,3.53518,-3.41907,-2.55306
-0.44933,1.73382,-0.26908,-0.22958,0.27160,0.59355,0.90986,0.79970,0.13494,2.03930,-0.95981,-0.27926,-0.33716,-0.73171,-0.46250,0.37016,2.35833,-11.91748,1.11718
-0.45085,1.73693,-0.26113,-0.20103,0.25992,0.58720,0.88500,0.61738,0.22024,2.16336,-0.85756,-0.61667,-0.33269,-0.73011,-0.46536,0.37376,0.07866,-13.61128,5.54515
-0.45210,1.74000,-0.25342,-0.17496,0.25048,0.57894,0.84412,0.44527,0.26831,2.23212,-0.83220,-0.82840,-0.32833,-0.72903,-0.46822,0.37615,-2.54015,-13.92298,4.26314
-0.45258,1.74284,-0.24615,-0.14259,0.23943,0.56467,0.79907,0.33434,0.32046,2.31586,-0.70377,-1.24485,-0.32395,-0.72815,-0.47036,0.37897,-3.42362,-11.64638,3.73036
-0.45222,1.74552,-0.23930,-0.10391,0.22803,0.54708,0.78067,0.39404,0.31377,2.85820,-0.93220,-1.25338,-0.32245,-0.72494,-0.47185,0.38452,-1.98563,1.70263,1.08892
-0.45427,1.74798,-0.23341,-0.06117,0.21073,0.52891,0.79359,0.48353,0.24927,3.42140,-1.31059,-1.01692,-0.32250,-0.72026,-0.47412,0.39043,-0.16046,6.11084,-3.13672
-0.46040,1.75058,-0.22813,-0.02757,0.19367,0.51885,0.83286,0.54592,0.12412,3.98035,-1.61853,-0.67560,-0.32369,-0.71452,-0.47788,0.39538,2.18403,5.85095,-7.50686
-0.46565,1.75269,-0.22271,0.00938,0.17350,0.51212,0.84033,0.48628,-0.02967,4.07014,-1.82719,-0.61423,-0.32491,-0.70964,-0.48289,0.39706,1.85372,-0.56296,-11.25405
-0.46280,1.75377,-0.21624,0.06817,0.14945,0.50295,0.78864,0.35015,-0.20539,3.60687,-1.28225,-0.40403,-0.32673,-0.70603,-0.48818,0.39553,-4.55061,-8.97970,-11.20084
-0.45944,1.75497,-0.20943,0.10985,0.13410,0.49949,0.81418,0.35753,-0.33275,3.08345,-1.10722,-0.16403,-0.32917,-0.70028,-0.49368,0.39691,-0.10625,-3.53272,-11.27538
-0.45565,1.75606,-0.20258,0.14768,0.12125,0.49794,0.87529,0.47406,-0.45325,2.85903,-0.94848,0.02524,-0.33323,-0.69225,-0.49924,0.40063,3.74767,6.40397,-9.43515
-0.45062,1.75667,-0.19545,0.19810,0.10282,0.50150,1.02963,0.74224,-0.62509,2.64726,-1.04704,0.34699,-0.34016,-0.67962,-0.50601,0.40787,8.77398,16.58977,-9.24285
-0.44623,1.75740,-0.18813,0.22626,0.09069,0.50738,1.10794,0.82118,-0.71073,2.42311,-1.03744,0.63147,-0.34474,-0.66939,-0.51258,0.41271,7.36830,11.39055,-7.58090
-0.44139,1.75781,-0.18032,0.25510,0.07606,0.52030,1.17747,0.70532,-0.77771,1.62030,-0.83185,0.79609,-0.34675,-0.66091,-0.52103,0.41410,4.94223,-4.32797,-5.78625
-0.43697,1.75840,-0.17244,0.27015,0.06798,0.53142,1.19466,0.49701,-0.76349,0.77701,-0.51452,0.79471,-0.34608,-0.65500,-0.52921,0.41369,1.61956,-14.52811,-1.20284
-0.43282,1.75906,-0.16438,0.27673,0.06291,0.54311,1.23913,0.32601,-0.70329,0.10440,-0.18757,0.86488,-0.34380,-0.64927,-0.53747,0.41398,1.49952,-13.97227,2.43857
-0.42897,1.75983,-0.15630,0.27672,0.06122,0.55197,1.29602,0.23923,-0.61735,-0.24256,-0.11734,0.66574,-0.34097,-0.64300,-0.54526,0.41592,4.87715,-9.08343,5.09387
-0.42549,1.76061,-0.14800,0.27011,0.05995,0.56254,1.32056,0.05787,-0.48151,-0.48484,-0.15764,0.68323,-0.33523,-0.63900,-0.55294,0.41660,2.25039,-10.86136,7.85741
-0.42219,1.76142,-0.13958,0.26204,0.05946,0.57283,1.34258,-0.12383,-0.37261,-0.64140,0.08250,0.72333,-0.32866,-0.63550,-0.56095,0.41649,0.51703,-14.75168,7.20535
-0.41888,1.76228,-0.13121,0.25628,0.06010,0.57944,1.36770,-0.20720,-0.30544,-0.72996,0.10660,0.66940,-0.32297,-0.63102,-0.56871,0.41723,1.78007,-11.44247,5.86349
-0.41588,1.76334,-0.12254,0.24688,0.06389,0.58951,1.41453,-0.31903,-0.21104,-0.36412,0.29823,0.40901,-0.31526,-0.62698,-0.57685,0.41802,3.24275,-6.73123,5.03519
-0.41249,1.76453,-0.11383,0.24620,0.06914,0.59873,1.48785,-0.33499,-0.17673,0.17319,0.33808,0.97121,-0.30897,-0.62115,-0.58530,0.41968,2.16401,-3.48106,2.66495
-0.40887,1.76558,-0.10474,0.24964,0.07073,0.61220,1.59071,-0.37566,-0.21460,0.47546,0.15159,1.24058,-0.30280,-0.61405,-0.59550,0.42028,9.20640,0.50038,-1.07869
-0.40510,1.76675,-0.09501,0.25491,0.07407,0.63364,1.73300,-0.41460,-0.26097,0.26901,0.31668,1.50891,-0.29594,-0.60572,-0.60700,0.42080,7.91103,-3.86717,-3.28979
-0.40129,1.76790,-0.08514,0.25965,0.07619,0.65222,1.87426,-0.39457,-0.28918,0.45054,0.17010,1.70533,-0.28928,-0.59611,-0.61840,0.42254,11.26934,1.25288,-1.75488
-0.39737,1.76910,-0.07472,0.26484,0.07860,0.67551,1.99622,-0.43917,-0.32355,0.56381,0.23158,1.61231,-0.28156,-0.58654,-0.63064,0.42308,11.67672,-0.73208,-2.23083
-0.39328,1.77039,-0.06381,0.27185,0.08204,0.70167,2.12257,-0.48129,-0.35177,0.41582,0.18711,2.19038,-0.27323,-0.57633,-0.64332,0.42348,7.45495,-3.90805,-2.66002
-0.38923,1.77149,-0.05217,0.27629,0.08123,0.73430,2.26639,-0.57866,-0.36529,0.33565,-0.26836,2.63438,-0.26289,-0.56582,-0.65702,0.42316,10.84276,-4.87719,-1.45438
-0.38519,1.77216,-0.03946,0.27966,0.07301,0.77774,2.49816,-0.73954,-0.38983,0.32876,-0.83827,3.52143,-0.24960,-0.55371,-0.67318,0.42182,13.91231,-9.13107,-1.68341
-0.38134,1.77210,-0.02569,0.27885,0.05413,0.82867,2.75352,-1.02753,-0.44983,-0.19219,-1.74960,3.93406,-0.23272,-0.54130,-0.69195,0.41719,17.58643,-18.63195,-6.49006
-0.37771,1.77129,-0.01137,0.27457,0.02740,0.87592,3.04332,-1.29783,-0.49428,-0.42479,-2.59036,3.89897,-0.21320,-0.52709,-0.71203,0.41200,21.86172,-21.05615,-5.47694
-0.37478,1.76907,0.00408,0.25912,-0.01681,0.93091,3.30183,-1.83735,-0.62509,-1.28871,-2.98350,2.78020,-0.18790,-0.51454,-0.73529,0.39911,18.41508,-31.01085,-12.41695
-0.37252,1.76662,0.01897,0.23562,-0.05500,0.96389,3.44621,-2.31477,-0.72856,-2.09181,-2.61793,1.87324,-0.16171,-0.50321,-0.75695,0.38427,10.71405,-33.53156,-14.08618
-0.37049,1.76435,0.03328,0.21489,-0.07997,0.97869,3.56041,-2.56041,-0.74846,-2.58000,-2.45486,1.18830,-0.13638,-0.49024,-0.77634,0.37197,9.94574,-29.87282,-11.26523
-0.37009,1.76040,0.04727,0.17145,-0.12730,0.98407,3.84559,-2.73409,-0.62447,-2.71302,-2.72878,-0.62550,-0.10640,-0.47277,-0.79570,0.36336,14.96156,-12.38374,6.48436
-0.36978,1.75655,0.05997,0.13582,-0.16307,0.96640,3.99104,-2.77396,-0.46891,-2.57274,-2.55033,-1.94953,-0.07860,-0.45552,-0.81178,0.35684,10.49306,-6.67654,11.20349
-0.36991,1.75210,0.07128,0.10067,-0.20119,0.92848,4.07553,-2.77456,-0.29286,-1.90265,-2.41521,-2.96189,-0.05093,-0.43816,-0.82576,0.35148,3.61939,-3.20933,11.94780
-0.36967,1.74772,0.08198,0.08047,-0.22866,0.88931,4.08429,-2.75899,-0.19997,-1.40165,-2.25775,-3.66911,-0.02480,-0.42115,-0.83849,0.34489,1.07392,-1.25708,9.17991
-0.36944,1.74274,0.09089,0.06510,-0.25994,0.82880,4.07523,-2.68786,-0.16462,-0.56268,-1.74052,-4.12431,-0.00067,-0.40334,-0.85034,0.33799,-1.47103,3.03538,4.06454
-0.36883,1.73806,0.09898,0.06000,-0.27852,0.76757,4.00367,-2.60885,-0.25662,0.08408,-1.02431,-4.78058,0.02070,-0.38605,-0.86183,0.32832,-1.69214,7.28788,-0.92728
-0.36827,1.73372,0.10601,0.05501,-0.28646,0.70257,3.85721,-2.58495,-0.47638,-0.74324,-0.33753,-4.62252,0.04006,-0.37084,-0.87304,0.31413,-8.62482,5.92666,-17.06413
-0.36829,1.72950,0.11198,0.04086,-0.29059,0.63497,3.81132,-2.54962,-0.50939,-1.55720,-0.03423,-4.98745,0.06120,-0.35381,-0.88280,0.30289,-4.16374,4.52710,-7.09628
-0.36879,1.72551,0.11720,0.02230,-0.28961,0.57200,3.79951,-2.53423,-0.42226,-2.01389,0.32999,-5.48861,0.08410,-0.33600,-0.89083,0.29401,-1.70124,1.47496,4.35850
-0.37025,1.72191,0.12059,-0.00807,-0.28205,0.49391,3.81178,-2.58730,-0.15429,-2.60987,0.91934,-5.67200,0.11099,-0.31778,-0.89616,0.28913,-2.06995,-5.91139,14.77936
-0.37273,1.71908,0.12201,-0.04926,-0.26266,0.39890,3.83786,-2.74100,0.33610,-2.85449,1.58339,-6.21324,0.14361,-0.29923,-0.89772,0.28971,-3.18922,-14.84432,25.46325
-0.37548,1.71673,0.12239,-0.08569,-0.23965,0.30754,3.83020,-2.96807,0.78400,-2.11939,1.64182,-7.01545,0.17911,-0.28141,-0.89672,0.29090,-4.93735,-22.01277,32.10728
-0.37816,1.71466,0.12156,-0.11128,-0.21752,0.21877,3.79529,-3.20050,0.86805,-1.34146,1.92500,-7.98432,0.21329,-0.26487,-0.89619,0.28494,-3.46218,-23.34313,11.96680
-0.38092,1.71353,0.11788,-0.13179,-0.18524,0.10421,3.74091,-3.45612,0.73914,-1.19728,2.58449,-8.53951,0.24709,-0.25015,-0.89547,0.27296,-1.50730,-16.61065,-12.73397
-0.38362,1.71339,0.11214,-0.14636,-0.14346,-0.01812,3.69078,-3.69738,0.55128,-0.77156,3.49720,-9.01868,0.28099,-0.23604,-0.89373,0.25802,0.36051,-14.24645,-14.57639
-0.38638,1.71469,0.10461,-0.15870,-0.08722,-0.14166,3.59594,-3.95448,0.37493,-1.21284,4.58609,-8.93022,0.31561,-0.22390,-0.88992,0.24146,-0.39288,-13.23610,-20.66643
-0.38928,1.71688,0.09630,-0.17026,-0.03034,-0.24734,3.45633,-4.24409,0.36010,-1.16176,5.02481,-9.08637,0.35277,-0.21333,-0.88222,0.22745,-6.78030,-20.05803,-11.91426
-0.39231,1.72179,0.08294,-0.18096,0.05998,-0.41578,3.17227,-4.76832,0.56912,-0.43342,5.05742,-9.95776,0.39721,-0.20749,-0.86706,0.21765,-15.41003,-29.66805,-1.67371
-0.39450,1.72640,0.06899,-0.17495,0.12594,-0.55902,2.92543,-5.22918,0.80551,1.25021,4.50167,-10.71535,0.44237,-0.20116,-0.84844,0.20974,-20.67372,-36.20050,7.67877
-0.39605,1.73070,0.05478,-0.15985,0.16900,-0.66777,2.76646,-5.54499,0.83546,2.29061,4.04894,-11.15218,0.48512,-0.19474,-0.82921,0.19785,-17.10469,-34.37828,-0.69868
-0.39517,1.73689,0.03300,-0.10635,0.23343,-0.87946,2.58867,-6.06127,0.66344,4.24819,3.18668,-12.52411,0.53163,-0.19300,-0.80496,0.17932,-5.56137,-27.99791,-16.06235
-0.39270,1.74269,0.01022,-0.03685,0.27792,-1.06366,2.54183,-6.47860,0.46229,5.84972,3.31196,-13.97629,0.57682,-0.18909,-0.77888,0.15770,4.97363,-24.95746,-19.99301
-0.38911,1.74857,-0.01303,0.03265,0.31167,-1.20557,2.48674,-6.83903,0.39741,7.87985,3.61245,-14.71803,0.62196,-0.18435,-0.74848,0.13772,2.38865,-30.92793,-15.39788
-0.37795,1.75731,-0.04590,0.21486,0.38646,-1.47661,2.46451,-7.46135,0.20016,12.80026,4.86553,-15.22564,0.67143,-0.18223,-0.70963,0.11130,2.87818,-33.79446,-14.65678
-0.36344,1.76727,-0.07834,0.41635,0.46663,-1.68304,2.58979,-7.78285,-0.12049,16.67830,6.73508,-14.08596,0.71422,-0.17788,-0.67222,0.07979,16.98845,-23.92043,-19.04957
-0.34523,1.77900,-0.11083,0.62946,0.55684,-1.83862,2.68000,-7.99290,-0.38618,19.12817,8.57480,-11.94808,0.75315,-0.17344,-0.63277,0.04776,20.56609,-14.08962,-18.67237
-0.31712,1.79593,-0.14511,0.96121,0.71457,-1.98521,2.50886,-8.14493,-0.75517,22.54386,11.48069,-6.98209,0.78761,-0.17650,-0.59014,0.01635,6.35548,-8.11348,-23.50662
-0.28521,1.81547,-0.17594,1.28330,0.88152,-2.03907,2.03351,-8.12555,-1.15775,24.15086,13.06407,-1.43339,0.81569,-0.18820,-0.54694,-0.00941,-14.48378,2.56286,-35.84443
-0.25063,1.83708,-0.20375,1.56848,1.04097,-2.02855,1.58408,-7.93988,-1.72359,24.47602,13.92599,2.96384,0.83679,-0.20642,-0.50579,-0.03672,-12.91767,18.09232,-51.68188
-0.20880,1.86317,-0.22767,1.90328,1.23528,-1.95459,1.02378,-7.56902,-2.55134,24.20590,14.17161,7.55878,0.84916,-0.23693,-0.46757,-0.06460,-5.26906,30.99702,-65.00198
-0.16031,1.89327,-0.24555,2.27762,1.45475,-1.79421,0.35755,-6.93791,-3.80547,23.80010,13.69936,12.56172,0.84962,-0.28433,-0.43403,-0.09445,1.68605,42.33636,-81.25452
-0.11238,1.92263,-0.26058,2.55373,1.60963,-1.62462,-0.00296,-6.21363,-4.93268,23.36509,12.35796,15.92398,0.84222,-0.33286,-0.40465,-0.12698,17.30058,55.04072,-94.49833
-0.05506,1.95541,-0.26716,2.92361,1.78481,-1.35099,-0.44179,-5.10578,-6.57497,23.90979,9.64815,18.42185,0.81603,-0.40144,-0.38315,-0.16171,33.39191,63.67276,-101.97010
0.00541,1.98645,-0.27023,3.26559,1.89059,-1.07879,-0.81570,-4.01966,-8.08281,25.79339,5.39152,20.26710,0.77881,-0.47433,-0.36184,-0.19372,36.92142,67.76590,-110.87300
0.07270,2.01483,-0.26821,3.64167,1.92395,-0.78437,-1.07825,-2.80947,-9.47285,28.24275,-0.71139,21.95733,0.72739,-0.55034,-0.34437,-0.22234,43.01875,69.92827,-106.44280
0.14708,2.03834,-0.26093,4.05126,1.86612,-0.47047,-1.09125,-1.49707,-10.75097,30.43726,-7.90461,23.22111,0.66059,-0.62538,-0.33220,-0.24932,58.14845,68.78644,-95.37975
0.22852,2.05465,-0.24848,4.48297,1.69720,-0.14293,-0.89791,-0.13589,-11.90254,31.64605,-16.79211,24.43666,0.57823,-0.69701,-0.32400,-0.27357,65.62555,50.23404,-95.98056
0.31727,2.06103,-0.23035,4.93642,1.39798,0.20319,-0.22062,1.37409,-12.75577,32.81342,-26.55333,25.65877,0.48098,-0.75704,-0.32888,-0.29560,102.40920,62.44312,-68.19333
0.41229,2.05500,-0.20808,5.38778,0.95691,0.53660,1.02924,2.27563,-13.54067,31.35413,-37.73562,23.18041,0.37233,-0.80014,-0.33436,-0.33068,107.32020,-4.51289,-69.84924
0.51099,2.03263,-0.18336,5.79300,0.34048,0.83198,2.17866,2.48632,-14.08152,26.10916,-51.02728,20.33652,0.26287,-0.82707,-0.33125,-0.37031,71.04294,-38.82916,-64.02676
0.60827,1.99712,-0.15849,6.07179,-0.34071,1.05551,3.17784,2.39687,-14.51219,18.90121,-63.04770,17.17652,0.15039,-0.83948,-0.32296,-0.41031,51.12301,-62.76783,-49.00124
0.70292,1.92768,-0.12923,6.23614,-1.43434,1.29980,4.11238,1.87409,-14.60702,0.91376,-73.03048,14.36591,0.04394,-0.83387,-0.31195,-0.45323,15.40242,-55.42982,-30.51575
0.78626,1.85400,-0.10173,6.17538,-2.33949,1.45770,4.86552,1.27131,-14.41235,-11.50593,-78.26826,12.07118,-0.05491,-0.81483,-0.30124,-0.49224,-0.04216,-79.05916,-7.60514
0.85343,1.74662,-0.07238,5.85309,-3.59787,1.60834,5.54873,0.71274,-14.33349,-28.71286,-79.08113,5.47963,-0.15571,-0.78356,-0.28858,-0.52775,-12.71305,-60.81287,-17.35941
0.90583,1.63360,-0.04670,5.35206,-4.67215,1.66280,6.22397,1.25843,-14.51362,-42.97140,-76.81030,-0.86276,-0.27199,-0.75131,-0.27731,-0.53353,34.63757,-20.43853,-6.89278
0.93871,1.50891,-0.02423,4.63575,-5.68700,1.64962,8.04958,2.66804,-14.49509,-59.26284,-69.81336,-3.42569,-0.40757,-0.70340,-0.29191,-0.50389,146.81380,-15.72982,-7.72353
0.97237,1.38575,-0.00317,3.87031,-6.47543,1.58812,10.34739,3.24363,-14.33267,-71.97604,-61.70907,-7.99836,-0.53900,-0.62368,-0.31939,-0.46742,158.79320,-94.55905,-36.12243
0.97921,1.24153,0.00928,2.60805,-7.31989,1.40503,14.18007,3.05984,-13.74783,-89.67041,-41.14653,-14.41534,-0.66584,-0.49309,-0.38510,-0.40647,160.41880,-154.26650,-89.94721
0.95665,1.10723,0.01181,1.31824,-7.72177,1.16537,16.83860,1.07384,-12.83811,-95.38545,-14.80610,-16.95958,-0.74280,-0.33631,-0.45195,-0.36178,70.72484,-200.42880,-140.77900
0.89925,0.99962,0.01223,0.02845,-7.71132,0.88959,16.55223,-1.71968,-12.44868,-88.87677,14.12590,-16.27940,-0.77283,-0.18986,-0.48588,-0.36139,-77.30814,-132.09900,-153.82490
0.83424,0.91676,0.00968,-1.08045,-7.27754,0.63096,12.94582,-3.58361,-12.55781,-69.42147,44.24497,-14.48705,-0.77478,-0.09398,-0.46833,-0.41419,-236.30140,93.94740,-110.16050
0.77676,0.85227,0.01038,-1.78444,-6.65390,0.49608,9.10795,-4.06280,-12.11469,-47.25469,58.21728,-6.96530,-0.76620,-0.03701,-0.43687,-0.46980,-266.69720,177.96960,-31.73228
0.71954,0.81510,0.01496,-2.31225,-5.72172,0.45584,5.19188,-3.27669,-10.17839,-19.40681,57.52686,1.33143,-0.74976,-0.04306,-0.40752,-0.51955,-212.56620,175.72130,99.37032
0.67627,0.77782,0.02588,-2.49152,-4.99862,0.53142,2.23347,-2.40408,-7.88963,-9.39360,48.25743,5.91216,-0.73002,-0.06597,-0.39072,-0.55683,-183.63060,134.92390,146.61050
0.63577,0.73995,0.03757,-2.58388,-4.46769,0.60149,0.29925,-1.37599,-6.89984,-7.57210,42.80217,5.47169,-0.71878,-0.07387,-0.35655,-0.59226,-139.25690,148.32700,100.87730
0.59221,0.71432,0.05101,-2.69146,-3.85247,0.67752,-1.77674,0.07177,-6.46554,-5.91959,36.49183,2.66858,-0.70316,-0.09229,-0.29902,-0.63846,-95.10413,147.33580,25.77544
0.54952,0.68781,0.06227,-2.76277,-3.39043,0.70145,-2.61025,0.68005,-6.29422,-2.14426,32.24720,-1.18261,-0.69056,-0.08799,-0.25328,-0.67174,-47.89147,87.61179,-4.62499
0.50912,0.66172,0.07107,-2.78593,-3.03899,0.68176,-2.65149,0.53804,-5.81368,0.96455,28.07570,-3.59240,-0.67983,-0.07391,-0.23040,-0.69230,-14.86835,17.67854,24.02993
0.47078,0.64358,0.07710,-2.75972,-2.63722,0.61610,-2.35705,0.34332,-4.89999,2.86142,23.59298,-5.46087,-0.67315,-0.06630,-0.22219,-0.70221,12.89942,-17.68815,62.06215
0.43458,0.62512,0.08093,-2.70726,-2.33076,0.52930,-1.97290,0.71199,-4.31542,3.72573,20.86015,-6.69676,-0.67428,-0.06441,-0.20114,-0.70763,32.39430,18.05174,43.54565
0.39951,0.60855,0.08333,-2.65711,-2.06465,0.44322,-1.49736,1.08961,-3.99799,3.48578,18.22044,-5.66854,-0.67960,-0.06055,-0.17578,-0.70963,41.98912,26.90026,20.42212
0.36383,0.59502,0.08608,-2.62555,-1.80948,0.38125,-1.08841,1.04793,-3.75184,1.86350,18.79316,-3.68224,-0.68304,-0.05012,-0.15740,-0.71146,36.06822,-5.22432,19.66493
0.32826,0.58582,0.08912,-2.59975,-1.54261,0.33883,-0.92535,0.90420,-3.70418,2.58939,19.15616,-2.30377,-0.68237,-0.03562,-0.13782,-0.71702,13.31181,-12.46078,4.65103
0.29577,0.58236,0.09206,-2.53046,-1.23643,0.30608,-0.98000,1.08198,-3.70237,5.87518,19.16836,-1.59469,-0.67908,-0.02704,-0.11150,-0.72504,-0.95688,0.60483,2.32318
0.26590,0.57819,0.09481,-2.43346,-1.01568,0.27763,-1.04453,1.71738,-3.74691,9.66083,17.64236,-2.68075,-0.67696,-0.02806,-0.07353,-0.73180,1.45135,43.38559,-8.23799
0.24034,0.57757,0.09634,-2.28860,-0.79210,0.23549,-0.93089,2.34050,-3.52426,11.35331,14.24092,-3.70931,-0.67776,-0.03686,-0.03790,-0.73338,17.18701,51.67907,5.20038
0.21807,0.57860,0.09657,-2.12322,-0.58900,0.18225,-0.58682,2.43401,-3.01426,10.53674,11.79885,-3.90934,-0.68201,-0.04354,-0.01770,-0.72983,25.96827,9.18954,25.48740
0.19513,0.57865,0.09683,-2.00869,-0.44994,0.14269,-0.30818,2.28403,-2.65302,9.01871,11.78504,-2.94996,-0.68580,-0.04502,-0.00187,-0.72639,28.27592,-15.32439,33.17956
0.17364,0.58095,0.09697,-1.90051,-0.31028,0.11163,-0.15765,2.20619,-2.51005,9.04635,11.95067,-1.99637,-0.68821,-0.04481,0.01746,-0.72392,18.68501,-12.84033,15.28314
0.15729,0.58917,0.09685,-1.72975,-0.10278,0.08393,-0.19829,2.37297,-2.59216,9.45711,11.19136,-0.48526,-0.68703,-0.04588,0.04544,-0.72376,-0.04120,6.32344,1.21984
0.14037,0.59503,0.09764,-1.60702,0.01944,0.07742,-0.32572,2.53624,-2.83479,11.33430,9.29052,-0.71944,-0.68305,-0.04404,0.07871,-0.72478,-8.30806,22.01276,-22.82158
0.12901,0.60343,0.09842,-1.41838,0.15520,0.07212,-0.55680,2.13410,-2.56220,13.37059,7.05760,-0.86095,-0.67617,-0.04019,0.09212,-0.72986,-16.16291,-16.63811,12.64298
0.12033,0.61093,0.09893,-1.22757,0.24614,0.06396,-0.75301,1.67968,-2.05757,14.42815,5.62582,-0.48354,-0.66905,-0.03894,0.09593,-0.73597,-13.80749,-32.55548,38.15371
0.11384,0.61794,0.09924,-1.04811,0.30626,0.05453,-0.89844,1.39316,-1.55791,15.66635,4.53133,-0.90217,-0.66173,-0.04117,0.09817,-0.74214,-13.04463,-23.83044,41.62459
0.11455,0.62608,0.09841,-0.78932,0.37101,0.02747,-1.03861,1.37313,-0.94293,16.64195,3.57320,-2.08878,-0.65308,-0.05213,0.09912,-0.74896,-6.58498,-3.42323,40.62404
0.11714,0.63358,0.09626,-0.55678,0.41038,-0.01449,-1.09764,1.61438,-0.43836,16.36159,2.21247,-3.50984,-0.64454,-0.06918,0.10454,-0.75422,-2.03973,17.32307,36.58817
0.12210,0.64035,0.09283,-0.33956,0.42788,-0.06830,-0.99066,1.85099,0.06646,14.76332,0.57495,-4.24299,-0.63866,-0.09006,0.10817,-0.75651,10.23383,22.07734,32.90919
0.12830,0.64648,0.08851,-0.15316,0.43066,-0.12520,-0.83742,1.95368,0.47252,12.28866,0.15946,-4.36980,-0.63418,-0.10985,0.10950,-0.75747,13.21325,12.00735,30.46570
0.13647,0.65237,0.08273,0.02455,0.42867,-0.19322,-0.67802,1.90918,0.76387,10.10870,-0.05876,-4.26349,-0.63079,-0.12666,0.10884,-0.75777,13.32751,0.67941,19.32377
0.14340,0.65817,0.07717,0.13832,0.42582,-0.24144,-0.62380,1.76831,0.91227,9.22015,-0.32587,-4.08215,-0.62630,-0.13948,0.10787,-0.75938,8.75269,-7.37391,12.09631
0.15259,0.66394,0.07047,0.26193,0.42312,-0.29738,-0.57981,1.48089,1.17155,8.91782,-0.21096,-4.20846,-0.62188,-0.15100,0.10020,-0.76186,5.54554,-18.04166,15.94312
0.16453,0.66993,0.06224,0.40515,0.42502,-0.36705,-0.52047,1.18647,1.59015,9.14732,0.22530,-4.39533,-0.61718,-0.16484,0.08625,-0.76451,7.23781,-19.24428,25.82947
0.17651,0.67600,0.05384,0.51443,0.42764,-0.42326,-0.44996,1.07840,1.91677,9.14518,0.15827,-4.73766,-0.61223,-0.18137,0.07406,-0.76602,7.49869,-10.95240,27.25217
0.19117,0.68211,0.04383,0.64205,0.43040,-0.49294,-0.30122,1.09351,2.23037,9.21474,0.47652,-4.94496,-0.60845,-0.20141,0.06155,-0.76513,11.25710,-0.41939,23.76091
0.20783,0.68883,0.03270,0.77336,0.44304,-0.56574,-0.14474,1.24935,2.55460,9.53717,1.43094,-5.35244,-0.60437,-0.22613,0.04955,-0.76233,11.56407,10.86211,20.47895
0.22521,0.69633,0.02079,0.88385,0.46556,-0.63314,-0.01626,1.49171,2.79520,8.90638,2.36353,-5.59890,-0.59966,-0.25351,0.03970,-0.75800,10.03640,18.37262,22.80956
0.24569,0.70521,0.00643,1.02019,0.50596,-0.72591,0.17012,1.89004,3.03032,8.15378,2.99948,-6.04799,-0.59543,-0.28647,0.03209,-0.74991,7.58170,26.97429,13.19269
0.26603,0.71524,-0.00875,1.12397,0.55696,-0.81218,0.33182,2.23414,3.22068,6.74964,4.42806,-6.32263,-0.59081,-0.31996,0.02458,-0.74025,9.56550,25.99439,14.10764
0.28549,0.72588,-0.02388,1.18636,0.60435,-0.87481,0.42787,2.46990,3.33403,5.86813,5.15784,-6.28078,-0.58523,-0.35209,0.01749,-0.73023,5.66547,27.43668,10.20149
0.30724,0.74097,-0.04237,1.27116,0.71469,-0.97802,0.55796,2.70043,3.67954,3.71760,7.11250,-5.64776,-0.57761,-0.38944,0.00494,-0.71742,7.48760,14.60018,17.60391
0.32697,0.75651,-0.05994,1.30458,0.80785,-1.04375,0.61046,2.77508,3.93978,1.95767,8.39150,-5.39697,-0.56819,-0.42355,-0.00904,-0.70547,7.17081,7.96153,21.15077
0.34605,0.77523,-0.07871,1.31927,0.93029,-1.11282,0.62988,2.80507,4.26039,0.18050,9.17106,-4.65688,-0.55595,-0.45849,-0.02605,-0.69284,5.51208,3.79289,21.89628
0.36378,0.79788,-0.09891,1.29937,1.09824,-1.19267,0.57921,2.84341,4.53912,-2.92775,9.80710,-4.31769,-0.54087,-0.49331,-0.04273,-0.67991,1.33296,0.64644,17.79461
0.37998,0.81951,-0.11854,1.25698,1.21051,-1.24459,0.45389,2.91470,4.57871,-4.76906,9.22557,-3.94421,-0.52528,-0.52540,-0.05372,-0.66719,-7.86217,2.70537,9.14696
0.39492,0.84143,-0.13822,1.20758,1.29530,-1.28237,0.33415,2.95048,4.55410,-5.66508,8.15904,-3.79130,-0.50910,-0.55556,-0.06324,-0.65435,-14.28699,1.46891,1.92688
0.40512,0.86754,-0.16010,1.09505,1.42691,-1.34690,0.36318,2.94622,4.57900,-7.04375,6.69566,-3.67734,-0.49401,-0.58482,-0.07566,-0.63892,0.99735,-0.89939,1.50604
0.41441,0.89263,-0.18182,0.99092,1.51307,-1.39445,0.43905,2.98372,4.56296,-8.11773,5.84193,-3.11567,-0.47991,-0.61352,-0.08756,-0.62098,5.86836,3.40890,-0.93651
0.42136,0.91822,-0.20359,0.87397,1.58968,-1.43365,0.45935,3.06060,4.50083,-9.00852,5.23592,-2.30222,-0.46538,-0.64139,-0.09694,-0.60220,0.11235,6.10019,-4.50037
0.42588,0.94444,-0.22534,0.74175,1.65712,-1.46059,0.35259,3.14148,4.39404,-10.33307,4.42073,-1.19950,-0.44891,-0.66830,-0.10287,-0.58419,-6.57248,4.23811,-5.12464
0.42756,0.97068,-0.24669,0.59283,1.70839,-1.47376,0.03864,3.19588,4.16584,-11.43718,3.03194,-0.13677,-0.43028,-0.69288,-0.10208,-0.56951,-21.47772,-0.11275,-9.54525
0.42650,0.99638,-0.26729,0.43474,1.73902,-1.47243,-0.41467,3.18282,3.88649,-11.40803,1.38849,0.62492,-0.40933,-0.71496,-0.09602,-0.55862,-34.38947,-7.69412,-13.38185
0.42348,1.02119,-0.28708,0.27964,1.74669,-1.45813,-0.79741,3.09547,3.62900,-11.11007,-0.35178,1.17984,-0.38826,-0.73463,-0.08926,-0.54918,-31.43607,-12.82676,-12.37676
0.41856,1.04476,-0.30619,0.12982,1.73170,-1.43578,-0.94140,2.93849,3.42164,-10.35124,-1.94720,1.56550,-0.36977,-0.75179,-0.08617,-0.53912,-16.89091,-15.01462,-12.43536
0.41228,1.06683,-0.32429,-0.00666,1.69585,-1.40260,-0.85010,2.74899,3.23927,-9.41952,-3.26338,2.69043,-0.35514,-0.76671,-0.08763,-0.52759,4.97187,-12.40384,-12.65126
0.40573,1.08799,-0.34172,-0.11423,1.65324,-1.36678,-0.72681,2.58525,3.06371,-8.74801,-3.92819,3.16020,-0.34209,-0.78032,-0.08987,-0.51576,9.49012,-13.23956,-15.32580
0.39711,1.10765,-0.35790,-0.22910,1.59664,-1.31926,-0.54648,2.40137,2.89476,-7.86209,-4.30729,3.75045,-0.33109,-0.79203,-0.09416,-0.50419,12.55959,-11.11175,-13.91233
0.38606,1.12511,-0.37193,-0.36058,1.51530,-1.24588,-0.45153,2.13928,2.68373,-6.96638,-4.78855,4.64100,-0.32070,-0.80109,-0.09758,-0.49586,7.61907,-13.65106,-12.21746
0.37574,1.14243,-0.38558,-0.45263,1.44793,-1.18127,-0.45505,1.88783,2.51519,-6.39266,-4.93140,4.79433,-0.30880,-0.80947,-0.09958,-0.48937,0.74441,-17.63058,-11.56653
0.36518,1.15918,-0.39865,-0.52528,1.38824,-1.12361,-0.41623,1.66479,2.38425,-5.80286,-5.23641,4.78043,-0.29746,-0.81701,-0.10274,-0.48318,2.80503,-18.42316,-10.31082
0.35303,1.17356,-0.40987,-0.60708,1.30272,-1.04863,-0.27445,1.41402,2.17340,-4.64687,-5.60344,4.47173,-0.29012,-0.82194,-0.10758,-0.47819,8.35549,-16.43123,-12.92402
