posX, posY, posZ, velX, velY, velZ, angVelX, angVelY, angVelZ, accX, accY, accZ, rotX, rotY, rotZ, rotW, angAccX, angAccY, angAccZ
0.05832,1.59224,-0.62378,-0.49548,0.50511,-0.21786,0.23478,0.62417,0.93695,1.21937,-0.38806,1.98608,-0.37840,-0.77659,-0.50370,0.00131,-16.05376,-24.00735,0.47968
0.05250,1.59864,-0.62484,-0.47468,0.49425,-0.18579,0.59111,0.78322,1.00014,1.40492,-0.46114,1.99836,-0.37646,-0.77371,-0.50928,0.01674,19.09418,4.96783,1.61423
0.04704,1.60490,-0.62576,-0.45353,0.48374,-0.15936,0.84252,0.91724,1.02313,2.12401,-1.59817,2.50696,-0.37523,-0.77046,-0.51435,0.03237,27.68602,19.34167,4.10397
0.04222,1.61036,-0.62591,-0.42747,0.46194,-0.12597,0.81227,0.80312,0.96715,2.32581,-2.17765,2.83777,-0.37247,-0.76973,-0.51694,0.03958,3.98921,-2.03492,-2.65423
0.03792,1.61514,-0.62525,-0.39875,0.43380,-0.08748,0.63518,0.51436,0.86386,2.03267,-2.24720,2.82586,-0.36811,-0.77091,-0.51831,0.03931,-11.59069,-19.90885,-7.66904
0.03373,1.61949,-0.62434,-0.37539,0.40556,-0.05426,0.49100,0.28242,0.78855,1.95828,-2.50848,2.69147,-0.36344,-0.77231,-0.51958,0.03858,-11.61892,-21.01865,-7.19141
0.03062,1.62209,-0.62175,-0.34062,0.35561,-0.00626,0.17222,-0.09823,0.67119,1.89528,-3.19046,2.60529,-0.35726,-0.77631,-0.51845,0.03030,-14.63437,-19.48844,-6.00367
0.02720,1.62447,-0.61934,-0.31905,0.31303,0.02628,-0.21132,-0.45359,0.56659,0.91089,-2.87863,1.91549,-0.35050,-0.78218,-0.51476,0.01901,-27.31855,-28.78468,-8.28327
0.02337,1.62666,-0.61712,-0.30953,0.27765,0.04956,-0.34061,-0.55551,0.53009,0.12575,-2.35936,1.40708,-0.34515,-0.78600,-0.51273,0.01367,-18.65085,-17.40157,-6.14257
0.01934,1.62819,-0.61480,-0.30538,0.23869,0.07082,-0.32854,-0.48765,0.54435,0.13696,-2.95473,1.30643,-0.34100,-0.78848,-0.51170,0.01363,0.35825,3.87564,1.21765
0.01535,1.62849,-0.61189,-0.30170,0.18738,0.09137,-0.42362,-0.47321,0.51011,0.37742,-3.65155,1.26959,-0.33734,-0.79201,-0.50871,0.01106,-4.34110,1.97525,-0.91576
0.01154,1.62815,-0.60905,-0.29513,0.13645,0.11007,-0.55937,-0.53644,0.40714,0.33306,-3.58431,1.30141,-0.33430,-0.79574,-0.50500,0.00495,-10.80951,-4.87611,-6.14031
0.00757,1.62759,-0.60642,-0.29240,0.09394,0.12638,-0.58384,-0.53932,0.32609,0.14708,-3.44197,1.28389,-0.33202,-0.79820,-0.50263,0.00056,-3.43605,-1.98865,-8.20168
0.00322,1.62595,-0.60332,-0.29664,0.04277,0.14538,-0.67379,-0.65181,0.19730,-0.75589,-2.93666,0.92873,-0.32966,-0.80100,-0.49965,-0.00805,-5.09040,-6.55841,-8.19670
-0.00181,1.62450,-0.60073,-0.31186,0.00704,0.15271,-0.71724,-0.69532,0.12366,-1.48074,-2.04360,0.04466,-0.32727,-0.80366,-0.49679,-0.01515,-4.68604,-6.56049,-6.02841
-0.00707,1.62314,-0.59733,-0.32885,-0.01642,0.15609,-0.62800,-0.59458,0.09197,-1.84845,-1.50249,-0.10760,-0.32636,-0.80478,-0.49549,-0.01752,3.06123,3.79694,-3.82668
-0.01310,1.62155,-0.59364,-0.35400,-0.03842,0.16082,-0.41206,-0.42540,0.07293,-1.97137,-1.27709,0.24289,-0.32681,-0.80379,-0.49686,-0.01601,14.14763,12.45081,-1.43581
-0.01997,1.62003,-0.59053,-0.38743,-0.05463,0.16160,-0.29274,-0.36125,0.07596,-2.26048,-0.81794,-0.37322,-0.32585,-0.80354,-0.49788,-0.01618,11.55202,5.70719,-0.38596
-0.02742,1.61914,-0.58906,-0.42245,-0.05769,0.14805,-0.36396,-0.32662,0.12898,-2.71845,-0.03904,-1.38351,-0.32339,-0.80618,-0.49516,-0.01773,-3.04250,1.32689,2.92492
-0.03529,1.61852,-0.58804,-0.45570,-0.05550,0.13040,-0.40751,-0.20656,0.20960,-3.03788,0.39535,-1.66461,-0.32132,-0.80917,-0.49166,-0.01637,-6.71629,6.12354,5.62456
-0.04428,1.61800,-0.58775,-0.50007,-0.05194,0.10552,-0.43998,0.00563,0.31137,-2.52018,-0.06398,-1.38627,-0.32006,-0.81252,-0.48708,-0.01139,-0.20723,15.12829,7.11820
-0.05344,1.61734,-0.58764,-0.53854,-0.05185,0.08547,-0.59105,0.07990,0.32191,-2.25760,-0.08056,-0.90589,-0.31901,-0.81691,-0.48039,-0.01074,-9.49303,5.81834,1.25329
-0.06246,1.61666,-0.58713,-0.56524,-0.05167,0.07608,-0.66181,0.13015,0.30594,-2.25586,0.22183,-0.70875,-0.31844,-0.82046,-0.47470,-0.01027,-8.90068,2.30771,-1.26375
-0.07189,1.61611,-0.58654,-0.59214,-0.04881,0.07006,-0.61437,0.29549,0.27482,-1.88360,0.40807,-0.32863,-0.32015,-0.82245,-0.47016,-0.00610,0.37209,9.70594,-2.06506
-0.08149,1.61571,-0.58591,-0.61637,-0.04442,0.06797,-0.49942,0.49161,0.22577,-1.63245,0.32390,-0.05550,-0.32350,-0.82304,-0.46685,0.00022,7.97613,14.90480,-4.08857
-0.09106,1.61547,-0.58521,-0.63354,-0.03810,0.06703,-0.41981,0.63021,0.16565,-1.31256,0.67339,0.03737,-0.32726,-0.82346,-0.46345,0.00593,6.51167,11.99750,-4.69860
-0.10107,1.61568,-0.58387,-0.65510,-0.02556,0.07186,-0.21176,0.86594,0.08821,-1.54814,1.06411,0.43070,-0.33358,-0.82146,-0.46225,0.01568,10.41692,13.66436,-6.26154
-0.11115,1.61617,-0.58182,-0.67473,-0.01093,0.08173,0.02637,1.08339,0.04035,-1.39339,1.19275,0.76651,-0.34001,-0.81833,-0.46258,0.02730,17.34313,16.43237,-4.49992
-0.12132,1.61690,-0.57970,-0.69041,0.00384,0.09136,0.18232,1.21191,0.02178,-1.20139,1.16072,0.87173,-0.34547,-0.81556,-0.46266,0.03812,15.39975,13.54588,-3.80726
-0.13205,1.61825,-0.57768,-0.71051,0.02522,0.10199,0.24465,1.26813,0.01225,-1.21461,1.39837,0.61826,-0.35020,-0.81358,-0.46174,0.04741,5.07228,3.59171,-1.48236
-0.14285,1.61993,-0.57570,-0.72713,0.04749,0.11145,0.28662,1.32855,0.03167,-1.33146,1.82202,0.80325,-0.35442,-0.81190,-0.46035,0.05733,1.75842,3.71454,0.70154
-0.15377,1.62172,-0.57359,-0.74097,0.06567,0.12060,0.35325,1.39213,0.06889,-1.51855,1.96468,0.93917,-0.35826,-0.80979,-0.45958,0.06843,5.50169,5.31420,1.94512
-0.16554,1.62496,-0.57119,-0.76802,0.10415,0.13604,0.43621,1.49224,0.18959,-1.60367,2.30800,0.88283,-0.36044,-0.80793,-0.45885,0.08241,5.31907,5.38233,6.04329
-0.17718,1.62825,-0.56894,-0.78793,0.13570,0.14760,0.46241,1.56108,0.31671,-1.32114,2.13103,1.04894,-0.36169,-0.80681,-0.45714,0.09621,4.80968,5.97899,8.74167
-0.18897,1.63193,-0.56617,-0.80461,0.16620,0.16420,0.45962,1.55728,0.44832,-1.11696,2.12188,1.54438,-0.36134,-0.80643,-0.45526,0.10881,-0.47618,0.24510,9.25229
-0.20074,1.63583,-0.56317,-0.81703,0.19443,0.18596,0.46186,1.51431,0.54791,-0.77961,1.99473,1.77387,-0.36042,-0.80599,-0.45382,0.12048,0.81152,-2.31908,8.09069
-0.21252,1.64027,-0.55983,-0.82701,0.22558,0.21130,0.41745,1.43304,0.66310,-0.56081,1.95466,1.72176,-0.35805,-0.80659,-0.45169,0.13107,-1.17105,-5.20773,7.31804
-0.22431,1.64494,-0.55584,-0.83289,0.25305,0.23556,0.41274,1.40562,0.74442,-0.47795,2.03152,1.82046,-0.35617,-0.80655,-0.44976,0.14257,-1.07126,-3.55823,6.31848
-0.23593,1.64974,-0.55195,-0.83511,0.27657,0.25606,0.43952,1.42683,0.77979,-0.16726,2.11394,1.91672,-0.35528,-0.80556,-0.44811,0.15503,2.16606,-0.13870,4.38414
-0.24740,1.65538,-0.54708,-0.83416,0.30938,0.29178,0.58532,1.53323,0.79483,-0.06333,2.23912,2.85681,-0.35533,-0.80228,-0.44829,0.17069,7.11349,6.62132,0.51857
-0.25902,1.66127,-0.54090,-0.83507,0.33792,0.33616,0.80988,1.61664,0.81078,-0.04132,2.06970,3.57434,-0.35477,-0.79725,-0.45094,0.18757,14.84840,8.00383,-0.70125
-0.27074,1.66742,-0.53391,-0.83736,0.36436,0.38613,0.99620,1.59114,0.88139,0.02556,1.61129,3.83904,-0.35152,-0.79274,-0.45457,0.20336,15.98627,2.24491,2.31740
-0.28248,1.67361,-0.52625,-0.83903,0.38466,0.43514,1.08738,1.46494,0.97157,-0.01941,1.09966,3.49450,-0.34612,-0.78970,-0.45790,0.21657,8.80237,-8.22374,5.05104
-0.29403,1.67964,-0.51785,-0.83676,0.39664,0.48051,1.15063,1.34815,1.03452,0.29379,0.57898,3.13113,-0.34046,-0.78672,-0.46118,0.22909,5.09095,-9.23546,4.28185
-0.30531,1.68544,-0.50938,-0.83051,0.40165,0.51425,1.19262,1.28081,1.05319,0.61252,0.25861,2.61651,-0.33568,-0.78327,-0.46417,0.24158,4.58000,-7.06370,1.56706
-0.31605,1.69117,-0.50052,-0.81662,0.40409,0.54646,1.24015,1.28540,1.03594,1.13271,0.03661,2.21701,-0.33218,-0.77876,-0.46703,0.25508,3.73106,-0.47417,-0.26435
-0.32650,1.69676,-0.49141,-0.80114,0.40374,0.57466,1.21831,1.24258,1.03496,1.28498,-0.11838,1.94823,-0.32814,-0.77533,-0.46889,0.26707,0.66471,-0.66212,-1.28112
-0.33673,1.70235,-0.48216,-0.78495,0.40392,0.60149,1.20241,1.21997,1.05263,0.95340,0.10407,2.19273,-0.32370,-0.77196,-0.47038,0.27937,-3.68359,-4.98575,0.82279
-0.34693,1.70779,-0.47234,-0.77209,0.40136,0.63009,1.26587,1.23722,1.07969,1.17953,-0.38690,2.61793,-0.31878,-0.76710,-0.47307,0.29349,4.36893,2.91802,2.23940
-0.35643,1.71281,-0.46128,-0.75068,0.39240,0.67169,1.38391,1.21368,1.10656,1.63406,-0.63996,2.60642,-0.31253,-0.76142,-0.47757,0.30741,6.57228,-1.92848,1.57267
-0.36527,1.71755,-0.45021,-0.72274,0.38054,0.70461,1.48708,1.18774,1.10374,2.49870,-1.10722,2.18282,-0.30655,-0.75516,-0.48247,0.32091,8.85664,0.83842,-0.27410
-0.37309,1.72199,-0.43913,-0.68400,0.36658,0.72972,1.52561,1.10582,1.04189,3.22399,-1.06312,1.62983,-0.30131,-0.74939,-0.48749,0.33164,3.77619,-6.23185,-3.58299
-0.37934,1.72605,-0.42774,-0.62798,0.34892,0.75225,1.53408,1.01864,0.87998,3.69218,-1.20700,1.22901,-0.29847,-0.74299,-0.49318,0.34007,0.91266,-3.56023,-10.18173
-0.38560,1.73012,-0.41675,-0.58506,0.33601,0.76367,1.50984,0.98950,0.75434,3.37926,-0.98095,0.85387,-0.29644,-0.73663,-0.49780,0.34884,-2.46501,-4.50811,-11.73833
-0.39134,1.73407,-0.40566,-0.54472,0.32422,0.77377,1.53748,1.05805,0.64786,3.12674,-0.87156,0.95130,-0.29552,-0.72842,-0.50260,0.35982,-1.21323,3.42610,-9.27466
-0.39556,1.73743,-0.39403,-0.48792,0.30548,0.78984,1.63595,1.18079,0.55162,3.39341,-1.11359,0.85468,-0.29508,-0.71792,-0.50844,0.37283,5.32543,9.11848,-4.74293
-0.40007,1.74089,-0.38251,-0.44872,0.29257,0.79964,1.67922,1.17908,0.49822,3.48390,-1.11866,0.83080,-0.29294,-0.70899,-0.51418,0.38359,3.67122,2.59562,-4.61119
-0.40299,1.74386,-0.37072,-0.39192,0.27431,0.81175,1.72745,1.09197,0.42333,3.97866,-1.25703,0.67558,-0.29004,-0.70030,-0.52129,0.39207,2.96185,-3.93175,-4.80809
-0.40523,1.74663,-0.35908,-0.33564,0.25700,0.81914,1.73885,0.96936,0.29022,4.17661,-1.24720,0.38437,-0.28812,-0.69188,-0.52906,0.39797,1.12526,-7.61741,-9.36693
-0.40700,1.74931,-0.34764,-0.28578,0.24244,0.82106,1.74496,0.92576,0.17522,4.03204,-1.24147,-0.02379,-0.28718,-0.68271,-0.53646,0.40453,0.20862,-5.31988,-11.24683
-0.40710,1.75154,-0.33644,-0.21955,0.22372,0.81872,1.74549,0.89382,0.03311,4.20440,-1.17715,-0.15483,-0.28742,-0.67299,-0.54423,0.41024,-1.03670,0.46041,-8.62915
-0.40703,1.75360,-0.32523,-0.16467,0.20639,0.81737,1.72872,0.79751,-0.06094,3.98487,-1.38786,-0.06776,-0.28633,-0.66440,-0.55204,0.41453,-1.07799,-3.92592,-7.22764
-0.40689,1.75542,-0.31405,-0.12262,0.18940,0.81568,1.67981,0.65167,-0.13365,3.29118,-1.44064,-0.19209,-0.28447,-0.65724,-0.55976,0.41687,-3.38109,-10.60476,-7.56569
-0.40589,1.75677,-0.30306,-0.07600,0.16830,0.81103,1.64519,0.57523,-0.15046,2.47798,-1.31894,-0.31235,-0.28228,-0.64990,-0.56673,0.42044,-2.41014,-6.20314,-3.07869
-0.40522,1.75789,-0.29212,-0.04345,0.14842,0.80787,1.64890,0.54238,-0.12470,2.19082,-1.49468,-0.06155,-0.27931,-0.64194,-0.57350,0.42543,-0.36902,-2.57232,1.59318
-0.40415,1.75845,-0.28098,-0.01091,0.12341,0.80912,1.71352,0.54380,-0.07960,1.99910,-1.56082,0.49821,-0.27549,-0.63280,-0.58079,0.43168,2.39607,-1.47766,2.35305
-0.40269,1.75854,-0.26910,0.01831,0.09503,0.82060,1.82968,0.49531,-0.07205,2.44515,-2.32896,1.14640,-0.27057,-0.62270,-0.58983,0.43720,8.23825,0.77039,2.30775
-0.40073,1.75775,-0.25642,0.04923,0.05845,0.84296,1.97615,0.32822,-0.12595,2.34166,-2.85347,2.06517,-0.26385,-0.61262,-0.60153,0.43960,8.18947,-10.80274,-4.80516
-0.39865,1.75625,-0.24310,0.07403,0.01895,0.87050,2.13783,0.11593,-0.21335,1.99432,-3.52528,2.44863,-0.25574,-0.60210,-0.61530,0.43986,12.76043,-13.78316,-8.04857
-0.39852,1.75367,-0.22980,0.09103,-0.03084,0.90163,2.32146,-0.16896,-0.30224,1.34068,-3.71515,1.91207,-0.24483,-0.59160,-0.63129,0.43765,13.69571,-19.82719,-9.85086
-0.40195,1.75045,-0.21782,0.09542,-0.08503,0.92291,2.46180,-0.42580,-0.38818,0.51259,-3.40121,0.72988,-0.23336,-0.58129,-0.64736,0.43426,8.95824,-17.81801,-8.37802
-0.40441,1.74770,-0.20628,0.09146,-0.11831,0.92360,2.54737,-0.47426,-0.36763,0.06497,-2.58759,-0.54101,-0.22310,-0.56992,-0.66062,0.43474,8.11993,-8.38515,-2.80539
-0.40340,1.74440,-0.19454,0.09371,-0.14684,0.90679,2.54725,-0.47672,-0.29550,0.31533,-1.85145,-1.87367,-0.21325,-0.55948,-0.67161,0.43639,3.21996,-0.02021,5.65168
-0.40194,1.74121,-0.18363,0.09635,-0.16604,0.87787,2.44467,-0.49776,-0.25528,0.09337,-1.07841,-2.33781,-0.20466,-0.55110,-0.68102,0.43660,-7.09156,-2.85910,2.51257
-0.40049,1.73834,-0.17319,0.09818,-0.17513,0.84826,2.34285,-0.46458,-0.19528,0.08912,-0.52218,-2.55993,-0.19679,-0.54270,-0.68912,0.43802,-8.40530,0.56749,3.82035
-0.39886,1.73554,-0.16377,0.10256,-0.18105,0.80883,2.23872,-0.38680,-0.11557,0.48761,-0.22130,-2.25617,-0.18972,-0.53427,-0.69586,0.44084,-7.36112,4.71314,6.10606
-0.39703,1.73290,-0.15413,0.10933,-0.18297,0.78182,2.19083,-0.39876,-0.10076,0.70083,0.03524,-1.62692,-0.18156,-0.52565,-0.70407,0.44160,-4.18145,0.87141,1.66802
-0.39490,1.73054,-0.14434,0.11987,-0.17958,0.76350,2.16911,-0.55549,-0.14262,0.98044,0.34001,-0.45871,-0.17116,-0.51808,-0.71389,0.43893,-1.74441,-7.21012,-3.11116
-0.39270,1.72809,-0.13371,0.12883,-0.17885,0.76380,2.20968,-0.78735,-0.25066,0.89150,-0.09593,0.45372,-0.15883,-0.51017,-0.72592,0.43307,1.18252,-14.29987,-7.64983
-0.39052,1.72537,-0.12238,0.13533,-0.18273,0.77561,2.29219,-1.12874,-0.42946,0.18377,-0.31456,1.34088,-0.14374,-0.50254,-0.74052,0.42240,4.58970,-23.16336,-17.13612
-0.38840,1.72223,-0.11007,0.13916,-0.19305,0.80168,2.55333,-1.38948,-0.54188,0.08880,-0.74065,2.06424,-0.12556,-0.49049,-0.75702,0.41302,15.06868,-16.77015,-8.47657
-0.38638,1.71887,-0.09723,0.14056,-0.20471,0.83064,2.85878,-1.56735,-0.60901,-0.01976,-0.80696,2.14114,-0.10613,-0.47553,-0.77394,0.40451,20.93598,-13.18522,-6.42317
-0.38435,1.71541,-0.08395,0.14189,-0.21530,0.86021,3.14861,-1.77452,-0.69726,0.37585,-0.69810,1.96322,-0.08486,-0.45941,-0.79150,0.39404,22.18897,-12.15028,-3.75580
-0.38226,1.71199,-0.07047,0.14383,-0.22238,0.88615,3.33682,-2.09350,-0.91154,0.25613,-0.55638,1.61215,-0.06241,-0.44468,-0.80992,0.37736,16.54217,-19.58872,-15.27005
-0.38027,1.70848,-0.05695,0.14360,-0.22956,0.90648,3.46526,-2.45402,-1.18983,-0.11766,-0.56405,1.13363,-0.03893,-0.43064,-0.82853,0.35578,11.37624,-21.47779,-22.54157
-0.37850,1.70489,-0.04362,0.13955,-0.23634,0.91856,3.55072,-2.75183,-1.46220,-0.58868,-0.46812,0.60275,-0.01567,-0.41637,-0.84632,0.33184,7.86422,-19.78498,-24.31309
-0.37686,1.70125,-0.03054,0.13447,-0.24232,0.92344,3.65584,-2.86908,-1.56899,-0.87051,-0.47032,0.21672,0.00704,-0.39972,-0.86215,0.31125,8.97419,-12.31726,-16.33916
-0.37547,1.69733,-0.01773,0.12622,-0.25144,0.92250,3.86342,-2.76852,-1.43643,-1.44522,-0.55845,-0.06331,0.02941,-0.37792,-0.87605,0.29808,10.92647,-0.83790,3.06703
-0.37449,1.69302,-0.00519,0.11306,-0.26518,0.91730,4.26276,-2.43746,-0.84308,-0.90964,-1.01959,-0.63071,0.05407,-0.34765,-0.88664,0.30014,20.28874,9.04058,43.98133
-0.37361,1.68846,0.00699,0.10130,-0.28003,0.90718,4.50911,-2.24034,-0.51441,-0.66410,-1.61260,-1.10585,0.07755,-0.31844,-0.89654,0.29798,17.87177,7.53992,42.54290
-0.37337,1.68323,0.01840,0.08182,-0.30202,0.88669,4.72174,-2.12985,-0.35286,-1.43622,-1.63930,-1.98275,0.10087,-0.28815,-0.90621,0.29254,14.93835,4.90663,19.28234
-0.37386,1.67773,0.02884,0.05461,-0.32359,0.85489,4.87036,-2.08780,-0.20259,-2.42202,-1.55465,-2.70867,0.12506,-0.25817,-0.91409,0.28660,9.33530,0.81098,10.15743
-0.37529,1.67182,0.03810,0.01826,-0.34684,0.81106,4.99078,-2.11663,-0.00784,-2.82381,-1.78984,-3.65778,0.15147,-0.22793,-0.91964,0.28171,7.87862,-5.00781,15.97469
-0.37773,1.66541,0.04584,-0.02651,-0.37313,0.75174,5.08462,-2.20239,0.15416,-3.56858,-2.04760,-4.94868,0.17932,-0.19773,-0.92336,0.27597,4.89347,-8.65937,8.92074
-0.38128,1.65840,0.05166,-0.07922,-0.40319,0.67474,5.19586,-2.35138,0.34023,-4.07888,-2.25329,-5.99959,0.20985,-0.16652,-0.92467,0.27058,5.66112,-12.92920,11.28347
-0.38661,1.65065,0.05459,-0.15048,-0.43896,0.56570,5.31227,-2.67332,0.52466,-4.79223,-2.18409,-7.88550,0.24583,-0.13553,-0.92278,0.26398,7.11703,-21.31064,7.06749
-0.39270,1.64290,0.05538,-0.21855,-0.46693,0.44433,5.37308,-3.05630,0.59698,-4.84609,-1.87494,-9.67206,0.28401,-0.10632,-0.91835,0.25431,4.89478,-27.09250,-0.89503
-0.39923,1.63520,0.05411,-0.27706,-0.48689,0.31912,5.44385,-3.42524,0.61262,-4.89809,-1.44367,-11.36110,0.32362,-0.07698,-0.91136,0.24244,6.15618,-28.13725,-7.43985
-0.40727,1.62764,0.04662,-0.34665,-0.49955,0.11847,5.53693,-3.93693,0.61413,-3.83001,-0.07744,-13.89281,0.36874,-0.04811,-0.89979,0.22823,8.12316,-31.35539,-8.96722
-0.41475,1.62129,0.03632,-0.39155,-0.48870,-0.08523,5.62017,-4.35792,0.66810,-2.82842,1.78495,-15.42903,0.41351,-0.01844,-0.88461,0.21480,9.22411,-28.20177,-6.57121
-0.42190,1.61711,0.02044,-0.42028,-0.44252,-0.33962,5.63922,-4.88625,0.89805,-1.06331,4.14018,-16.69585,0.46222,0.01044,-0.86257,0.20546,1.34462,-34.95750,1.68136
-0.42795,1.61440,0.00408,-0.42342,-0.38258,-0.54042,5.60762,-5.28877,1.07092,0.44509,6.06441,-17.10149,0.50891,0.03833,-0.83728,0.19625,-1.48856,-37.50288,2.84633
-0.43290,1.61492,-0.01732,-0.40702,-0.28283,-0.77567,5.47533,-5.76181,1.19083,2.00814,8.43104,-16.90302,0.55726,0.06226,-0.80656,0.18722,-6.12802,-35.61150,-4.03674
-0.43613,1.61989,-0.04311,-0.36444,-0.12830,-1.03361,5.19967,-6.28043,1.12812,3.57834,11.20166,-15.57358,0.60602,0.07906,-0.77167,0.17610,-10.19424,-31.70053,-16.15612
-0.43853,1.62641,-0.06767,-0.31818,0.01512,-1.20825,4.91742,-6.63257,0.92721,4.54665,13.11065,-13.95309,0.65116,0.09209,-0.73567,0.16218,-11.13643,-24.50590,-28.78683
-0.43875,1.63814,-0.09499,-0.24673,0.21037,-1.38522,4.50981,-7.01025,0.59666,5.83970,15.28374,-11.61382,0.69578,0.09670,-0.69639,0.14688,-13.04713,-19.91712,-37.53226
-0.43699,1.65429,-0.12271,-0.15861,0.43435,-1.52694,4.02703,-7.34602,0.13584,7.10583,17.34148,-8.95057,0.73847,0.09335,-0.65506,0.12982,-14.65191,-15.55208,-46.01003
-0.43300,1.67517,-0.14998,-0.05365,0.68508,-1.62779,3.44440,-7.49356,-0.47237,8.41387,19.02853,-5.64537,0.77613,0.08090,-0.61539,0.11124,-16.86433,-4.69069,-56.30359
-0.42662,1.70052,-0.17592,0.06670,0.95192,-1.68188,2.81776,-7.41711,-1.18340,9.31064,19.64043,-2.20372,0.80770,0.06050,-0.57934,0.09118,-15.57057,14.50414,-62.59734
-0.41762,1.72977,-0.19968,0.20299,1.22148,-1.68706,2.00953,-7.26565,-1.89352,10.41988,19.61415,0.96002,0.83454,0.03005,-0.54499,0.07504,-23.14822,22.98332,-67.00038
-0.40556,1.76268,-0.22112,0.35885,1.48920,-1.65195,1.00358,-7.12569,-2.54969,11.64935,19.26587,3.52134,0.85743,-0.01046,-0.51026,0.06592,-37.36119,23.73684,-71.16421
-0.39038,1.79894,-0.24023,0.53032,1.75009,-1.58599,-0.21953,-7.12291,-3.23782,12.92196,18.78440,5.19391,0.87727,-0.06361,-0.47137,0.06461,-52.48951,17.34280,-77.59263
-0.36996,1.84031,-0.25679,0.75392,2.04049,-1.49143,-1.39745,-6.94484,-4.14506,15.57149,17.71422,7.20909,0.88941,-0.12827,-0.43412,0.06348,-49.19445,14.08250,-85.60124
-0.34648,1.88287,-0.27195,0.97997,2.28585,-1.39369,-1.92012,-6.36303,-4.92906,17.37210,17.09550,7.93386,0.89303,-0.18630,-0.40611,0.05355,-7.95185,37.23893,-71.42016
-0.32030,1.92660,-0.28590,1.19395,2.48876,-1.30070,-2.08204,-5.77208,-5.62882,18.71844,16.71317,8.35677,0.89140,-0.24258,-0.38098,0.03756,16.35095,41.36018,-64.16401
-0.28086,1.97636,-0.29487,1.50884,2.75111,-1.15940,-1.95770,-5.06316,-6.72648,20.48526,16.69487,9.70053,0.87989,-0.30768,-0.36202,0.00903,42.71215,28.35766,-60.80013
-0.23475,2.02652,-0.29950,1.81753,2.97228,-0.99878,-1.85643,-4.53810,-7.91325,22.98792,16.03895,12.88972,0.86007,-0.37993,-0.33971,-0.02309,45.94482,14.17104,-75.77664
-0.19032,2.07546,-0.30219,2.06192,3.12428,-0.84873,-1.82140,-4.03447,-8.89402,25.15438,15.28664,16.78760,0.83132,-0.45281,-0.31783,-0.05337,44.62215,13.49625,-89.08821
-0.13128,2.13370,-0.29166,2.54670,3.38033,-0.48702,-1.65094,-2.37839,-10.88930,30.01817,13.53742,23.99618,0.76489,-0.54924,-0.32413,-0.09065,71.03447,47.74211,-109.38350
-0.07378,2.18916,-0.28017,2.92637,3.52820,-0.17691,-1.36362,-0.73353,-12.43735,34.92728,11.19314,28.00132,0.68326,-0.63676,-0.33544,-0.12317,102.74860,58.35634,-128.12380
-0.00562,2.24488,-0.26134,3.37770,3.63572,0.17270,-1.18040,1.28312,-14.26245,43.06170,6.44471,29.27017,0.56636,-0.72868,-0.35535,-0.14828,124.28210,70.11823,-152.65610
0.09680,2.29487,-0.22595,4.31023,3.61720,0.72161,-1.35460,4.84321,-17.97318,63.47519,-11.61869,29.16328,0.35653,-0.83793,-0.38404,-0.15258,106.56710,111.65210,-233.41180
0.21301,2.32523,-0.19323,5.28062,3.26370,1.10951,-1.28650,8.26564,-21.05649,76.14659,-41.87154,24.74425,0.11367,-0.90070,-0.39584,-0.13834,116.41050,118.70580,-279.22870
0.34257,2.32791,-0.16298,6.22868,2.53265,1.35735,-0.32484,11.65684,-23.20867,79.92131,-82.40092,16.04342,-0.14623,-0.89578,-0.40541,-0.10882,142.83390,71.58764,-291.69780
0.48776,2.27470,-0.13884,7.20490,1.04143,1.45048,1.84060,16.16605,-24.96716,54.97783,-130.82680,-3.89234,-0.43066,-0.79886,-0.41789,-0.04151,152.18640,40.79427,-343.09100
0.61090,2.14780,-0.13521,7.57604,-1.37420,1.17550,6.48675,20.38032,-24.98339,-14.11827,-160.46500,-28.61350,-0.66350,-0.59543,-0.44988,0.05335,134.41840,-68.43828,-370.94530
0.67712,2.00341,-0.14867,6.88517,-3.52711,0.66647,11.82561,20.97728,-23.52584,-78.21776,-135.20100,-36.48846,-0.78917,-0.35510,-0.48607,0.12185,15.97272,-170.18800,-384.08290
0.69121,1.86872,-0.17000,5.47395,-4.97905,0.13680,13.26803,15.12390,-21.90224,-110.15050,-76.64256,-29.68111,-0.82076,-0.20456,-0.52864,0.07099,-307.60950,-222.89530,-180.22820
0.67763,1.76671,-0.18703,3.93645,-5.52208,-0.18763,8.79570,8.37017,-19.98466,-102.53280,-11.63064,-13.90688,-0.82529,-0.18074,-0.53193,-0.05726,-571.71400,-18.89235,195.66160
0.66643,1.69686,-0.19319,2.81613,-5.39107,-0.24624,2.82062,4.65245,-16.22252,-62.45370,23.78449,1.43298,-0.81844,-0.23537,-0.49827,-0.16274,-452.35670,122.98850,352.13010
0.66730,1.64258,-0.19058,2.16465,-5.03462,-0.14445,-0.85231,3.41219,-11.54588,-36.08213,31.03957,10.19802,-0.80696,-0.30653,-0.46135,-0.20499,-240.72960,156.62900,426.64220
0.67497,1.58953,-0.18319,1.78726,-4.74816,0.01109,-1.98366,2.26328,-8.49468,-27.60135,22.11406,13.97143,-0.79410,-0.33614,-0.45113,-0.22999,-99.15266,16.28553,311.01910
0.67630,1.53880,-0.17056,1.39235,-4.49042,0.21693,-2.97128,0.81355,-6.73801,-23.31285,13.66800,10.68460,-0.77430,-0.35143,-0.44838,-0.27551,-101.60600,-37.05644,143.46690
0.67876,1.48309,-0.15997,1.10412,-4.36986,0.34341,-2.28948,-0.15849,-6.17527,-19.41311,7.82949,6.79027,-0.77147,-0.32514,-0.45681,-0.30074,-5.66398,-59.62332,63.83359
0.68065,1.42511,-0.15100,0.87879,-4.31678,0.41121,-1.12224,-1.00662,-6.07343,-19.20715,3.41935,4.06835,-0.77328,-0.27910,-0.47327,-0.31648,56.52071,-102.61430,25.74507
0.67510,1.36724,-0.14282,0.58232,-4.27454,0.44910,0.01295,-1.63652,-6.14491,-19.48741,2.09621,1.37720,-0.77676,-0.22460,-0.48916,-0.32699,55.14443,-72.32167,4.18932
0.66778,1.31003,-0.13547,0.32296,-4.22817,0.46393,0.27308,-1.76851,-6.37748,-18.52791,3.76040,1.42695,-0.78115,-0.17686,-0.48700,-0.34838,27.94308,-27.65564,-10.38734
0.65990,1.25512,-0.12764,0.11989,-4.15637,0.48403,0.17131,-1.87543,-6.44513,-15.04466,7.61410,2.05339,-0.78070,-0.13564,-0.48152,-0.37450,-6.08005,0.21856,-16.96250
0.64822,1.20604,-0.11822,-0.09862,-4.00481,0.52641,0.26521,-2.44642,-5.87799,-11.66430,11.54454,3.00106,-0.76970,-0.10169,-0.49404,-0.39133,-8.91418,-33.43540,25.84083
0.63830,1.15940,-0.10825,-0.23861,-3.84695,0.56786,-0.16351,-2.57190,-5.04016,-9.25444,10.13397,3.00078,-0.75662,-0.08694,-0.50107,-0.41098,-32.25087,-18.84672,55.20823
0.62960,1.11306,-0.09829,-0.32455,-3.72464,0.59963,-0.79201,-2.19859,-4.26209,-6.70084,9.94291,2.43195,-0.74709,-0.08525,-0.49725,-0.43281,-51.94133,41.10858,52.53436
0.61774,1.07039,-0.08771,-0.44577,-3.56836,0.63467,-1.59772,-1.46937,-3.17771,-7.70594,7.60876,1.29091,-0.73862,-0.10417,-0.48840,-0.45282,-41.71436,51.96976,56.09506
0.60454,1.02600,-0.07796,-0.56486,-3.47460,0.64790,-1.96428,-0.89551,-2.67087,-9.39012,7.00759,0.50910,-0.73345,-0.11169,-0.47659,-0.47164,-30.04619,58.90412,33.14261
0.58993,0.98130,-0.06847,-0.67641,-3.41163,0.65420,-1.94322,-0.84380,-2.41617,-11.77982,6.71634,0.36030,-0.72633,-0.10781,-0.47296,-0.48696,-7.17460,30.53182,26.79980
0.56740,0.93964,-0.05890,-0.89136,-3.31368,0.66020,-1.81632,-0.91905,-2.54366,-14.51703,6.09516,0.38380,-0.71945,-0.09349,-0.46824,-0.50438,8.62692,-10.75792,-2.29199
0.54161,0.89963,-0.04906,-1.11609,-3.20714,0.66933,-1.85280,-0.71085,-2.99740,-14.14059,7.26657,0.83685,-0.71493,-0.07671,-0.45180,-0.52808,2.86788,7.71319,-27.03036
0.51948,0.85876,-0.03929,-1.22332,-3.14487,0.67605,-1.93348,-0.53867,-3.25632,-13.10635,8.13424,0.91383,-0.70894,-0.06271,-0.43513,-0.55148,-2.03501,13.09983,-34.67153
0.48956,0.82452,-0.02884,-1.42775,-2.98871,0.69189,-2.13487,-0.01096,-3.72410,-9.84092,9.44329,0.87552,-0.70578,-0.05026,-0.40415,-0.57967,-5.21846,25.49239,-31.51945
0.46237,0.79144,-0.01839,-1.54560,-2.84485,0.70464,-2.20477,0.42172,-3.83648,-6.82861,11.27243,0.91361,-0.70279,-0.04283,-0.37663,-0.60201,0.67794,32.33309,-18.49810
0.43583,0.76155,-0.00760,-1.62593,-2.68178,0.72028,-2.28482,0.91888,-3.77282,-4.54956,11.95149,1.36092,-0.70032,-0.04169,-0.34775,-0.62200,4.95581,31.53567,-2.22556
0.41002,0.73443,0.00357,-1.67501,-2.50994,0.73894,-2.36176,1.43424,-3.54165,-2.62475,12.80754,1.33819,-0.69809,-0.04711,-0.31862,-0.63947,3.21143,41.00064,7.08119
0.38422,0.71043,0.01500,-1.71268,-2.32732,0.75750,-2.46027,1.77709,-3.23615,-2.32549,13.26354,1.23126,-0.69352,-0.05506,-0.29273,-0.65598,1.64392,31.33389,17.58376
0.35819,0.68934,0.02634,-1.74707,-2.13853,0.77007,-2.56012,1.93908,-2.92428,-1.95353,14.02841,0.39999,-0.68654,-0.06319,-0.27017,-0.67207,-2.29380,21.38429,18.08163
0.33152,0.67159,0.03713,-1.78223,-1.93835,0.77088,-2.58066,1.76491,-2.50612,-2.70461,14.54485,-0.33745,-0.67709,-0.06909,-0.25759,-0.68587,-0.30380,-2.51381,32.05810
0.30453,0.65498,0.04701,-1.81471,-1.76903,0.75651,-2.53456,1.64499,-2.26501,-3.22427,13.70051,-1.81914,-0.66855,-0.07282,-0.24361,-0.69886,0.02179,-10.77593,28.20736
0.27590,0.64350,0.05482,-1.86791,-1.55139,0.71046,-2.13404,1.81055,-2.37175,-3.35558,11.77651,-3.18396,-0.66941,-0.07211,-0.21933,-0.70610,21.13408,3.19212,-6.38078
0.24739,0.63127,0.06184,-1.90629,-1.39135,0.66133,-1.68585,2.10008,-2.69261,-2.66385,11.48278,-3.19390,-0.67398,-0.06864,-0.18702,-0.71138,31.67448,11.84610,-26.20736
0.21935,0.62044,0.06841,-1.92779,-1.24802,0.61703,-1.29589,2.30166,-2.95158,-0.90266,12.35181,-4.03967,-0.67891,-0.06429,-0.15429,-0.71494,30.40198,13.21952,-31.72004
0.19169,0.61488,0.07360,-1.93820,-1.04924,0.56000,-0.80511,2.22935,-3.10569,0.32006,12.51185,-3.37797,-0.68590,-0.05520,-0.12725,-0.71435,28.87257,-7.57132,-14.56166
0.16482,0.61076,0.07865,-1.93295,-0.87019,0.51401,-0.44266,1.84448,-3.09632,1.36502,12.46302,-2.35092,-0.69047,-0.04247,-0.10931,-0.71380,25.65747,-25.31342,-4.91646
0.13871,0.60782,0.08438,-1.91679,-0.71656,0.49089,-0.29320,1.33945,-2.94668,2.39633,12.55944,-1.29838,-0.69122,-0.02889,-0.09861,-0.71530,9.50649,-41.12703,6.54921
0.11466,0.60984,0.09013,-1.86992,-0.51522,0.47310,-0.23511,0.99877,-2.93400,3.09590,12.96608,-0.46210,-0.69085,-0.01441,-0.08529,-0.71780,0.51584,-30.15729,8.68970
0.09186,0.61195,0.09629,-1.81315,-0.35945,0.46635,-0.35315,0.94532,-2.94379,6.14147,12.80981,-0.20715,-0.68774,-0.00453,-0.06643,-0.72290,-5.83062,-3.62858,-8.39502
0.07234,0.61769,0.10232,-1.71576,-0.18296,0.45863,-0.39755,1.04651,-2.82089,7.15540,12.42730,-0.91902,-0.68556,-0.00027,-0.04769,-0.72645,-12.46795,3.94526,11.96536
0.05613,0.62561,0.10881,-1.58588,-0.00757,0.46098,-0.86228,1.26880,-2.84126,9.12640,10.40594,-0.51907,-0.67445,0.00207,-0.02282,-0.73797,-24.77558,21.87648,-4.44613
0.04065,0.63264,0.11468,-1.47469,0.11211,0.45147,-1.05801,1.17388,-2.69884,10.31558,9.42848,-1.55334,-0.66568,0.00735,-0.00699,-0.74617,-19.78624,5.22808,6.52213
0.02759,0.64075,0.11995,-1.35320,0.21835,0.43492,-1.26949,0.88574,-2.43465,10.68689,8.17637,-1.73793,-0.65495,0.01408,0.00056,-0.75554,-17.74882,-15.07437,23.74805
0.02104,0.65148,0.12370,-1.14951,0.34435,0.39645,-1.58235,0.41505,-1.92463,12.39883,5.77111,-2.62563,-0.64057,0.02021,-0.00359,-0.76762,-20.86728,-23.38321,29.31299
0.01427,0.65973,0.12703,-0.99447,0.40188,0.35961,-1.69969,0.35071,-1.58087,13.17704,4.12556,-3.18920,-0.62928,0.02103,-0.00071,-0.77689,-13.95140,-10.76077,34.40783
0.01365,0.66799,0.12823,-0.77281,0.44578,0.29535,-1.66392,0.55397,-1.20093,14.15646,1.81776,-4.53823,-0.62102,0.01412,0.00454,-0.78366,1.81137,13.95665,21.94840
0.01574,0.67493,0.12793,-0.55056,0.45759,0.21886,-1.49511,0.84379,-0.83961,13.75545,-0.22573,-5.00613,-0.61589,0.00328,0.01082,-0.78775,11.94838,19.77212,20.87293
0.01737,0.68073,0.12756,-0.38998,0.44761,0.15987,-1.31046,1.00199,-0.52770,13.47371,-1.37141,-5.12598,-0.61193,-0.00685,0.01512,-0.79074,15.62021,17.67191,20.60543
0.02276,0.68575,0.12564,-0.20642,0.42690,0.08937,-1.09875,1.17580,-0.12969,13.01130,-1.59742,-5.07641,-0.60959,-0.02130,0.01654,-0.79226,17.16253,12.49757,27.29427
0.03164,0.69018,0.12216,-0.00385,0.40087,0.00784,-0.90759,1.47070,0.23399,12.35484,-1.54838,-5.09816,-0.60760,-0.04035,0.01947,-0.79298,15.21566,18.83361,21.78945
0.04115,0.69455,0.11800,0.16377,0.37956,-0.06701,-0.77290,1.80683,0.44757,11.60159,-1.37701,-5.54222,-0.60492,-0.06063,0.02575,-0.79356,10.58478,23.64771,15.03849
0.05121,0.69882,0.11307,0.29759,0.36226,-0.13600,-0.66971,2.13894,0.53487,10.70805,-1.39398,-5.86276,-0.60197,-0.08150,0.03509,-0.79358,9.50251,27.71223,7.96022
0.06365,0.70261,0.10632,0.43750,0.34091,-0.21812,-0.55905,2.44658,0.59429,9.47605,-1.57959,-6.13858,-0.59938,-0.10368,0.04561,-0.79241,7.49992,25.57525,2.04526
0.07694,0.70611,0.09837,0.55889,0.31993,-0.30122,-0.45364,2.57202,0.61910,8.32808,-1.32787,-6.32938,-0.59719,-0.12299,0.05451,-0.79074,8.04394,13.90664,1.38369
0.09138,0.70961,0.08904,0.67133,0.30402,-0.38793,-0.35162,2.58308,0.68930,8.18152,-1.06221,-6.31674,-0.59530,-0.14111,0.06056,-0.78869,7.66947,1.17004,1.71920
0.10753,0.71325,0.07831,0.78622,0.29412,-0.47796,-0.27384,2.65049,0.78883,8.43881,-0.46416,-6.63282,-0.59289,-0.16136,0.06644,-0.78615,7.19281,3.58810,6.35048
0.12563,0.71712,0.06597,0.90687,0.29030,-0.57387,-0.19393,2.76198,1.03300,9.07209,-0.45045,-7.08369,-0.58986,-0.18590,0.06949,-0.78274,6.33191,8.47668,11.10444
0.14560,0.72112,0.05203,1.03056,0.28971,-0.67425,-0.06200,2.93142,1.43287,8.81760,0.18137,-7.40252,-0.58687,-0.21616,0.06857,-0.77728,12.26165,11.19992,25.92384
0.16697,0.72564,0.03619,1.14850,0.29814,-0.78297,0.11119,3.18289,1.81850,8.07585,1.06833,-8.11427,-0.58406,-0.25055,0.06749,-0.76912,15.02849,18.23810,25.37468
0.18913,0.73108,0.01837,1.25171,0.32009,-0.89934,0.32360,3.48654,2.16860,6.62149,2.23788,-8.53131,-0.58152,-0.28826,0.06649,-0.75783,16.93554,22.62933,23.81532
0.21079,0.73706,-0.00024,1.32280,0.35199,-1.00190,0.49401,3.81375,2.37389,5.00127,3.56818,-8.60668,-0.57832,-0.32678,0.06835,-0.74437,16.33746,26.64263,16.99265
0.23279,0.74468,-0.02268,1.38596,0.42825,-1.15302,0.57550,4.39160,2.30428,1.55508,5.29450,-8.27502,-0.57362,-0.36803,0.08091,-0.72730,0.39948,33.85338,-1.29584
0.25280,0.75346,-0.04375,1.39852,0.49665,-1.24419,0.55194,4.66408,2.27508,0.32660,6.37611,-7.78670,-0.56643,-0.40481,0.09076,-0.71207,-8.97846,28.47414,-8.06381
0.27161,0.76739,-0.06779,1.38141,0.61234,-1.35377,0.37741,4.88739,2.25697,-2.35714,7.78038,-5.91440,-0.55495,-0.44103,0.10189,-0.69796,-7.96380,14.18178,3.41712
0.28902,0.78290,-0.09161,1.34120,0.72130,-1.42944,0.11410,4.94115,2.26714,-3.57360,7.74127,-4.97645,-0.54000,-0.47416,0.11202,-0.68631,-20.92746,4.66207,3.55509
0.30461,0.79998,-0.11559,1.28264,0.83168,-1.49095,-0.04991,4.82052,2.45656,-4.81944,7.79871,-4.11702,-0.52366,-0.50623,0.11530,-0.67544,-9.69051,-7.40923,14.32876
0.31903,0.81767,-0.13905,1.21910,0.92432,-1.53460,-0.13809,4.67239,2.66989,-6.06954,7.48982,-3.31627,-0.50662,-0.53764,0.11557,-0.66402,-0.63125,-12.89864,19.76878
0.33026,0.83845,-0.16328,1.11431,1.03685,-1.57931,-0.21343,4.44248,2.87974,-7.52062,6.61319,-2.29648,-0.48851,-0.56666,0.11316,-0.65380,1.13471,-14.00819,14.64807
0.33966,0.85880,-0.18700,1.00481,1.12266,-1.60525,-0.20122,4.20419,3.01781,-8.48520,5.65462,-1.40604,-0.47165,-0.59377,0.10944,-0.64266,4.64781,-15.64619,10.24251
0.34782,0.87872,-0.20991,0.90230,1.18542,-1.61480,-0.11713,3.96825,3.10563,-9.05452,4.77242,-0.38658,-0.45620,-0.61912,0.10398,-0.63069,10.62583,-17.35226,6.86695
0.35309,0.89970,-0.23227,0.77710,1.24637,-1.61219,-0.00666,3.68890,3.15216,-9.31663,3.92147,0.72193,-0.44195,-0.64181,0.09656,-0.61923,12.69060,-17.84203,1.69499
0.35626,0.92072,-0.25387,0.64778,1.29618,-1.59751,0.12458,3.42183,3.16131,-9.51307,3.24449,1.42343,-0.42876,-0.66275,0.08808,-0.60759,12.52912,-17.32310,-1.10573
0.35655,0.94179,-0.27424,0.49745,1.34256,-1.56775,0.26355,3.14502,3.14690,-9.50567,2.52442,2.38719,-0.41651,-0.68177,0.07831,-0.59630,12.46665,-15.18228,-2.52594
0.35615,0.96240,-0.29378,0.36968,1.37137,-1.53004,0.32044,2.92138,3.09503,-9.14075,1.68907,3.08364,-0.40367,-0.69951,0.07003,-0.58552,7.70574,-15.50795,-4.32347
0.35415,0.98257,-0.31237,0.24594,1.38927,-1.48496,0.34578,2.72173,3.00596,-8.81740,0.99768,3.47755,-0.39123,-0.71567,0.06261,-0.57519,3.82428,-13.82321,-6.71296
0.35077,1.00220,-0.32994,0.12732,1.39732,-1.43423,0.35099,2.53412,2.91445,-8.41911,0.20743,3.72348,-0.37885,-0.73052,0.05540,-0.56545,1.71915,-13.32051,-7.05876
0.34526,1.02140,-0.34624,-0.00253,1.39674,-1.37313,0.44246,2.32598,2.80671,-7.99434,-0.14141,3.66148,-0.36865,-0.74375,0.04649,-0.55568,4.45858,-11.86045,-8.17614
0.33982,1.04071,-0.36264,-0.09713,1.39577,-1.32656,0.62066,2.18995,2.79187,-7.74125,-0.19199,3.97028,-0.35863,-0.75784,0.03444,-0.54394,13.91618,-9.85594,-5.25158
0.33257,1.05931,-0.37754,-0.20153,1.38868,-1.26873,0.79039,2.03456,2.78063,-7.40694,-0.81345,4.25041,-0.34909,-0.77068,0.02090,-0.53268,14.55144,-8.67795,-2.38694
