posX, posY, posZ, velX, velY, velZ, angVelX, angVelY, angVelZ, accX, accY, accZ, rotX, rotY, rotZ, rotW, angAccX, angAccY, angAccZ
-0.03206,1.17738,-0.53290,-0.40533,0.04492,-0.07348,0.37360,0.13980,0.08857,1.15330,-0.01264,1.25928,-0.24728,-0.91032,0.00096,-0.33191,7.49261,-2.39805,-1.56197
-0.04254,1.17859,-0.53417,-0.39382,0.04405,-0.06230,0.45679,0.15048,0.04783,1.11760,-0.22291,0.95774,-0.25010,-0.91103,-0.00576,-0.32778,8.91931,-0.52338,-2.86550
-0.04671,1.17897,-0.53424,-0.37514,0.04010,-0.05100,0.57149,0.20796,-0.05116,1.14668,-0.28917,0.49240,-0.25529,-0.91119,-0.01054,-0.32319,7.31535,3.06331,-5.92664
-0.05060,1.17924,-0.53460,-0.35562,0.03565,-0.04586,0.62161,0.26529,-0.13829,1.30157,-0.27856,0.32654,-0.26019,-0.91138,-0.01381,-0.31859,4.25972,4.43045,-5.55028
-0.05433,1.17953,-0.53508,-0.33773,0.03232,-0.04352,0.58898,0.29808,-0.19596,1.30320,-0.08712,0.25974,-0.26391,-0.91152,-0.01506,-0.31504,-1.26783,3.13591,-4.98257
-0.05778,1.18001,-0.53559,-0.31877,0.03262,-0.04198,0.36814,0.24600,-0.15608,1.28331,0.27829,0.31158,-0.26306,-0.91168,-0.01211,-0.31542,-10.42506,-1.58300,1.09175
-0.06120,1.18088,-0.53625,-0.30341,0.03871,-0.04281,0.06219,0.13756,-0.03456,1.03964,0.71254,-0.17357,-0.25804,-0.91193,-0.00672,-0.31899,-22.19606,-7.53907,8.06315
-0.06460,1.18236,-0.53703,-0.29086,0.05271,-0.04533,-0.18105,0.04367,0.11569,0.57637,0.97669,-0.36016,-0.25140,-0.91247,-0.00190,-0.32278,-17.38210,-6.45510,9.67634
-0.06811,1.18407,-0.53790,-0.28234,0.06787,-0.04893,-0.22523,0.00797,0.18165,0.55904,1.10803,-0.60081,-0.24782,-0.91293,-0.00056,-0.32425,-6.59633,-3.71836,6.67903
-0.07147,1.18638,-0.53902,-0.27294,0.08743,-0.05641,-0.08388,0.04986,0.16727,0.45642,1.14207,-0.66306,-0.24794,-0.91357,-0.00303,-0.32234,7.80991,1.83471,-0.24361
-0.07488,1.18878,-0.54032,-0.26591,0.10456,-0.06537,0.13254,0.12569,0.10544,0.41944,0.93474,-0.64491,-0.25046,-0.91423,-0.00757,-0.31843,12.45801,4.97377,-3.18200
-0.07816,1.19114,-0.54168,-0.25890,0.11874,-0.07313,0.36309,0.21450,-0.00502,0.43178,1.01241,-0.49930,-0.25531,-0.91462,-0.01298,-0.31325,16.18287,6.06426,-7.77460
-0.08149,1.19360,-0.54302,-0.25455,0.13011,-0.07885,0.49686,0.26525,-0.09126,0.35490,0.91853,-0.24578,-0.25986,-0.91478,-0.01742,-0.30877,14.65019,5.68271,-7.80131
-0.08473,1.19628,-0.54448,-0.24991,0.14209,-0.08553,0.49448,0.26983,-0.13303,0.42483,0.88015,-0.28302,-0.26274,-0.91484,-0.01945,-0.30603,3.09195,1.87725,-4.08590
-0.08787,1.19925,-0.54618,-0.24435,0.15691,-0.09439,0.36797,0.22167,-0.11166,0.28923,1.06494,-0.55055,-0.26289,-0.91490,-0.01889,-0.30575,-7.46590,-2.83842,0.81215
-0.09117,1.20264,-0.54786,-0.24277,0.17454,-0.10183,0.31441,0.19402,-0.08675,-0.04725,1.44493,-0.71772,-0.26320,-0.91509,-0.01952,-0.30488,-6.37814,-2.54603,2.18256
-0.09467,1.20640,-0.54955,-0.24475,0.19422,-0.10729,0.38184,0.20219,-0.05143,-0.25479,1.74930,-0.56179,-0.26408,-0.91561,-0.02310,-0.30230,2.30991,0.05807,2.27760
-0.09848,1.21116,-0.55147,-0.25165,0.22640,-0.11525,0.53581,0.24190,0.03564,-0.47040,1.79142,-0.54969,-0.26429,-0.91677,-0.02974,-0.29799,8.17456,1.60676,5.02508
-0.10234,1.21565,-0.55341,-0.25791,0.24737,-0.12147,0.65760,0.29481,0.10504,-0.51271,1.68017,-0.57986,-0.26446,-0.91809,-0.03629,-0.29302,10.20686,3.61723,5.29624
-0.10634,1.22039,-0.55560,-0.26490,0.26719,-0.13049,0.75794,0.36738,0.18959,-0.45370,1.20598,-0.67732,-0.26384,-0.91986,-0.04318,-0.28701,9.06675,4.61948,5.82426
-0.11035,1.22510,-0.55815,-0.27032,0.28276,-0.14290,0.81667,0.45536,0.27204,-0.39491,1.04945,-0.98757,-0.26256,-0.92200,-0.04940,-0.28023,3.84683,5.59933,5.97561
-0.11455,1.22987,-0.56094,-0.27769,0.29542,-0.15637,0.85576,0.55231,0.38495,-0.59076,0.76253,-0.87978,-0.25989,-0.92470,-0.05566,-0.27256,3.63324,7.09080,7.39509
-0.11896,1.23438,-0.56397,-0.28665,0.30114,-0.17068,0.79805,0.60269,0.54838,-0.57594,0.08448,-0.96047,-0.25428,-0.92784,-0.06037,-0.26612,-1.59210,3.74069,11.32016
-0.12331,1.23835,-0.56736,-0.29288,0.29672,-0.18734,0.66989,0.63744,0.70293,-0.34897,-0.73637,-1.24870,-0.24707,-0.93123,-0.06299,-0.26039,-8.42602,1.58255,12.50015
-0.12745,1.24138,-0.57122,-0.29448,0.27765,-0.20854,0.49524,0.67827,0.77372,-0.07355,-1.72562,-1.39688,-0.24057,-0.93443,-0.06302,-0.25493,-10.42077,1.00471,6.96076
-0.13124,1.24386,-0.57522,-0.28929,0.25368,-0.22723,0.39895,0.77967,0.67080,0.48318,-1.80991,-1.40587,-0.23881,-0.93692,-0.06227,-0.24753,-9.72342,5.76595,-4.05888
-0.13457,1.24600,-0.57925,-0.27791,0.23067,-0.24213,0.37912,0.88471,0.47670,0.85990,-1.54247,-0.92002,-0.24070,-0.93865,-0.06190,-0.23911,-2.78847,8.15274,-12.07374
-0.13761,1.24816,-0.58319,-0.26420,0.21325,-0.25169,0.39440,0.95853,0.24065,1.01648,-0.91555,-0.43700,-0.24528,-0.93957,-0.06177,-0.23071,-0.16395,7.06993,-16.81240
-0.14047,1.25072,-0.58679,-0.25062,0.20680,-0.25336,0.42233,0.99895,0.01995,0.94263,0.02533,0.24568,-0.25109,-0.93996,-0.06191,-0.22269,0.52362,4.10902,-16.76974
-0.14324,1.25389,-0.58975,-0.23854,0.21175,-0.24434,0.42189,0.94681,-0.12944,1.04257,0.78006,1.14895,-0.25611,-0.93992,-0.06226,-0.21700,0.86259,-0.30794,-12.11727
-0.14572,1.25778,-0.59207,-0.22433,0.22775,-0.22642,0.42184,0.77294,-0.22278,1.07171,1.57670,1.43780,-0.26028,-0.93912,-0.06373,-0.21505,-2.21632,-10.88091,-7.12718
-0.14797,1.26253,-0.59386,-0.20969,0.25482,-0.20360,0.50309,0.59148,-0.34714,0.94900,2.27302,1.60359,-0.26634,-0.93741,-0.06742,-0.21398,3.14341,-13.42915,-8.61663
-0.15016,1.26825,-0.59530,-0.19774,0.29249,-0.18033,0.67360,0.45101,-0.48707,0.68278,3.26839,1.39121,-0.27435,-0.93500,-0.07386,-0.21224,9.43083,-11.31261,-11.06851
-0.15259,1.27497,-0.59669,-0.19275,0.33719,-0.16200,0.92695,0.40964,-0.60273,0.09451,4.27734,1.27920,-0.28355,-0.93249,-0.08324,-0.20769,16.54859,-6.26031,-10.60606
-0.15547,1.28427,-0.59742,-0.19646,0.41492,-0.13683,1.45951,0.46923,-0.74065,-0.49513,5.50362,1.43227,-0.29637,-0.92888,-0.10096,-0.19786,31.17218,2.31437,-9.96572
-0.15875,1.29474,-0.59803,-0.20597,0.49528,-0.11533,1.97346,0.55117,-0.82806,-0.77424,6.17695,1.44208,-0.30911,-0.92475,-0.12127,-0.18596,37.07700,4.49810,-7.21448
-0.16217,1.30619,-0.59853,-0.21531,0.57171,-0.09728,2.42792,0.63926,-0.90245,-0.84254,6.62723,1.54508,-0.32229,-0.91972,-0.14312,-0.17255,37.87108,5.48643,-6.09661
-0.16608,1.32042,-0.59839,-0.23075,0.67650,-0.07300,2.87468,0.70186,-0.92910,-0.91117,6.53991,1.90444,-0.33498,-0.91359,-0.16792,-0.15797,32.96784,4.74647,-4.49526
-0.17013,1.33440,-0.59835,-0.24500,0.75265,-0.05600,2.89593,0.61136,-0.79342,-0.95647,6.27210,1.93473,-0.34096,-0.90930,-0.18583,-0.14962,13.20432,-4.02629,4.79974
-0.17498,1.35135,-0.59793,-0.26988,0.86249,-0.03666,2.46122,0.28021,-0.36877,-1.57171,6.09113,0.89954,-0.33502,-0.90915,-0.19569,-0.15135,-23.74360,-21.64394,21.23061
-0.17993,1.36757,-0.59788,-0.29094,0.93614,-0.02722,2.24504,0.15124,-0.14388,-2.26795,6.41578,0.26366,-0.33266,-0.90796,-0.20674,-0.14899,-26.90159,-19.40357,21.33314
-0.18556,1.38582,-0.59740,-0.31835,1.02638,-0.01291,2.37461,0.22521,-0.07372,-2.32646,6.79517,0.73641,-0.33493,-0.90468,-0.22337,-0.13955,1.04171,-0.25244,9.12033
-0.19203,1.40621,-0.59616,-0.35421,1.13285,0.01163,2.86905,0.47536,-0.13497,-2.63108,6.79778,1.54234,-0.34279,-0.89791,-0.24790,-0.12163,27.82231,13.71099,-1.27528
-0.19899,1.42691,-0.59453,-0.38971,1.22504,0.04078,3.42329,0.79458,-0.18384,-2.47624,6.60884,2.50736,-0.35179,-0.88918,-0.27551,-0.09844,40.71819,23.16642,-2.25726
-0.20638,1.44848,-0.59215,-0.42451,1.31186,0.07707,3.75687,0.99830,-0.10139,-2.18177,5.77561,3.38808,-0.35686,-0.88091,-0.30141,-0.07618,31.36422,17.56071,4.70173
-0.21410,1.47077,-0.58882,-0.45608,1.38645,0.11993,3.73970,0.97421,0.07131,-1.95187,4.87711,3.63672,-0.35682,-0.87472,-0.32232,-0.06041,5.03532,-0.68824,11.25195
-0.22217,1.49369,-0.58419,-0.48572,1.45884,0.17768,3.61559,0.86190,0.26807,-1.75434,4.24268,3.95627,-0.35395,-0.86948,-0.34124,-0.04764,-7.50466,-9.77532,11.42629
-0.23010,1.51630,-0.57919,-0.50582,1.50515,0.22682,3.58072,0.80977,0.37279,-1.81260,3.79394,4.21628,-0.35234,-0.86282,-0.36091,-0.03373,-4.90527,-8.69009,8.77476
-0.24604,1.56170,-0.56779,-0.53192,1.55999,0.30270,3.70449,0.85198,0.51507,-1.59716,3.35850,5.17037,-0.34926,-0.84593,-0.40302,-0.00028,6.63614,-0.37999,8.39618
-0.25529,1.58579,-0.55793,-0.55760,1.60213,0.38983,3.81004,0.83187,0.72350,-1.41668,2.04172,5.79589,-0.34207,-0.83720,-0.42631,0.01832,9.53539,-2.41585,11.74042
-0.26414,1.60908,-0.54824,-0.57262,1.62169,0.45591,3.77535,0.76707,0.88167,-0.97088,1.13058,5.60574,-0.33418,-0.82945,-0.44631,0.03391,1.11436,-8.62674,11.67297
-0.27250,1.63228,-0.53583,-0.57788,1.63367,0.54587,3.67753,0.73148,0.97227,-0.00937,0.48440,5.93367,-0.32729,-0.82189,-0.46367,0.04876,-7.16066,-4.68218,6.43471
-0.28048,1.65478,-0.52224,-0.57683,1.63225,0.63497,3.67486,0.74851,1.02454,0.11594,-0.51420,6.79070,-0.32141,-0.81228,-0.48228,0.06563,-0.77193,-0.37187,3.52420
-0.28799,1.67603,-0.50486,-0.56899,1.61239,0.76608,3.70108,0.68950,1.08508,0.78694,-1.57972,7.90024,-0.31385,-0.80184,-0.50198,0.08104,0.83737,-3.21076,2.22114
-0.29533,1.69631,-0.48735,-0.55877,1.58149,0.87764,3.73666,0.55825,1.15811,0.92348,-2.86280,8.33687,-0.30420,-0.79084,-0.52256,0.09465,4.38931,-8.02260,2.35107
-0.30240,1.71512,-0.46812,-0.54627,1.53436,0.99253,3.76063,0.33635,1.24247,1.11549,-3.88410,8.40324,-0.29177,-0.77980,-0.54376,0.10541,2.13020,-16.02621,2.53342
-0.30897,1.73235,-0.44724,-0.52933,1.47149,1.10627,3.80449,0.10221,1.29223,1.36357,-5.07465,8.02243,-0.27843,-0.76765,-0.56573,0.11463,4.71533,-16.57900,0.12637
-0.31486,1.74729,-0.42450,-0.50529,1.38447,1.22480,3.87697,-0.13085,1.27076,1.44378,-5.72677,6.82885,-0.26542,-0.75379,-0.58863,0.12191,4.75450,-15.28498,-5.19557
-0.32055,1.76146,-0.40217,-0.48339,1.30299,1.31163,4.00879,-0.18065,1.29384,1.49087,-5.96742,5.59555,-0.25299,-0.73786,-0.61128,0.13379,9.58414,-4.99337,-1.44854
-0.32594,1.77425,-0.37971,-0.46171,1.21726,1.37973,4.05949,-0.21968,1.36065,1.67424,-6.61324,4.27616,-0.23924,-0.72250,-0.63200,0.14603,7.24165,-1.93586,4.28736
-0.33101,1.78546,-0.35743,-0.44009,1.12509,1.42884,3.97780,-0.34374,1.41657,1.56975,-6.98243,2.92783,-0.22401,-0.70926,-0.65019,0.15496,-3.75210,-8.78298,2.31499
-0.33576,1.79511,-0.33566,-0.41820,1.02865,1.45872,3.85063,-0.43350,1.42728,1.52963,-6.94514,1.31610,-0.20973,-0.69660,-0.66653,0.16282,-8.26414,-10.26527,-1.28504
-0.33989,1.80352,-0.31469,-0.39125,0.93417,1.46865,3.74091,-0.35808,1.40543,1.90882,-6.57737,0.07575,-0.19876,-0.68296,-0.68118,0.17337,-8.18893,1.74231,-0.85623
-0.34339,1.81101,-0.29432,-0.36040,0.84588,1.46647,3.68053,-0.15278,1.41440,2.20066,-6.14780,-0.41675,-0.18987,-0.66788,-0.69470,0.18785,-6.20200,11.77359,2.53519
-0.34667,1.81801,-0.27401,-0.33339,0.77081,1.46434,3.69336,0.06416,1.45959,2.16118,-6.37449,0.09659,-0.18097,-0.65090,-0.70828,0.20472,-3.87966,16.93879,6.99270
-0.34938,1.82106,-0.25323,-0.30297,0.64791,1.47045,3.76419,0.13448,1.52149,1.60049,-7.15895,0.68349,-0.16910,-0.63256,-0.72303,0.22022,3.56915,4.51962,4.79421
-0.35269,1.82468,-0.23221,-0.28842,0.56052,1.47962,3.86579,0.07524,1.57075,1.11788,-7.38720,0.90090,-0.15437,-0.61322,-0.73877,0.23315,6.57583,-2.93947,2.37418
-0.35579,1.82603,-0.21108,-0.27366,0.45778,1.48788,3.94893,-0.15460,1.58317,1.54629,-7.46064,0.23493,-0.13595,-0.59401,-0.75518,0.24161,9.96794,-11.72949,0.65991
-0.35798,1.82487,-0.19087,-0.24686,0.33439,1.47909,3.86001,-0.60650,1.41003,1.82732,-6.71768,-1.17164,-0.11619,-0.57866,-0.77077,0.23993,-2.13237,-22.67663,-14.45990
-0.36007,1.82503,-0.17138,-0.22434,0.25955,1.46050,3.74462,-0.89052,1.24125,1.90095,-6.01801,-1.95750,-0.09863,-0.56355,-0.78472,0.23851,-5.36273,-21.38148,-20.18892
-0.36138,1.82373,-0.15283,-0.19457,0.17903,1.43125,3.66258,-1.07601,1.09985,2.10239,-5.48149,-2.32534,-0.08173,-0.54783,-0.79809,0.23718,-6.04708,-14.19909,-15.69109
-0.36204,1.82172,-0.13502,-0.16103,0.10540,1.39638,3.61853,-1.15883,0.98437,2.45198,-5.03094,-2.77564,-0.06602,-0.53087,-0.81101,0.23681,-2.10460,-5.70172,-10.80803
-0.36200,1.81923,-0.11813,-0.12364,0.04096,1.35459,3.54517,-1.17397,0.89957,2.75192,-4.19206,-3.31996,-0.05154,-0.51428,-0.82256,0.23718,-3.61229,-0.82552,-6.93824
-0.36120,1.81676,-0.10215,-0.08226,-0.00837,1.30741,3.44836,-1.11308,0.88321,2.96329,-2.94611,-3.59503,-0.03816,-0.49811,-0.83246,0.23967,-6.83152,2.34884,-3.87779
-0.35957,1.81447,-0.08713,-0.03692,-0.04364,1.25548,3.32548,-0.97396,0.98041,3.47338,-2.21894,-4.05070,-0.02550,-0.48250,-0.84018,0.24626,-7.84167,8.23434,8.15344
-0.35709,1.81229,-0.07314,0.01208,-0.06921,1.19841,3.10179,-0.88417,0.95374,3.75323,-1.76307,-4.21933,-0.01506,-0.46991,-0.84649,0.24984,-15.11490,6.30339,2.34645
-0.35397,1.81010,-0.06004,0.06007,-0.08907,1.14003,2.83514,-0.84280,0.82148,3.40903,-1.33903,-4.22681,-0.00648,-0.45966,-0.85217,0.24994,-17.94516,4.38614,-8.39511
-0.35051,1.80779,-0.04778,0.10268,-0.10654,1.08108,2.56226,-0.82881,0.66597,2.76368,-1.25468,-4.26469,0.00125,-0.45121,-0.85719,0.24825,-19.70364,1.91286,-12.36822
-0.34700,1.80534,-0.03625,0.13641,-0.12225,1.02399,2.36122,-0.81885,0.54995,2.06645,-0.84178,-3.74474,0.00912,-0.44251,-0.86214,0.24659,-16.45426,1.94030,-10.93889
-0.34348,1.80286,-0.02526,0.16260,-0.13492,0.97079,2.23928,-0.84510,0.46431,1.70967,-0.89811,-3.77403,0.01825,-0.43307,-0.86735,0.24459,-9.56298,-0.67968,-5.68046
-0.34002,1.80015,-0.01505,0.18183,-0.14843,0.91710,2.20805,-0.84366,0.45067,0.81884,-0.74263,-3.83101,0.02805,-0.42176,-0.87279,0.24408,-4.46128,-0.79931,-5.43041
-0.33684,1.79755,-0.00576,0.19233,-0.15694,0.86052,2.20850,-0.82494,0.58838,0.37954,-0.29906,-4.32625,0.03968,-0.40947,-0.87716,0.24770,0.60641,0.69742,8.05230
-0.33403,1.79524,0.00259,0.19416,-0.15883,0.80150,2.20922,-0.81093,0.86723,-0.33916,0.13708,-4.17014,0.05365,-0.39695,-0.87986,0.25573,-1.41450,-1.39792,16.18685
-0.33168,1.79328,0.00966,0.18835,-0.15463,0.73428,2.18665,-0.87185,1.21626,-0.17046,0.34116,-4.29076,0.07099,-0.38517,-0.88071,0.26637,-1.65553,-5.19260,24.66202
-0.32943,1.79158,0.01681,0.18215,-0.14705,0.68380,2.10194,-1.00340,1.31374,-0.51829,0.70423,-4.21292,0.08771,-0.37583,-0.88172,0.27133,-5.10978,-11.07971,10.16876
-0.32766,1.79043,0.02236,0.16953,-0.13231,0.61860,1.94455,-1.27514,1.28451,-0.48797,0.87395,-4.15651,0.10692,-0.37026,-0.88186,0.27165,-8.23237,-16.94530,-0.28188
-0.32604,1.78943,0.02745,0.15700,-0.11813,0.55981,1.76301,-1.57720,1.01935,-1.03454,1.01119,-4.28405,0.12504,-0.36736,-0.88284,0.26457,-9.41025,-19.87778,-20.16434
-0.32497,1.78874,0.03175,0.13830,-0.10225,0.50148,1.60051,-1.86856,0.88766,-1.95526,1.34283,-4.17026,0.14533,-0.36532,-0.88238,0.25849,-9.16752,-20.16058,-18.92930
-0.32446,1.78830,0.03519,0.11465,-0.08581,0.44247,1.45674,-2.13265,0.94608,-1.84427,1.21888,-4.31720,0.16837,-0.36348,-0.87970,0.25624,-9.01124,-20.08961,-0.95691
-0.32416,1.78808,0.03783,0.09332,-0.06964,0.38388,1.32524,-2.37945,0.98153,-1.20686,1.02037,-4.21922,0.19229,-0.36234,-0.87610,0.25335,-9.23062,-19.05030,2.30978
-0.32377,1.78784,0.03953,0.07826,-0.05764,0.32324,1.25778,-2.59764,0.91206,-0.76122,0.65862,-4.43159,0.21599,-0.36072,-0.87294,0.24739,-4.87538,-16.56790,-5.70869
-0.32320,1.78756,0.04015,0.06969,-0.04898,0.25879,1.25861,-2.74063,0.84815,-0.89887,0.73747,-4.85031,0.23920,-0.35737,-0.87006,0.24097,2.12296,-11.49490,-8.84437
-0.32276,1.78743,0.03972,0.06101,-0.03984,0.19175,1.24134,-2.82504,1.21286,-0.88924,0.75029,-4.89843,0.26594,-0.35191,-0.86321,0.24557,-2.92055,-7.63623,16.14740
-0.32205,1.78723,0.03823,0.05881,-0.03404,0.12282,1.26309,-2.88235,1.53735,0.58888,0.17721,-4.86575,0.29313,-0.34476,-0.85559,0.25137,-5.62360,-7.32239,29.06912
-0.32092,1.78698,0.03578,0.06410,-0.03022,0.05379,1.32442,-2.93123,1.73421,0.31419,0.31969,-5.01366,0.31992,-0.33634,-0.84823,0.25502,2.84056,-3.68846,12.31911
-0.33608,1.78083,0.03345,0.04240,-0.01272,-0.04861,1.36577,-2.98720,1.97256,0.85830,0.41788,-5.22832,0.34764,-0.32700,-0.83915,0.26085,0.41267,-5.73422,20.21040
-0.35306,1.77028,0.03625,0.04802,-0.01132,-0.04762,1.37179,-3.08827,2.11743,0.84196,1.31105,-5.34777,0.37618,-0.31877,-0.82868,0.26489,0.42099,-6.65397,12.13145
-0.35856,1.76096,0.03146,0.05074,-0.00948,-0.04505,1.30243,-3.23199,2.14753,0.78781,2.22929,-5.38971,0.40461,-0.31354,-0.81671,0.26638,-2.66262,-11.36209,4.71392
-0.36421,1.74765,0.01999,0.05354,-0.00685,-0.03644,1.00029,-3.54806,2.13679,0.24484,3.76639,-5.21353,0.43555,-0.31639,-0.79934,0.26693,-12.26196,-18.69917,-5.39562
-0.36894,1.73667,0.00769,0.05436,-0.00500,-0.02516,0.59650,-3.90522,2.06387,0.77502,4.28669,-5.51949,0.46618,-0.32416,-0.77876,0.26670,-21.11382,-25.38618,-8.65763
-0.37352,1.72842,-0.00557,0.05288,-0.00373,-0.01418,0.21642,-4.23582,1.92297,1.29933,4.33615,-6.11329,0.49628,-0.33455,-0.75623,0.26439,-19.97825,-25.60079,-16.44167
-0.37741,1.72242,-0.01890,0.05113,-0.00297,-0.00482,-0.09152,-4.50767,1.80170,2.28173,3.81080,-6.57298,0.52580,-0.34535,-0.73201,0.26160,-20.21503,-26.36266,-17.85189
-0.38170,1.71648,-0.03625,0.04639,-0.00205,0.00370,-0.33709,-4.80428,1.56891,3.85815,3.43562,-7.22275,0.55461,-0.35819,-0.70656,0.25471,-14.27029,-23.86771,-17.05493
-0.38622,1.71152,-0.05960,0.03437,-0.00098,0.00783,-0.38500,-5.13521,1.04607,5.24102,3.25901,-7.77186,0.58273,-0.37295,-0.68218,0.23656,4.33779,-21.61290,-29.79314
-0.38819,1.70923,-0.07895,0.02268,-0.00047,0.00722,-0.28499,-5.37221,0.54597,6.52253,3.75337,-8.08024,0.60933,-0.38547,-0.65904,0.21402,20.67374,-20.59339,-34.45462
-0.38902,1.70816,-0.10321,0.00960,-0.00042,0.00727,-0.23551,-5.62991,-0.01112,8.08747,4.55722,-7.55430,0.63401,-0.40142,-0.63412,0.18651,22.60966,-20.11144,-36.73371
-0.38751,1.70898,-0.12865,-0.00106,-0.00074,0.01038,-0.35382,-5.80883,-0.45296,10.60282,4.86981,-6.19638,0.65508,-0.42003,-0.60684,0.16183,4.90029,-15.35931,-32.17585
-0.38357,1.71184,-0.15598,-0.01391,-0.00084,0.01094,-0.40496,-5.85728,-0.96639,13.11182,4.85120,-4.45385,0.67163,-0.44009,-0.58082,0.13372,5.79835,-7.40622,-35.09891
-0.37735,1.71709,-0.18385,-0.02590,-0.00045,0.00850,-0.37260,-5.77591,-1.43974,15.28481,4.82902,-2.64897,0.68407,-0.45887,-0.55734,0.10423,15.19343,1.70916,-32.38715
-0.36801,1.72423,-0.21131,-0.03721,0.00050,0.00520,-0.33928,-5.61167,-1.89087,17.03084,4.78034,-1.19783,0.69228,-0.47807,-0.53542,0.07433,16.88667,9.29488,-29.44492
-0.35581,1.73320,-0.23745,-0.04793,0.00211,0.00207,-0.33870,-5.41461,-2.33118,19.04014,4.87438,1.29268,0.69639,-0.49836,-0.51448,0.04461,10.53233,11.13857,-28.57018
-0.34070,1.74416,-0.26282,-0.05958,0.00482,-0.00238,-0.30219,-5.12417,-2.82213,20.05667,5.27086,2.91557,0.69518,-0.52023,-0.49589,0.01311,22.10278,16.52701,-30.54819
-0.32926,1.75698,-0.28628,-0.07216,0.00848,0.00185,-0.64629,-4.76691,-3.35681,21.13012,5.95567,5.08980,0.68688,-0.55076,-0.47406,-0.01119,-0.34475,23.70057,-39.27107
-0.31701,1.77217,-0.30832,-0.08917,0.01470,0.00699,-1.02915,-4.30421,-4.07783,22.27153,6.27878,8.05986,0.66887,-0.58818,-0.45326,-0.03482,-10.74743,34.04622,-54.84239
-0.29731,1.79279,-0.33139,-0.11416,0.02743,0.00542,-1.13622,-3.70282,-5.19009,23.65341,5.48070,9.68103,0.63644,-0.63060,-0.43910,-0.06688,20.29716,28.98119,-68.63369
-0.27489,1.81433,-0.34950,-0.13559,0.04423,0.00201,-1.12800,-3.17385,-6.23691,25.46690,3.46819,10.88645,0.59718,-0.67294,-0.42455,-0.10144,26.93715,29.09210,-73.32379
-0.25137,1.83890,-0.36551,-0.15591,0.06799,-0.00603,-0.91016,-2.74347,-7.39434,27.65034,0.32374,11.92928,0.54739,-0.71500,-0.41053,-0.14356,37.76053,16.30268,-76.81460
-0.22179,1.86573,-0.37889,-0.17237,0.09935,-0.01464,-0.61858,-2.34442,-8.62457,29.41872,-4.95169,13.09079,0.48596,-0.75594,-0.39539,-0.18991,43.18738,5.60348,-83.26805
-0.19020,1.89376,-0.38952,-0.18024,0.13767,-0.02066,-0.30108,-1.86601,-9.80573,30.12155,-12.78635,14.48162,0.41185,-0.79395,-0.38035,-0.23527,45.46280,7.34562,-82.57287
-0.15512,1.92050,-0.39687,-0.17689,0.18055,-0.01896,-0.13190,-1.27366,-10.89551,28.99327,-21.60716,15.04432,0.32663,-0.82880,-0.36253,-0.27382,50.26269,21.89241,-73.97997
-0.11291,1.94340,-0.40087,-0.15774,0.22195,-0.01624,0.42324,-0.55288,-11.66834,23.79328,-31.53223,16.12086,0.23423,-0.85148,-0.35316,-0.30885,46.88295,17.93167,-73.18005
-0.06545,1.96049,-0.40090,-0.12706,0.26076,-0.01037,1.15474,0.07196,-12.34378,19.17118,-43.33192,14.37510,0.13638,-0.86251,-0.34575,-0.34340,58.08759,-4.05710,-43.66619
-0.02158,1.96992,-0.39704,-0.09080,0.28724,0.00258,1.71665,0.65726,-12.75067,10.81820,-50.15396,12.55443,0.03647,-0.86545,-0.33744,-0.36851,75.03032,1.89980,-38.44174
0.04007,1.97061,-0.38882,-0.03163,0.30791,0.01962,2.56154,1.09415,-13.03917,-3.29949,-56.73386,9.72419,-0.06682,-0.85419,-0.33477,-0.39220,61.52288,-10.80230,-24.07772
0.10421,1.96091,-0.37986,0.02406,0.30528,0.03466,3.35688,1.19795,-12.88101,-18.13507,-58.39306,4.61254,-0.15801,-0.83175,-0.33415,-0.41421,40.78359,-40.25380,-7.87080
0.16272,1.94591,-0.36995,0.06657,0.28807,0.05828,4.10957,1.56984,-12.45416,-29.21529,-56.32619,-0.10944,-0.24305,-0.80434,-0.33879,-0.42330,50.20536,-34.19144,19.29964
0.22433,1.92030,-0.35786,0.10785,0.25233,0.09632,5.02582,2.31751,-11.69828,-38.92675,-49.64259,-4.06377,-0.32656,-0.77359,-0.35594,-0.41015,82.18580,-27.05169,42.40497
0.27765,1.88439,-0.34644,0.14207,0.19944,0.12833,5.99489,2.63701,-10.73472,-46.39848,-39.17231,-5.82128,-0.39909,-0.73497,-0.38030,-0.39486,70.29935,-39.18947,45.35359
0.58411,1.53689,-0.23408,3.10519,-4.97151,0.78039,6.77696,2.33918,-9.69302,-49.95167,-27.50892,-8.76251,-0.45471,-0.69054,-0.40577,-0.38955,24.94398,-62.33606,38.20136
0.71822,1.42657,-0.14962,2.50564,-5.25048,0.68453,7.64277,2.27095,-8.75680,-50.19613,-18.75484,-8.25566,-0.51248,-0.64141,-0.43524,-0.36950,40.16135,-69.05256,42.60682
0.79912,1.32627,-0.09320,1.92088,-5.43167,0.60807,8.46724,1.85758,-7.93469,-47.81003,-12.14712,-3.82507,-0.56212,-0.58317,-0.47034,-0.35031,67.10432,-89.60788,41.18187
0.83330,1.23325,-0.05356,1.11022,-5.52853,0.52682,7.50222,0.03568,-7.78172,-43.83143,0.01784,-2.85933,-0.58582,-0.52571,-0.48194,-0.38494,-80.73667,-67.79179,-26.18402
0.83511,1.15755,-0.03889,0.60637,-5.45084,0.46859,5.40638,-1.38018,-7.89792,-40.75760,10.63886,-4.29230,-0.59789,-0.48347,-0.46521,-0.43860,-169.38080,-25.59846,-52.63582
0.82194,1.09437,-0.03171,0.09861,-5.21031,0.37385,2.20514,-1.64307,-7.60249,-30.52879,22.48080,-7.00936,-0.59386,-0.47891,-0.41423,-0.49637,-225.77030,60.29538,-32.21045
0.80530,1.04076,-0.02871,-0.26493,-4.88993,0.28733,-0.64670,-1.35703,-6.87184,-22.51598,24.04140,-8.17838,-0.57847,-0.49172,-0.35665,-0.54441,-201.44090,109.68580,30.41792
0.78690,0.99059,-0.02826,-0.54811,-4.59605,0.19678,-1.52739,-0.65467,-5.82642,-18.42514,20.07967,-8.06958,-0.57671,-0.50079,-0.32277,-0.55896,-80.10083,95.44263,58.86945
0.76624,0.94958,-0.02996,-0.80034,-4.36992,0.11929,-1.06390,-0.35508,-5.00095,-17.93132,14.78191,-6.11674,-0.58768,-0.49283,-0.31366,-0.55979,20.18806,32.13194,63.40978
0.72003,0.89592,-0.03112,-1.14750,-4.22373,0.05534,0.27639,-0.58960,-4.42886,-18.73526,11.19293,-3.49242,-0.60635,-0.46653,-0.33007,-0.55294,82.62474,-32.39812,53.44292
0.68876,0.84694,-0.03326,-1.39885,-4.06200,0.00744,0.81332,-0.95729,-4.46163,-18.50624,11.80019,-2.35581,-0.62456,-0.43186,-0.33106,-0.56019,52.06322,-47.29503,10.91329
0.65524,0.80194,-0.03690,-1.62893,-3.87156,-0.05456,0.56963,-0.97366,-4.73861,-15.28884,14.67101,-5.19148,-0.63822,-0.40355,-0.31205,-0.57658,-11.99013,-6.86533,-21.83953
0.62133,0.76116,-0.04303,-1.81232,-3.65606,-0.14307,0.40026,-0.62651,-4.79460,-11.21129,16.09784,-7.43212,-0.65311,-0.38356,-0.28901,-0.58549,-12.64985,25.93951,-10.72490
0.58871,0.72187,-0.05013,-1.93108,-3.46874,-0.22538,0.43992,-0.20076,-4.79374,-9.23688,15.68719,-6.47414,-0.67110,-0.36510,-0.26602,-0.58784,12.43744,29.38081,5.89896
0.55332,0.69185,-0.05976,-2.06955,-3.16836,-0.33126,0.33573,0.47345,-5.06286,-6.21923,18.61170,-5.41813,-0.69208,-0.34775,-0.22920,-0.58955,4.93319,39.52026,-17.31455
0.52031,0.66434,-0.06847,-2.13951,-2.88632,-0.40036,0.25512,0.93976,-5.06404,-3.13714,21.72831,-4.22294,-0.70870,-0.33281,-0.19691,-0.59009,7.33309,31.71559,-3.53179
0.48950,0.64064,-0.07704,-2.15567,-2.61200,-0.44999,-0.04232,1.48105,-4.85447,0.91841,23.54068,-3.47868,-0.71951,-0.32701,-0.16141,-0.59104,-3.14110,41.94654,8.72584
0.46158,0.62413,-0.08603,-2.12081,-2.28810,-0.49420,-0.27620,2.10039,-4.16527,4.27543,22.21018,-2.86781,-0.72536,-0.33618,-0.13061,-0.58632,-5.83145,54.87258,42.39582
0.43520,0.61167,-0.09393,-2.06929,-1.96743,-0.51022,-0.03070,2.24267,-3.41435,2.13181,19.04601,-0.48155,-0.73384,-0.34153,-0.11538,-0.57578,21.49660,15.88270,50.88446
0.40718,0.59703,-0.10019,-2.05639,-1.75642,-0.49578,0.45075,1.74762,-3.14651,0.42614,17.25137,1.69513,-0.74694,-0.32788,-0.11068,-0.56773,30.28035,-29.78408,26.97156
0.37894,0.58645,-0.10406,-2.05007,-1.53069,-0.44582,0.91385,0.85103,-3.21713,0.68096,16.03715,5.22410,-0.76156,-0.29830,-0.11383,-0.56399,28.69742,-71.91476,-2.69590
0.35333,0.58136,-0.10538,-1.99979,-1.26160,-0.36474,0.84300,0.28488,-3.45515,5.89836,17.53043,5.96195,-0.77059,-0.26849,-0.10634,-0.56816,-8.61309,-42.25657,-21.85644
0.33038,0.57502,-0.10735,-1.91988,-1.07900,-0.31417,0.59061,0.29264,-3.29917,10.43537,17.88180,5.63840,-0.77490,-0.25527,-0.09280,-0.57075,-20.89563,-9.61286,-3.47788
0.31589,0.57779,-0.10657,-1.72273,-0.79503,-0.23180,0.09774,0.47141,-2.62525,14.23995,16.66876,5.05997,-0.76995,-0.25965,-0.08237,-0.57703,-30.55370,16.37950,41.25835
0.30421,0.57956,-0.10493,-1.52295,-0.58732,-0.15247,-0.05752,0.36257,-2.01517,14.22856,13.99964,5.62578,-0.76739,-0.26084,-0.08132,-0.58005,-14.17294,4.74956,49.44532
0.29490,0.58253,-0.10147,-1.33019,-0.40679,-0.06173,-0.18423,-0.06533,-1.76729,13.73267,12.79714,6.84111,-0.76531,-0.25048,-0.08447,-0.58688,-9.17632,-26.44882,24.94917
0.28160,0.57846,-0.10208,0.01600,-0.02042,0.00224,-0.44419,-0.52856,-1.64693,16.22993,11.96041,6.16165,-0.76043,-0.23633,-0.08734,-0.59856,-21.29220,-31.51902,6.16287
0.28160,0.57846,-0.10208,0.00678,-0.01176,0.00421,-0.77156,-0.91612,-1.31689,19.23054,11.88910,4.21075,-0.75103,-0.22728,-0.09488,-0.61262,-23.22686,-24.54700,19.96204
0.28160,0.57846,-0.10208,-0.00101,0.00073,0.00055,-1.04532,-0.90594,-0.71927,22.39269,10.21136,3.19808,-0.73970,-0.23187,-0.10129,-0.62355,-23.08463,-6.03567,33.09468
0.28160,0.57846,-0.10208,-0.00914,0.01604,-0.00609,-1.13539,-0.57187,0.19700,22.50706,8.51019,0.47623,-0.72784,-0.25287,-0.10958,-0.62793,-14.60289,24.64136,56.17893
0.28160,0.57846,-0.10208,-0.01663,0.02601,-0.00857,-0.99081,-0.31626,0.96288,20.21639,8.23870,-0.41922,-0.71963,-0.27384,-0.12037,-0.62662,8.94741,20.42531,51.26204
0.28160,0.57846,-0.10208,-0.02030,0.03102,-0.01106,-0.94024,-0.13294,1.35318,19.15448,8.13399,-0.75795,-0.71144,-0.28988,-0.12773,-0.62731,4.04773,17.43900,34.66262
0.28160,0.57846,-0.10208,-0.02523,0.03657,-0.01376,-0.89293,0.06185,1.80196,18.01993,8.75513,-0.94923,-0.70194,-0.31017,-0.13676,-0.62640,2.15647,15.87357,30.28963
0.28160,0.57846,-0.10208,-0.02960,0.04293,-0.01979,-0.96324,0.37421,2.25185,16.52536,10.01781,-1.30806,-0.68951,-0.33584,-0.14331,-0.62550,-4.16762,20.40816,31.36807
0.28160,0.57846,-0.10208,-0.03339,0.04947,-0.02903,-1.10352,0.84467,2.70841,14.48694,10.97071,-2.35015,-0.67444,-0.36820,-0.14594,-0.62311,-13.33473,30.84019,30.94143
0.28160,0.57846,-0.10208,-0.03572,0.05439,-0.04059,-1.29061,1.44336,3.07005,11.39890,11.49924,-3.19830,-0.65757,-0.40492,-0.14285,-0.61905,-17.49673,39.68776,26.89847
0.28160,0.57846,-0.10208,-0.03679,0.05716,-0.05360,-1.54311,2.08892,3.28698,7.82195,11.61135,-3.69979,-0.63884,-0.44355,-0.13335,-0.61430,-24.34855,44.18446,16.56153
0.28160,0.57846,-0.10208,-0.03827,0.05807,-0.06638,-1.85850,2.64597,3.38628,4.18034,11.34355,-3.79994,-0.61767,-0.48161,-0.11978,-0.61007,-28.99579,37.50585,8.99662
0.28160,0.57846,-0.10208,-0.04111,0.05713,-0.07757,-2.19921,3.04477,3.40779,0.91009,10.88798,-3.75950,-0.59404,-0.51737,-0.10440,-0.60708,-31.05530,27.00116,3.21112
0.28160,0.57846,-0.10208,-0.04750,0.05502,-0.08457,-2.47835,3.19408,3.47023,-1.95922,10.25789,-3.52410,-0.56806,-0.55017,-0.09260,-0.60502,-23.92050,11.12013,5.62737
0.28160,0.57846,-0.10208,-0.05612,0.05159,-0.08752,-2.67194,3.14670,3.56813,-4.56633,9.36106,-2.98553,-0.54045,-0.58000,-0.08501,-0.60356,-13.14413,-1.90752,10.13270
0.28160,0.57846,-0.10208,-0.06374,0.04756,-0.08816,-2.78999,3.03111,3.65226,-6.40411,8.28845,-2.67996,-0.51234,-0.60764,-0.07925,-0.60167,-7.68630,-9.52622,10.73437
0.28160,0.57846,-0.10208,-0.07249,0.04181,-0.08634,-2.84918,2.81303,3.75469,-8.36303,7.10295,-2.44650,-0.48310,-0.63247,-0.07691,-0.60057,-1.25849,-9.19801,9.01664
0.28160,0.57846,-0.10208,-0.08128,0.03421,-0.08173,-2.87019,2.38243,3.85160,-10.50434,5.27960,-2.17826,-0.45279,-0.65188,-0.07984,-0.60304,5.37264,-27.34629,12.04807
0.28160,0.57846,-0.10208,-0.08784,0.02595,-0.07355,-2.69922,1.99176,3.92684,-11.49700,2.94957,-1.54587,-0.42552,-0.66927,-0.08623,-0.60298,16.15167,-20.76206,7.47231
0.28160,0.57846,-0.10208,-0.09024,0.01958,-0.06786,-2.57586,1.71148,3.91959,-12.35921,1.30300,-0.98054,-0.39902,-0.68557,-0.09051,-0.60214,18.15772,-19.25108,4.58146
0.28160,0.57846,-0.10208,-0.38752,0.04016,-0.09504,-2.43892,1.35345,3.84335,-12.53017,-0.94377,-0.99562,-0.37204,-0.70131,-0.09513,-0.60058,10.76288,-21.35433,-3.41894
0.28160,0.57846,-0.10208,-0.55986,0.01383,-0.10747,-2.23939,1.13006,3.74152,-12.39386,-2.86240,-0.95713,-0.34903,-0.71290,-0.10080,-0.59983,15.82798,-15.01529,-5.42474
0.28160,0.57846,-0.10208,-0.68129,-0.02067,-0.11615,-2.06482,1.00270,3.63685,-12.17188,-4.09686,-0.99776,-0.32700,-0.72425,-0.10585,-0.59777,18.49917,-10.88814,-8.45616
0.65768,1.10712,-0.14421,0.28257,2.00129,-0.39926,-1.67456,0.89707,3.47833,-11.26045,-5.60582,-0.78449,-0.31571,-0.73190,-0.11341,-0.59311,23.77412,-3.76528,-10.55543
0.65126,1.12907,-0.15032,0.11042,1.90249,-0.40821,-1.41638,0.84263,3.26038,-10.75551,-6.78287,-0.05714,-0.30110,-0.74074,-0.11952,-0.58852,20.23519,-0.30413,-13.00962
0.64528,1.15039,-0.15625,-0.01457,1.81638,-0.41227,-1.43040,0.77866,3.03096,-10.31347,-7.60645,-0.02722,-0.28374,-0.74879,-0.12018,-0.58682,4.40836,-4.57200,-17.68341
0.63602,1.17053,-0.16190,-0.15338,1.71487,-0.41342,-1.46735,0.72265,2.77497,-9.00579,-8.49063,-0.16091,-0.26785,-0.75556,-0.11833,-0.58599,-4.63663,-7.99845,-17.67143
0.62396,1.18902,-0.16721,-0.29945,1.59407,-0.41011,-1.45863,0.69755,2.48006,-8.30360,-9.25724,0.24779,-0.25508,-0.76140,-0.11511,-0.58477,0.72275,-3.38122,-18.02575
0.61279,1.20639,-0.17253,-0.40287,1.49574,-0.40576,-1.50831,0.64485,2.25327,-7.86555,-9.57485,0.38119,-0.24100,-0.76676,-0.11113,-0.58451,-2.15091,-5.16001,-19.01796
