posX, posY, posZ, velX, velY, velZ, angVelX, angVelY, angVelZ, accX, accY, accZ, rotX, rotY, rotZ, rotW, angAccX, angAccY, angAccZ
-0.03091,1.15785,-0.60367,-0.00955,0.01836,0.03642,0.37959,-0.08773,-0.38578,0.73128,0.38953,0.60249,-0.04851,-0.95648,0.14096,-0.25085,13.92346,-4.62666,-12.57356
-0.03058,1.15824,-0.60293,-0.00186,0.02060,0.04079,0.45911,-0.15317,-0.45542,0.48299,0.12531,0.14243,-0.05465,-0.95629,0.13727,-0.25235,6.72341,-5.10177,-6.14567
-0.03033,1.15852,-0.60239,0.00280,0.02034,0.04051,0.50717,-0.18805,-0.51060,0.25510,-0.09410,-0.17452,-0.06067,-0.95610,0.13396,-0.25347,3.66520,-3.41619,-3.99741
-0.03015,1.15868,-0.60214,0.00501,0.01829,0.03592,0.51362,-0.19160,-0.54800,0.13013,-0.10490,-0.43597,-0.06627,-0.95594,0.13147,-0.25397,1.79047,-0.57782,-3.50457
-0.03007,1.15882,-0.60223,0.00454,0.01696,0.02779,0.50511,-0.17144,-0.52207,-0.09265,0.04775,-0.68129,-0.07018,-0.95597,0.12899,-0.25407,0.04305,0.95856,0.13761
-0.03021,1.15903,-0.60265,0.00047,0.01691,0.01606,0.42013,-0.14535,-0.42371,-0.35284,0.08591,-0.84329,-0.07130,-0.95594,0.12815,-0.25429,-4.43844,2.08736,5.70677
-0.03056,1.15932,-0.60327,-0.00597,0.01793,0.00258,0.31624,-0.10229,-0.33554,-0.61355,0.09967,-1.09590,-0.07156,-0.95596,0.12837,-0.25404,-8.12658,2.13915,8.13391
-0.03111,1.15986,-0.60410,-0.01434,0.02303,-0.01124,0.27408,-0.01452,-0.31193,-0.64843,0.52318,-0.97217,-0.07310,-0.95643,0.12800,-0.25200,-4.25804,5.84196,2.57152
-0.03175,1.16071,-0.60489,-0.02193,0.03180,-0.02105,0.26498,0.04662,-0.29485,-0.66224,0.87742,-0.71685,-0.07488,-0.95695,0.12698,-0.25002,-1.12900,5.61938,1.05771
-0.03269,1.16207,-0.60591,-0.03302,0.04766,-0.03191,0.25281,0.09782,-0.24773,-0.64321,1.15066,-0.61545,-0.07565,-0.95756,0.12584,-0.24805,-0.09510,3.56915,2.78110
-0.03362,1.16371,-0.60704,-0.04171,0.06482,-0.04143,0.20157,0.10583,-0.17930,-0.67666,1.36743,-0.59182,-0.07534,-0.95784,0.12559,-0.24716,-3.07463,1.65655,4.19268
-0.03492,1.16592,-0.60832,-0.05476,0.08824,-0.05177,0.12301,0.10607,-0.07736,-1.00091,1.65013,-0.71757,-0.07336,-0.95804,0.12605,-0.24674,-5.27337,-0.24755,7.34017
-0.03635,1.16856,-0.60950,-0.06718,0.11261,-0.05885,0.16051,0.15339,-0.07688,-1.23227,2.23188,-0.70020,-0.07403,-0.95875,0.12451,-0.24456,-1.10541,1.50924,2.86152
-0.03825,1.17243,-0.61062,-0.08452,0.15175,-0.06295,0.35212,0.22783,-0.15922,-1.38897,3.18481,-0.21583,-0.07808,-0.96013,0.11909,-0.24055,10.46693,6.00146,-5.10654
-0.04034,1.17717,-0.61158,-0.10050,0.19566,-0.06356,0.64128,0.29075,-0.27697,-1.43568,3.93298,-0.13090,-0.08479,-0.96185,0.10985,-0.23579,20.37915,4.93008,-8.36784
-0.04335,1.18448,-0.61266,-0.12870,0.27334,-0.06589,1.18287,0.40361,-0.52739,-1.75662,4.57775,-0.17890,-0.09801,-0.96430,0.09284,-0.22783,31.80989,6.57809,-15.14180
-0.04656,1.19206,-0.61413,-0.15412,0.33962,-0.07476,1.46684,0.41824,-0.60949,-1.82023,5.32801,-0.72695,-0.10735,-0.96581,0.07872,-0.22248,23.13490,3.26411,-8.99452
-0.05019,1.20054,-0.61597,-0.18007,0.40424,-0.08828,1.61601,0.36203,-0.56870,-2.45517,5.85072,-1.26646,-0.11354,-0.96677,0.06550,-0.21948,14.11809,-3.75548,0.03956
-0.05539,1.21210,-0.61874,-0.22743,0.50623,-0.11415,1.98033,0.38748,-0.57946,-3.60652,6.90970,-2.44552,-0.12211,-0.96813,0.04586,-0.21381,17.87553,-2.50680,1.32841
-0.06165,1.22544,-0.62212,-0.28245,0.61623,-0.14491,2.65954,0.67604,-0.82912,-4.73733,8.34110,-2.97685,-0.13909,-0.96999,0.01751,-0.19867,40.94949,13.98379,-11.80989
-0.06903,1.24018,-0.62573,-0.34208,0.72205,-0.17217,3.37567,1.09796,-1.18601,-5.27303,9.55384,-2.65923,-0.16182,-0.97086,-0.01518,-0.17613,58.70942,31.43528,-28.79892
-0.07837,1.25789,-0.62998,-0.41962,0.85105,-0.20270,4.13158,1.55296,-1.20246,-5.21697,9.06971,-1.10876,-0.17829,-0.97114,-0.05553,-0.14837,68.04930,37.30594,-2.85101
-0.08901,1.27732,-0.63464,-0.50199,0.98033,-0.23352,4.32926,1.71850,-0.91722,-4.66237,7.63171,-1.15142,-0.18428,-0.97067,-0.08707,-0.12749,20.55393,8.71560,15.56075
-0.09918,1.29582,-0.63899,-0.55666,1.06294,-0.25210,4.17108,1.65076,-0.57439,-4.29081,6.46131,-0.94712,-0.18493,-0.96986,-0.11097,-0.11344,-2.96681,-7.02032,25.23279
-0.11043,1.31563,-0.64356,-0.61617,1.14615,-0.26971,3.87036,1.46755,-0.15805,-4.43076,5.63018,-1.25794,-0.17985,-0.96940,-0.13081,-0.10392,-19.24698,-21.25817,29.02829
-0.12260,1.33617,-0.64800,-0.67713,1.22229,-0.28098,3.72480,1.47968,0.05179,-4.80056,5.02721,-0.84379,-0.17821,-0.96812,-0.15155,-0.08956,-13.49391,-9.95034,20.04696
-0.13557,1.35724,-0.65190,-0.73680,1.28959,-0.28057,3.74367,1.66196,0.06634,-4.14790,4.43391,0.34954,-0.18158,-0.96528,-0.17443,-0.06951,0.05332,10.30565,6.53663
-0.14862,1.37867,-0.65500,-0.78344,1.34654,-0.26686,3.84015,1.87897,-0.08212,-2.99733,3.49821,1.39424,-0.18991,-0.96037,-0.19850,-0.04714,4.24283,15.67805,-3.21807
-0.16121,1.40012,-0.65693,-0.81157,1.39108,-0.23676,4.08512,2.23215,-0.48323,-1.55220,2.55510,2.55703,-0.20744,-0.95175,-0.22528,-0.01955,13.04576,27.43369,-19.97502
-0.17308,1.42128,-0.65768,-0.82097,1.42015,-0.19423,4.27251,2.55129,-0.94001,0.08346,1.51229,3.73204,-0.22933,-0.94033,-0.25123,0.00884,13.71389,34.45844,-28.68545
-0.18432,1.44208,-0.65706,-0.81786,1.43639,-0.13839,4.14821,2.57756,-1.21528,0.80434,0.49003,4.10352,-0.24751,-0.92972,-0.27107,0.02966,-5.01991,12.50880,-18.22948
-0.19541,1.46231,-0.65648,-0.81291,1.43960,-0.09619,3.85152,2.40845,-1.25933,0.46902,0.16445,3.64305,-0.25946,-0.92120,-0.28654,0.04436,-23.46416,-9.12520,-4.84687
-0.20652,1.48285,-0.65408,-0.80974,1.44686,-0.03350,3.58069,2.37875,-1.30268,-0.22488,1.00126,4.23004,-0.27205,-0.91233,-0.29983,0.06115,-21.14708,-3.04561,-1.00432
-0.21799,1.50391,-0.65019,-0.81367,1.46059,0.04028,3.53089,2.44258,-1.26534,-0.21378,1.23863,6.06575,-0.28312,-0.90159,-0.31665,0.08199,-4.68206,6.64258,2.95227
-0.22969,1.52559,-0.64334,-0.82012,1.48113,0.14920,3.62577,2.43997,-1.13837,-0.55535,1.51404,7.36023,-0.29088,-0.88954,-0.33691,0.10297,4.06272,-2.83831,6.03093
-0.24153,1.54704,-0.63599,-0.82780,1.49513,0.24117,3.77545,2.46749,-0.96212,-0.50693,0.97548,7.89816,-0.29626,-0.87628,-0.35849,0.12590,13.97176,-0.54148,9.79369
-0.25343,1.56837,-0.62633,-0.83531,1.50433,0.34932,3.86330,2.38284,-0.67022,-0.23419,0.23739,7.79782,-0.29626,-0.86400,-0.37955,0.14723,11.15579,-7.80379,16.74600
-0.26528,1.58922,-0.61555,-0.83928,1.50192,0.45016,3.80760,2.13769,-0.29520,0.19460,-0.84497,6.97702,-0.29082,-0.85422,-0.39834,0.16450,3.58204,-17.94124,20.61695
-0.27659,1.60890,-0.60499,-0.83407,1.48860,0.53281,3.54688,1.70949,0.09867,0.76917,-1.32413,5.52670,-0.28077,-0.84856,-0.41294,0.17490,-13.20039,-35.80206,24.44705
-0.28730,1.62815,-0.59461,-0.81965,1.47021,0.59210,3.33198,1.42428,0.30908,1.07554,-1.73244,4.63889,-0.27315,-0.84206,-0.42665,0.18518,-18.09111,-33.64251,17.07523
-0.29708,1.64620,-0.58285,-0.79246,1.43478,0.66022,3.13522,1.25504,0.43381,1.73306,-2.65465,3.88239,-0.26696,-0.83517,-0.43905,0.19613,-10.55047,-14.58013,7.95901
-0.30640,1.66368,-0.57110,-0.76289,1.39429,0.71020,3.01170,1.26374,0.42418,1.86981,-3.07943,3.38001,-0.26480,-0.82607,-0.45117,0.20958,-11.57040,-4.16181,1.78256
-0.31555,1.68057,-0.55914,-0.73780,1.35350,0.75028,3.00956,1.43489,0.40210,1.91370,-3.55991,3.26165,-0.26444,-0.81423,-0.46399,0.22764,-3.36645,10.20994,-1.09334
-0.32372,1.69568,-0.54599,-0.70235,1.29119,0.79940,3.02333,1.65128,0.38739,2.64592,-4.17489,2.99502,-0.26487,-0.80102,-0.47617,0.24793,0.95080,14.85520,2.26458
-0.33136,1.71079,-0.53273,-0.66820,1.24083,0.83376,3.01440,1.71994,0.36625,3.29710,-4.40461,2.84837,-0.26434,-0.78811,-0.48848,0.26531,-0.49147,9.51040,0.30921
-0.33721,1.72392,-0.51856,-0.61260,1.16839,0.87456,2.92602,1.59828,0.31890,4.04251,-5.02475,2.30523,-0.26281,-0.77694,-0.50033,0.27742,-3.82029,-3.92606,-3.15772
-0.34242,1.73622,-0.50467,-0.55737,1.09924,0.90235,2.77683,1.37895,0.24795,3.97956,-5.07500,1.82188,-0.26081,-0.76750,-0.51143,0.28522,-10.98242,-16.08140,-6.17798
-0.34661,1.74753,-0.49046,-0.50045,1.02812,0.92595,2.67305,1.30261,0.17053,3.77596,-5.19633,1.41899,-0.26038,-0.75684,-0.52203,0.29476,-8.92059,-8.64343,-6.24039
-0.35010,1.75776,-0.47626,-0.44498,0.95596,0.94410,2.60893,1.38082,0.08882,3.82799,-5.06695,1.01714,-0.26216,-0.74438,-0.53182,0.30713,-5.71231,3.89952,-4.64526
-0.35285,1.76714,-0.46226,-0.38866,0.88785,0.95579,2.56778,1.55492,0.02779,3.99524,-4.74506,0.59771,-0.26542,-0.73044,-0.54065,0.32204,-3.57746,12.24524,-3.43092
-0.35523,1.77627,-0.44839,-0.34034,0.83263,0.96214,2.52099,1.67913,0.00502,4.21235,-4.63716,0.43224,-0.26812,-0.71660,-0.54873,0.33689,-3.51643,12.89415,0.14478
-0.35628,1.78402,-0.43425,-0.28251,0.76821,0.97099,2.44629,1.72993,-0.00862,4.34992,-4.76136,0.92836,-0.27039,-0.70354,-0.55603,0.35036,-5.51569,6.76521,0.39176
-0.35630,1.78992,-0.41950,-0.21911,0.68741,0.98973,2.36616,1.47499,-0.04364,4.11350,-5.42332,1.37126,-0.26885,-0.69331,-0.56547,0.35678,-4.83741,-11.59055,-3.51321
-0.35671,1.79556,-0.40452,-0.17634,0.62146,1.00784,2.32624,1.12996,-0.07988,3.42845,-5.57407,1.57817,-0.26473,-0.68412,-0.57661,0.35975,-5.92417,-25.63513,-6.22072
-0.35653,1.79940,-0.38909,-0.13464,0.54229,1.02885,2.32619,0.70573,-0.09551,2.65554,-5.71907,1.32315,-0.25720,-0.67607,-0.58951,0.35951,-0.89459,-29.23541,-6.33242
-0.35611,1.80154,-0.37384,-0.09684,0.45237,1.04345,2.33711,0.29263,-0.09866,2.02613,-5.48657,0.48625,-0.24775,-0.66859,-0.60302,0.35773,0.21120,-27.42970,-4.08462
-0.35598,1.80409,-0.35916,-0.07247,0.39012,1.04588,2.36153,0.08793,-0.08971,1.73487,-4.95398,-0.13185,-0.23964,-0.65955,-0.61559,0.35864,1.31490,-19.76406,-3.14308
-0.35537,1.80503,-0.34513,-0.04568,0.31577,1.03678,2.42839,-0.03284,-0.05277,1.30475,-4.38803,-0.95361,-0.23089,-0.64929,-0.62830,0.36105,3.27674,-9.54713,0.57896
-0.35511,1.80638,-0.33164,-0.03102,0.26537,1.02102,2.48990,-0.02739,0.01676,0.87591,-4.09607,-1.73281,-0.22284,-0.63784,-0.63981,0.36624,6.09606,-2.87299,3.02592
-0.35476,1.80678,-0.31924,-0.01819,0.21186,0.99130,2.50379,0.00142,0.12087,0.97268,-3.72656,-2.58310,-0.21446,-0.62693,-0.64969,0.37264,2.21166,1.49000,8.88973
-0.35423,1.80718,-0.30757,-0.00559,0.17097,0.95691,2.44560,0.00633,0.17485,1.25153,-3.41431,-3.22899,-0.20703,-0.61722,-0.65845,0.37765,-2.43071,-0.51316,6.01540
-0.35280,1.80621,-0.29799,0.01909,0.11686,0.89604,2.30412,0.04744,0.15502,1.46480,-2.58575,-3.46647,-0.20259,-0.60852,-0.66569,0.38147,-8.24757,1.58585,-1.06550
-0.35130,1.80588,-0.28839,0.03972,0.08406,0.84768,2.19947,0.10610,0.13334,1.51069,-2.26340,-3.53878,-0.19870,-0.59916,-0.67286,0.38572,-6.64675,5.08469,-0.12806
-0.34940,1.80517,-0.27967,0.06271,0.05216,0.79548,2.06998,0.17311,0.07349,1.40777,-1.67542,-2.88845,-0.19656,-0.59020,-0.67940,0.38916,-9.27545,4.23378,-3.25332
-0.34755,1.80483,-0.27036,0.07931,0.03408,0.76548,2.00244,0.22743,0.02546,1.35897,-1.27586,-2.06613,-0.19415,-0.58047,-0.68641,0.39270,-7.00833,4.92716,-3.28247
-0.34537,1.80433,-0.26094,0.09727,0.01782,0.74505,2.00739,0.29071,-0.01173,1.25281,-0.73779,-0.71439,-0.19153,-0.56925,-0.69412,0.39683,-2.22506,4.62940,-2.47006
-0.34300,1.80405,-0.25073,0.11428,0.00919,0.74263,2.14017,0.36791,-0.00971,1.02176,-0.34564,0.47119,-0.18740,-0.55505,-0.70333,0.40266,6.62096,5.34019,-0.53247
-0.34079,1.80372,-0.23989,0.12434,0.00159,0.75106,2.35262,0.43786,0.07056,0.51685,-0.70169,1.04594,-0.18065,-0.53851,-0.71318,0.41079,14.98493,5.65392,4.66542
-0.33891,1.80282,-0.22823,0.12652,-0.01369,0.77090,2.66717,0.37819,0.20230,-0.00197,-1.14706,1.37382,-0.16842,-0.52006,-0.72495,0.41907,20.71528,-1.57611,7.98386
-0.33765,1.80169,-0.21636,0.11795,-0.02934,0.78983,2.86387,0.10048,0.27410,-0.67951,-1.15135,1.23606,-0.15239,-0.50498,-0.73718,0.42231,15.96443,-16.59852,2.74260
-0.33688,1.80047,-0.20439,0.10337,-0.04291,0.80606,2.96616,-0.29849,0.30894,-1.10126,-1.05005,0.92948,-0.13321,-0.49283,-0.74939,0.42165,9.61149,-26.22037,-1.09335
-0.33668,1.79921,-0.19243,0.08259,-0.05377,0.81836,2.94024,-0.87024,0.25529,-1.46232,-0.76567,0.57304,-0.11072,-0.48553,-0.76176,0.41441,2.24295,-36.58341,-7.90175
-0.33689,1.79800,-0.18062,0.06022,-0.06140,0.82508,2.87647,-1.40670,0.16860,-2.20923,-0.67475,0.48618,-0.08699,-0.48007,-0.77381,0.40395,-4.61420,-43.42100,-16.94785
-0.33815,1.79646,-0.16891,0.02628,-0.07244,0.82847,2.87334,-1.93793,0.16000,-3.03018,-0.71290,0.12666,-0.05869,-0.47493,-0.78541,0.39259,-0.56062,-39.32485,-11.38185
-0.34029,1.79479,-0.15750,-0.01397,-0.08312,0.82634,2.93767,-2.34652,0.27260,-3.17663,-0.81191,-0.36579,-0.02751,-0.46806,-0.79541,0.38403,3.46946,-32.18198,0.53961
-0.34368,1.79235,-0.14699,-0.06702,-0.10472,0.80935,3.04584,-2.77922,0.43989,-2.82717,-1.55971,-1.62937,0.00811,-0.46055,-0.80426,0.37548,5.64586,-25.84437,5.91436
-0.34641,1.78968,-0.13714,-0.09717,-0.12510,0.78528,3.10302,-3.00888,0.49851,-2.20210,-1.87499,-2.39532,0.03986,-0.45172,-0.81242,0.36652,4.29423,-22.49396,2.63611
-0.34905,1.78649,-0.12827,-0.11800,-0.14886,0.75153,3.16596,-3.16866,0.49256,-1.22260,-2.08960,-3.29713,0.07087,-0.44160,-0.82041,0.35621,5.73002,-15.53092,0.49797
-0.35135,1.78212,-0.12186,-0.12815,-0.18687,0.68403,3.27380,-3.20445,0.45483,-0.11852,-2.10238,-4.18876,0.09991,-0.42866,-0.82865,0.34585,5.75088,-3.17009,-3.09964
-0.35273,1.77804,-0.11557,-0.12121,-0.21169,0.62962,3.33296,-3.11587,0.44528,1.05748,-2.08671,-5.07303,0.12604,-0.41459,-0.83566,0.33749,6.42661,5.37836,4.08819
-0.35349,1.77379,-0.11070,-0.10611,-0.23274,0.56616,3.34701,-2.97775,0.41061,1.37920,-1.42432,-5.58151,0.14953,-0.40021,-0.84212,0.32910,2.61052,9.25582,-2.26912
-0.35273,1.76963,-0.10819,-0.06937,-0.24729,0.47902,3.35844,-2.50510,0.84553,2.23510,-0.40868,-5.64562,0.16988,-0.38096,-0.84412,0.33687,-4.04805,21.98544,25.79899
-0.35124,1.76615,-0.10623,-0.02894,-0.24773,0.40132,3.27937,-2.08434,1.36603,3.36549,0.32177,-5.57482,0.19012,-0.36221,-0.84266,0.35011,-11.47683,23.09708,46.94935
-0.34914,1.76340,-0.10566,0.01269,-0.23584,0.31757,3.11471,-1.82083,1.75466,2.20157,1.01467,-4.98475,0.21015,-0.34624,-0.83958,0.36202,-15.13485,13.01535,25.66356
-0.34753,1.76115,-0.10524,0.03699,-0.21821,0.24944,2.95953,-1.81317,2.03679,1.75468,1.44583,-4.95926,0.23421,-0.33245,-0.83489,0.37092,-12.80532,-0.62336,22.95612
-0.34617,1.75930,-0.10544,0.05091,-0.19820,0.18793,2.81523,-1.97429,2.05750,1.35635,1.88236,-5.42383,0.25972,-0.32168,-0.83058,0.37310,-11.66940,-11.28664,7.35150
-0.34499,1.75873,-0.10812,0.05855,-0.16138,0.09935,2.57890,-2.38158,1.79327,0.25310,2.75911,-5.79158,0.28768,-0.31846,-0.82585,0.36578,-9.12620,-22.38894,-19.90450
-0.34425,1.75905,-0.11147,0.05711,-0.11770,0.01906,2.34985,-2.81593,1.56831,-0.33103,3.50409,-5.86046,0.31756,-0.31756,-0.81917,0.35675,-9.20846,-27.68271,-24.03053
-0.34937,1.76090,-0.11480,0.02353,-0.00688,-0.05317,2.14109,-3.21263,1.36317,-0.48106,3.97164,-5.81908,0.34818,-0.31843,-0.81089,0.34617,-10.49977,-31.10433,-23.30838
-0.36330,1.75029,-0.11266,0.02103,-0.00445,-0.04770,1.92600,-3.68319,1.19313,-0.36114,4.15652,-5.62315,0.38192,-0.32247,-0.79936,0.33342,-9.11933,-32.29105,-21.59584
-0.38281,1.73805,-0.11460,0.01666,-0.00220,-0.04212,1.72570,-4.24763,0.90412,0.83758,4.13019,-5.74970,0.41788,-0.33002,-0.78564,0.31502,-5.40252,-30.87740,-20.44466
-0.39629,1.73080,-0.11745,0.01396,-0.00109,-0.03893,1.61594,-4.56530,0.70768,1.25271,4.01778,-5.95869,0.45116,-0.33453,-0.77198,0.29765,-1.05536,-25.52878,-24.33210
-0.41190,1.72327,-0.12301,0.01442,-0.00013,-0.03386,1.43542,-4.89038,0.63051,2.27816,3.74501,-6.01917,0.48526,-0.34099,-0.75417,0.28192,-7.63059,-23.52121,-13.09817
-0.42749,1.71668,-0.13069,0.01383,0.00052,-0.02874,1.25964,-5.16543,0.51166,3.58330,3.34711,-5.91362,0.51822,-0.34865,-0.73472,0.26471,-9.49465,-20.79094,-11.98641
-0.44042,1.71198,-0.13908,0.01237,0.00087,-0.02490,1.13231,-5.34779,0.37515,4.26162,2.65528,-5.90498,0.54925,-0.35593,-0.71482,0.24632,-6.18226,-15.77168,-15.33853
-0.45668,1.70673,-0.15265,0.01268,0.00117,-0.02049,0.99256,-5.58409,0.29517,5.08035,1.30923,-6.59290,0.58145,-0.36395,-0.69122,0.22732,-4.75237,-13.78078,-11.70154
-0.46952,1.70253,-0.16663,0.01688,0.00140,-0.01629,0.87053,-5.82990,0.40203,6.70939,0.42687,-6.96568,0.61517,-0.36945,-0.66351,0.21172,-10.84431,-16.87179,1.88256
-0.48140,1.69829,-0.18305,0.02060,0.00177,-0.01441,0.86870,-6.12206,0.49162,8.96065,0.13209,-7.13136,0.65033,-0.37250,-0.63321,0.19326,-5.73833,-20.81287,3.92425
-0.49187,1.69384,-0.20175,0.02074,0.00241,-0.01765,1.09937,-6.38928,0.42111,11.43911,1.06681,-6.61117,0.68485,-0.37202,-0.60389,0.16701,11.99689,-20.17353,2.61452
-0.50066,1.68982,-0.22275,0.01711,0.00320,-0.02412,1.46697,-6.62068,0.16305,13.82731,3.56878,-4.95764,0.71716,-0.37018,-0.57551,0.13202,27.93259,-16.59239,-3.81452
-0.50717,1.68748,-0.24473,0.00920,0.00393,-0.03148,1.84732,-6.76035,-0.30522,15.26414,6.80679,-2.65633,0.74379,-0.37039,-0.54910,0.08991,42.69784,-10.37352,-15.49636
-0.51090,1.68761,-0.26771,0.00330,0.00335,-0.02552,1.61883,-6.80763,-0.68513,16.72422,9.00811,-0.01595,0.76449,-0.38049,-0.51714,0.05789,13.85314,-0.02127,-29.67780
-0.51204,1.68985,-0.29047,-0.00484,0.00044,-0.00620,0.77933,-6.73689,-1.09188,18.05546,10.29238,4.83533,0.77825,-0.40422,-0.47898,0.03890,-38.35246,6.74049,-45.57747
-0.51007,1.69386,-0.31026,-0.01753,-0.00246,0.00962,0.03845,-6.49970,-1.59547,19.15937,10.38240,8.56218,0.78467,-0.43269,-0.44340,0.02185,-43.36359,18.89832,-60.96822
-0.50345,1.70438,-0.34017,-0.04650,-0.00369,0.01376,-0.33308,-5.83165,-2.68806,19.49639,10.46810,12.63853,0.77483,-0.47084,-0.42181,-0.00447,3.18906,36.44613,-63.86927
-0.49538,1.71673,-0.36066,-0.07129,-0.00169,0.00993,-0.38353,-5.19821,-3.63757,19.98651,10.02549,13.69794,0.76130,-0.50572,-0.40425,-0.03542,31.49308,39.09267,-63.43793
-0.48666,1.72996,-0.37582,-0.09383,0.00217,0.00967,-0.57363,-4.64020,-4.52279,20.67258,9.28153,15.14760,0.74203,-0.54526,-0.38475,-0.06366,21.91778,42.03866,-70.64027
-0.47132,1.75196,-0.39331,-0.12717,0.01316,0.00978,-0.85112,-3.85759,-5.87425,22.43507,7.42938,16.70360,0.70427,-0.59919,-0.36938,-0.09231,20.65504,44.07125,-84.48429
-0.45405,1.77510,-0.40631,-0.15640,0.03082,0.00496,-0.85380,-3.18323,-7.14612,24.85905,4.46551,18.58247,0.65814,-0.65194,-0.35505,-0.12554,28.60771,39.61202,-91.04107
-0.43230,1.80160,-0.41604,-0.18171,0.05761,-0.00824,-0.43828,-2.58772,-8.42478,27.77664,0.12680,19.15790,0.60050,-0.70138,-0.34508,-0.16847,58.48351,18.13441,-84.43816
-0.41147,1.83091,-0.41875,-0.20065,0.09333,-0.02074,0.04341,-2.06082,-9.69544,30.78466,-6.27205,20.82874,0.53080,-0.74851,-0.33482,-0.21419,57.51329,12.37414,-85.27203
-0.38710,1.86202,-0.41497,-0.20889,0.13876,-0.03844,0.85370,-1.73786,-10.91233,32.13124,-14.18914,21.48238,0.44901,-0.78722,-0.32579,-0.26933,69.78867,-11.55873,-80.27636
-0.35949,1.88869,-0.40809,-0.20597,0.18438,-0.04997,1.40583,-1.67720,-11.98302,31.56340,-22.94708,21.19142,0.35995,-0.81901,-0.30720,-0.32448,59.92165,-30.66314,-82.45563
-0.31972,1.91552,-0.39533,-0.18486,0.23613,-0.05276,2.08899,-1.23763,-12.85908,30.18766,-36.39318,22.78804,0.25947,-0.84071,-0.29707,-0.37100,58.43955,-4.55998,-54.24501
-0.26359,1.93833,-0.37439,-0.14455,0.30101,-0.04350,2.87448,-0.65669,-14.09697,21.92914,-52.28882,21.27203,0.13530,-0.85387,-0.28446,-0.41434,61.87487,-5.56961,-74.73882
0.18215,1.88987,-0.21607,5.82847,-0.83206,2.10223,3.70100,-0.03627,-14.73288,10.25309,-64.83195,19.51706,0.02197,-0.85097,-0.27891,-0.44449,71.01548,-4.09313,-52.78067
0.41333,1.84588,-0.12816,5.87845,-1.66764,2.31250,4.60839,0.42877,-15.08696,-3.04460,-73.93019,15.17497,-0.09949,-0.83344,-0.27359,-0.46971,74.09474,-31.32393,-33.58971
0.64899,1.77636,-0.03349,5.71091,-2.74072,2.49266,5.90533,0.96271,-15.05677,-21.23676,-79.04835,9.70929,-0.22092,-0.79848,-0.28296,-0.48328,88.40732,-48.08447,-10.64978
0.79900,1.67305,0.03832,5.18975,-4.00633,2.57269,7.75567,1.30071,-14.55343,-44.02216,-78.33357,-1.29322,-0.33896,-0.74167,-0.31064,-0.48840,79.64884,-76.93418,0.47287
0.86733,1.55859,0.08103,4.44496,-5.05330,2.46777,9.72480,1.66896,-13.75205,-62.14049,-69.94361,-16.02976,-0.44861,-0.67184,-0.35047,-0.47386,93.82005,-109.77340,9.17529
0.89683,1.44399,0.10540,3.63000,-5.80126,2.21157,11.54151,2.14946,-12.68890,-72.76713,-53.84074,-28.09662,-0.54788,-0.59331,-0.39598,-0.43705,120.82410,-122.77770,17.30273
0.87907,1.31815,0.10379,2.29836,-6.55525,1.60579,14.68245,2.17962,-11.33049,-76.69904,-27.85471,-43.77769,-0.63968,-0.47832,-0.47159,-0.37366,105.84380,-146.29360,-24.90093
0.86275,1.21539,0.09817,1.41745,-6.74798,1.10923,17.07334,2.62967,-9.94664,-71.19360,-2.15291,-39.12477,-0.71467,-0.36184,-0.52908,-0.27997,195.70960,-133.34350,-3.78540
0.83116,1.13017,0.08612,0.51188,-6.59370,0.63124,16.88599,1.28862,-8.17090,-58.07372,21.07676,-23.07902,-0.73391,-0.26887,-0.57869,-0.23284,8.60410,-164.65950,-17.91954
0.79728,1.07443,0.07986,-0.20190,-6.18980,0.37398,13.68314,-0.24965,-6.95593,-45.67185,29.42535,-8.16415,-0.72893,-0.22710,-0.59668,-0.24709,-228.54520,-91.98899,8.32820
0.76482,1.01506,0.08371,-0.69857,-5.73701,0.35103,7.58948,-1.12658,-6.69433,-27.67713,29.90211,6.72493,-0.71460,-0.24288,-0.56429,-0.33455,-370.05290,93.22255,-16.83429
0.73818,0.95388,0.09209,-0.97462,-5.43040,0.40548,3.25462,-0.94394,-6.85147,-28.75204,33.24212,3.80778,-0.70926,-0.25452,-0.51209,-0.41223,-467.09110,186.24080,13.52983
0.69870,0.90720,0.10406,-1.39015,-4.95941,0.51063,-1.69716,-0.45439,-6.71341,-24.50842,29.14167,5.68156,-0.67894,-0.29862,-0.43288,-0.51232,-284.20500,162.00250,-1.30729
0.65984,0.85965,0.11492,-1.70689,-4.59707,0.57777,-4.25513,-0.16611,-6.75355,-20.63920,27.61445,1.17252,-0.65291,-0.31082,-0.36645,-0.58550,-196.30620,122.46520,-29.39133
0.61684,0.81812,0.12215,-2.02192,-4.21430,0.56675,-4.96536,-0.43021,-6.56175,-17.91577,24.95355,-5.55262,-0.63156,-0.30009,-0.32851,-0.63495,-61.25262,15.22566,11.13714
0.57487,0.77753,0.12353,-2.24379,-3.89728,0.45569,-4.43902,-0.80503,-6.17357,-12.56854,23.33118,-12.15470,-0.62247,-0.27679,-0.31014,-0.66312,7.77050,-23.85824,24.55561
0.53520,0.73780,0.12024,-2.37228,-3.64682,0.29458,-3.36682,-1.02932,-5.43860,-7.91097,20.51399,-15.71906,-0.62285,-0.25520,-0.30612,-0.67322,58.92589,-36.82790,62.58256
0.49629,0.70409,0.10880,-2.45762,-3.35778,0.03590,-1.91647,-0.92557,-4.41300,-3.57991,17.10593,-16.52583,-0.63521,-0.24061,-0.31188,-0.66433,89.25349,-16.90055,73.91625
0.45888,0.67063,0.09622,-2.49095,-3.12924,-0.18763,-0.96785,-0.55406,-3.66911,-1.26724,15.54641,-14.70321,-0.64830,-0.23229,-0.30825,-0.65630,76.58375,12.44349,56.50031
0.42190,0.63921,0.08280,-2.51048,-2.92257,-0.37192,-0.24648,-0.28896,-2.95774,-1.41726,14.20216,-11.59279,-0.65999,-0.22673,-0.30719,-0.64702,58.68863,10.00006,53.85437
0.38435,0.61151,0.06822,-2.54163,-2.70019,-0.53321,0.04081,0.31084,-2.80073,-3.34676,13.67161,-7.93484,-0.67312,-0.22349,-0.28938,-0.64282,31.96227,25.43811,22.45833
0.34577,0.58559,0.05493,-2.57596,-2.50214,-0.63691,-0.14183,1.19033,-3.25555,-2.31734,14.55878,-6.59553,-0.68561,-0.22026,-0.24878,-0.64772,1.23731,59.54539,-27.70179
0.30766,0.56166,0.04143,-2.59722,-2.32086,-0.71810,-0.34014,2.10700,-3.73582,-1.12217,15.45144,-6.97855,-0.69824,-0.21905,-0.19918,-0.65177,-5.85375,72.23363,-38.53880
0.27059,0.54358,0.02492,-2.59700,-2.08506,-0.82978,-0.33292,3.52570,-4.40099,1.32867,14.49533,-7.37424,-0.71771,-0.22285,-0.12943,-0.64689,8.28513,88.83179,-46.19923
0.23477,0.52687,0.00789,-2.57267,-1.88186,-0.92253,0.04343,4.47911,-4.68773,3.61014,14.65906,-6.52707,-0.73839,-0.22511,-0.06854,-0.63198,33.52615,70.01579,-37.83266
0.20029,0.51175,-0.00854,-2.53612,-1.70310,-0.98286,0.51212,4.85308,-4.58719,4.28077,14.70760,-4.25246,-0.75683,-0.22642,-0.02190,-0.61275,46.54729,33.90318,-12.04460
0.16762,0.50115,-0.02402,-2.48249,-1.49224,-1.01138,1.06897,4.73813,-4.27751,5.11537,15.14545,-0.53660,-0.77503,-0.22466,0.01049,-0.59055,43.76395,-6.01001,4.33666
0.13615,0.49456,-0.03673,-2.41699,-1.26832,-0.98573,1.50639,3.81132,-3.75703,5.73788,16.28052,3.35731,-0.78984,-0.21441,0.01892,-0.57430,27.84883,-63.54144,21.40129
0.10606,0.48974,-0.04704,-2.34816,-1.06935,-0.92945,1.56957,2.81498,-3.42636,6.40632,16.33240,6.38902,-0.79959,-0.19845,0.02309,-0.56634,5.60791,-91.14177,24.33908
0.08088,0.49111,-0.05395,-2.21513,-0.81464,-0.82964,1.27528,2.00341,-3.21836,10.06676,15.35319,7.04157,-0.80329,-0.18130,0.02904,-0.56658,-28.41192,-56.15171,11.33250
0.05966,0.49295,-0.06032,-2.04461,-0.61026,-0.74144,0.93666,1.82036,-2.95316,14.16021,13.53862,6.47546,-0.80471,-0.17474,0.04452,-0.56562,-25.37199,-14.99444,17.30053
0.04203,0.49468,-0.06655,-1.85977,-0.45576,-0.67393,0.71659,1.83168,-2.53913,16.85014,11.61547,5.51881,-0.80555,-0.17586,0.05947,-0.56270,-18.09176,-2.22506,28.41072
0.03255,0.49866,-0.07093,-1.58581,-0.29925,-0.59134,0.49067,1.96588,-1.90517,17.69351,7.35550,5.23935,-0.80348,-0.18696,0.07216,-0.56058,-11.13732,10.98030,41.90464
0.02425,0.50078,-0.07454,-1.35126,-0.20802,-0.51383,0.38318,1.86326,-1.46498,16.24453,6.33973,5.43635,-0.80300,-0.19320,0.08051,-0.55801,-2.22130,-3.03116,38.72855
0.01499,0.50218,-0.07823,-1.19375,-0.14783,-0.45812,0.25903,1.65193,-1.26125,15.74575,5.70508,5.47987,-0.80254,-0.19371,0.08808,-0.55736,-8.85846,-13.58358,23.55241
0.01691,0.50621,-0.07717,-0.88912,-0.05688,-0.33583,-0.08607,1.01460,-0.91029,15.30177,3.72346,6.87646,-0.79781,-0.19038,0.08207,-0.56615,-17.22395,-34.31101,19.50876
0.01729,0.50884,-0.07684,-0.66862,-0.00428,-0.24986,-0.49546,0.86368,-0.72613,16.42301,3.54567,5.84438,-0.79055,-0.19031,0.08706,-0.57553,-28.11529,-14.67067,14.10366
0.02185,0.51184,-0.07663,-0.42978,0.04312,-0.18675,-0.81155,0.79052,-0.36864,18.02228,2.85848,3.29172,-0.78178,-0.19589,0.08963,-0.58516,-25.06316,-2.21059,21.29599
0.03078,0.51485,-0.07732,-0.17564,0.08196,-0.15450,-0.97019,0.67894,0.19811,18.60192,2.27224,0.98253,-0.77271,-0.20749,0.08536,-0.59379,-14.44919,-5.84541,39.14702
0.04336,0.51766,-0.07905,0.07982,0.10793,-0.14732,-0.86936,0.49815,0.86516,17.96601,1.56690,-0.03848,-0.76609,-0.22331,0.07352,-0.59819,7.96000,-8.46308,47.79862
0.05863,0.52060,-0.08149,0.32011,0.13096,-0.15395,-0.73889,0.37680,1.43248,16.57476,2.13655,-0.95308,-0.75960,-0.24070,0.06052,-0.60117,11.12566,-8.09426,43.28643
0.07643,0.52488,-0.08440,0.54255,0.16298,-0.17272,-0.58852,0.36778,1.87403,15.11306,2.47451,-1.55081,-0.75341,-0.25958,0.04891,-0.60216,11.81252,-0.00543,33.15562
0.09602,0.52974,-0.08785,0.74327,0.19725,-0.19561,-0.47597,0.51012,2.16261,13.35359,2.78964,-1.60173,-0.74684,-0.27980,0.04139,-0.60185,8.99143,8.49095,24.04244
0.11724,0.53580,-0.09177,0.92300,0.24230,-0.22149,-0.43861,0.83684,2.31076,12.14808,3.91963,-1.95828,-0.73920,-0.30192,0.04032,-0.60066,2.49515,20.64000,12.03704
0.14036,0.54421,-0.09611,1.08759,0.30519,-0.25332,-0.47453,1.29152,2.42866,10.93177,4.76131,-2.65405,-0.72956,-0.32736,0.04426,-0.59885,-5.76344,30.33592,8.02527
0.16451,0.55395,-0.10142,1.23252,0.37535,-0.29292,-0.51333,1.78334,2.50398,9.39888,5.28020,-3.34814,-0.71897,-0.35474,0.05174,-0.59546,-8.15895,34.92480,5.43126
0.18929,0.56498,-0.10778,1.35335,0.45533,-0.33976,-0.55148,2.23074,2.55353,7.71626,6.15746,-3.86456,-0.70749,-0.38292,0.06089,-0.59087,-7.39185,32.76343,3.40145
0.21562,0.57967,-0.11504,1.46612,0.56314,-0.39795,-0.54603,2.55886,2.67109,5.92506,7.02900,-4.06873,-0.69526,-0.41201,0.06799,-0.58501,-3.06002,23.04360,5.89613
0.26158,0.60337,-0.12864,1.52957,0.65234,-0.44040,-0.54933,2.71470,2.77205,4.18412,7.62221,-3.58989,-0.67004,-0.46307,0.07604,-0.57518,-0.08595,14.32216,8.37746
0.26554,0.61289,-0.13143,1.58666,0.79455,-0.49854,-0.65277,2.89905,2.87906,1.78119,8.25675,-3.21407,-0.66648,-0.46783,0.07915,-0.57504,-6.02542,10.53574,6.75420
0.31138,0.64491,-0.14763,1.60121,0.91311,-0.54099,-0.76364,2.97808,2.97148,-0.13873,8.33770,-3.23003,-0.63424,-0.51932,0.08873,-0.56583,-7.88187,5.16163,7.14883
0.33361,0.66592,-0.15713,1.59359,1.01091,-0.57488,-0.81060,2.96233,3.04666,-1.66666,7.87571,-3.00674,-0.61626,-0.54463,0.09176,-0.56141,-5.36711,1.02437,8.16856
0.35350,0.68968,-0.16746,1.55375,1.13324,-0.61364,-0.83831,2.84173,3.11831,-3.66149,7.45917,-2.21926,-0.59819,-0.56771,0.09177,-0.55808,1.76521,-6.59996,4.80827
0.35114,0.69573,-0.16841,1.50389,1.22019,-0.63620,-0.89603,2.72780,3.12293,-5.15051,7.00450,-1.75526,-0.59762,-0.56591,0.09038,-0.56074,-1.74131,-9.32978,3.30784
0.36920,0.71759,-0.17787,1.45099,1.28654,-0.65058,-0.95065,2.58928,3.12147,-5.86695,6.19613,-1.47767,-0.57950,-0.58632,0.09125,-0.55865,-3.89053,-11.68761,1.16401
0.38310,0.74229,-0.18769,1.33930,1.38529,-0.66884,-0.91867,2.24749,3.10067,-6.80238,4.85773,-0.99582,-0.56337,-0.60242,0.08700,-0.55869,4.11820,-17.74166,-0.62692
0.39649,0.76633,-0.19705,1.24184,1.44894,-0.67628,-0.80629,1.93092,3.10592,-7.46881,4.06517,-0.41816,-0.54820,-0.61801,0.08022,-0.55777,11.61009,-20.40803,0.07251
0.40868,0.79000,-0.20630,1.15140,1.49350,-0.67794,-0.71949,1.66872,3.10503,-7.96437,3.27295,0.01212,-0.53289,-0.63276,0.07300,-0.55705,12.30856,-20.37905,-0.02405
0.41735,0.81389,-0.21551,1.02310,1.53645,-0.67743,-0.56953,1.34371,3.08508,-8.29414,2.07884,-0.15055,-0.51931,-0.64512,0.06257,-0.55698,10.97943,-19.16351,-0.64115
0.42594,0.83709,-0.22476,0.92486,1.55778,-0.67722,-0.37753,1.13408,3.07211,-8.30452,1.41106,0.02105,-0.50663,-0.65796,0.05138,-0.55477,18.35388,-15.82594,-2.43846
0.43201,0.86023,-0.23395,0.80963,1.57318,-0.67582,-0.20378,0.95763,3.05995,-8.34957,0.72301,0.34624,-0.49430,-0.67018,0.03931,-0.55225,17.19693,-11.37152,-2.19329
