posX, posY, posZ, velX, velY, velZ, angVelX, angVelY, angVelZ, accX, accY, accZ, rotX, rotY, rotZ, rotW, angAccX, angAccY, angAccZ
0.27736,1.17516,-0.42835,-0.54339,0.08275,-0.52748,-0.73291,0.79027,0.17861,2.14166,-4.76605,1.66889,-0.16114,-0.80799,-0.00977,-0.56665,27.00739,4.38384,-18.98370
0.27224,1.17217,-0.43432,-0.51423,0.02443,-0.50126,-0.23774,0.89336,-0.02792,1.78083,-3.52231,1.97086,-0.17052,-0.81181,-0.01289,-0.55832,34.25494,8.12994,-17.98341
0.26721,1.16930,-0.43995,-0.48999,-0.01813,-0.47556,0.18290,0.97012,-0.18560,1.48609,-2.35786,1.89031,-0.18062,-0.81544,-0.01714,-0.54967,31.75957,5.65891,-14.05693
0.26251,1.16646,-0.44503,-0.46514,-0.05154,-0.44506,0.51379,0.99502,-0.31844,1.12543,-1.04779,1.86529,-0.19092,-0.81834,-0.02158,-0.54167,19.68275,1.96718,-9.06349
0.25739,1.16463,-0.45040,-0.45238,-0.06072,-0.42655,0.61808,0.98366,-0.36368,0.74696,-0.20694,1.56415,-0.19744,-0.82106,-0.02365,-0.53508,10.10132,-0.78671,-5.34229
0.25215,1.16327,-0.45558,-0.44450,-0.05922,-0.40957,0.70227,0.97907,-0.36419,0.53795,0.86284,1.41687,-0.20339,-0.82391,-0.02639,-0.52830,7.34172,-0.83134,-4.44509
0.24645,1.16294,-0.46015,-0.44396,-0.04314,-0.38700,0.74139,0.85545,-0.21081,-0.04330,1.54301,1.47966,-0.20527,-0.82580,-0.03175,-0.52431,5.05928,-8.68244,9.84206
0.24123,1.16327,-0.46501,-0.43770,-0.01611,-0.37313,0.71732,0.83841,0.02370,0.86003,2.28540,0.75148,-0.20356,-0.82945,-0.03714,-0.51884,-1.49286,-5.31373,16.17377
0.23604,1.16395,-0.46998,-0.42949,0.00623,-0.36609,0.71487,0.86809,0.18522,0.56128,2.14180,0.69342,-0.20232,-0.83366,-0.04247,-0.51212,-0.24089,2.52346,15.96579
0.23120,1.16523,-0.47479,-0.41899,0.03491,-0.35709,0.74155,0.88713,0.34483,0.60891,1.51085,0.48328,-0.20050,-0.83795,-0.04915,-0.50519,2.57729,0.87180,11.00909
0.22683,1.16601,-0.47996,-0.40526,0.05197,-0.35442,0.77787,0.92006,0.39793,0.93825,0.99027,-0.01095,-0.20066,-0.84198,-0.05498,-0.49778,2.48593,0.70332,5.19731
0.22262,1.16672,-0.48530,-0.39067,0.06155,-0.35605,0.78287,0.97192,0.38274,1.12106,0.74765,-0.04849,-0.20187,-0.84606,-0.05922,-0.48982,2.03690,4.75505,0.42526
0.21882,1.16780,-0.49065,-0.37078,0.07311,-0.35821,0.76121,1.02589,0.32892,1.06296,0.78961,-0.05106,-0.20377,-0.85009,-0.06209,-0.48164,-1.14573,3.97753,-3.19222
0.21474,1.16905,-0.49600,-0.35840,0.08297,-0.36064,0.70269,1.05028,0.30897,0.92451,1.03735,-0.09193,-0.20449,-0.85398,-0.06433,-0.47410,-3.86032,2.49028,-2.43052
0.21098,1.17091,-0.50146,-0.34412,0.10122,-0.36386,0.54410,1.04858,0.32313,0.73084,1.33365,-0.06376,-0.20278,-0.85792,-0.06425,-0.46768,-9.01067,0.29279,1.08051
0.20676,1.17314,-0.50668,-0.33625,0.11692,-0.36507,0.41840,1.02641,0.35441,0.59837,1.32624,-0.07396,-0.20042,-0.86165,-0.06448,-0.46178,-11.05955,-1.89090,3.02576
0.20277,1.17569,-0.51190,-0.32797,0.13537,-0.36504,0.32175,0.99911,0.38367,0.49852,1.31748,0.04006,-0.19786,-0.86521,-0.06477,-0.45616,-7.66982,-2.32883,2.64395
0.19884,1.17861,-0.51702,-0.32008,0.15586,-0.36341,0.31849,0.97447,0.39050,0.39474,1.22514,-0.06352,-0.19667,-0.86843,-0.06664,-0.45023,-2.33484,-2.54687,1.25115
0.19487,1.18179,-0.52205,-0.31422,0.17589,-0.36101,0.48338,1.02724,0.35679,0.30259,1.60089,0.03287,-0.19893,-0.87199,-0.07179,-0.44148,9.02230,2.59290,-2.67057
0.19084,1.18553,-0.52697,-0.31131,0.20126,-0.35700,0.71187,1.09993,0.34225,0.14110,2.06083,0.50818,-0.20241,-0.87570,-0.07958,-0.43110,16.83202,6.59216,-2.92847
0.18669,1.18963,-0.53173,-0.30981,0.22500,-0.35201,0.81022,1.10740,0.35477,0.13800,2.08860,0.71137,-0.20410,-0.87896,-0.08608,-0.42233,11.26744,2.26100,0.18780
0.18267,1.19451,-0.53605,-0.30593,0.25554,-0.34129,0.81588,1.02624,0.39718,0.29992,1.82042,0.94945,-0.20383,-0.88141,-0.09178,-0.41611,2.15763,-3.86286,2.04339
0.17879,1.19915,-0.54032,-0.30059,0.27475,-0.33246,0.72957,0.92321,0.42200,0.55919,1.47415,0.80667,-0.20239,-0.88349,-0.09519,-0.41161,-4.63681,-8.45075,2.67548
0.17520,1.20399,-0.54436,-0.29140,0.29206,-0.32236,0.66399,0.80888,0.42197,0.64969,0.96451,0.58024,-0.20133,-0.88496,-0.09852,-0.40817,-6.24792,-9.16119,0.73262
0.17180,1.20875,-0.54831,-0.28117,0.30437,-0.31279,0.69360,0.75577,0.36780,0.71968,0.76480,0.57853,-0.20284,-0.88629,-0.10306,-0.40340,0.04507,-4.95758,-3.26059
0.16852,1.21357,-0.55205,-0.27144,0.31529,-0.30185,0.84735,0.72022,0.30035,0.58929,0.73552,0.63556,-0.20673,-0.88705,-0.11074,-0.39766,8.07239,-2.17299,-5.15679
0.16520,1.21839,-0.55575,-0.26432,0.32291,-0.29315,1.04942,0.73102,0.22644,0.65073,0.47193,0.63342,-0.21241,-0.88772,-0.12027,-0.39034,15.47275,-0.03988,-5.98372
0.16241,1.22323,-0.55924,-0.25002,0.32935,-0.28285,1.25022,0.72464,0.07728,1.02197,0.41615,0.84468,-0.22115,-0.88730,-0.12998,-0.38326,13.78703,1.85238,-10.16537
0.15952,1.22801,-0.56282,-0.24080,0.33316,-0.27629,1.28888,0.66528,0.00747,0.88267,0.42775,0.91127,-0.22693,-0.88682,-0.13737,-0.37839,7.86929,-2.13377,-9.31942
0.15692,1.23302,-0.56610,-0.22924,0.34008,-0.26639,1.23711,0.51111,-0.06846,0.50785,0.47691,0.43713,-0.23194,-0.88513,-0.14296,-0.37724,-2.98833,-9.16176,-5.35824
0.15393,1.23801,-0.56969,-0.22600,0.34518,-0.26322,1.17552,0.40590,-0.06749,0.17678,0.46542,0.10786,-0.23497,-0.88413,-0.14860,-0.37553,-5.04968,-8.04069,-1.99769
0.15071,1.24302,-0.57355,-0.22708,0.34954,-0.26505,1.12117,0.35073,-0.06259,-0.19893,0.19485,-0.39102,-0.23785,-0.88346,-0.15393,-0.37314,-3.63343,-5.51519,0.48859
0.14722,1.24804,-0.57783,-0.23223,0.35285,-0.27342,1.10524,0.35693,-0.05106,-0.49977,0.21017,-0.79985,-0.24101,-0.88327,-0.15965,-0.36914,-2.90891,0.03410,0.27070
0.14336,1.25308,-0.58231,-0.24175,0.35575,-0.28335,1.19916,0.45963,-0.05445,-0.73831,0.33280,-0.87119,-0.24613,-0.88350,-0.16747,-0.36166,5.28651,5.24624,1.03137
0.13926,1.25833,-0.58695,-0.25298,0.36143,-0.29364,1.29156,0.57942,-0.03020,-0.87404,0.38546,-0.59906,-0.25094,-0.88415,-0.17585,-0.35269,8.03439,9.24963,1.61074
0.13500,1.26355,-0.59159,-0.26460,0.36495,-0.30199,1.30985,0.66212,-0.01229,-0.75563,0.04585,-0.27680,-0.25509,-0.88484,-0.18285,-0.34432,3.88303,7.14595,2.64900
0.13076,1.26837,-0.59615,-0.27317,0.36172,-0.30644,1.16258,0.65151,-0.03208,-0.40217,-0.45993,0.13317,-0.25802,-0.88533,-0.18568,-0.33934,-8.04973,1.13871,-0.16354
0.12673,1.27302,-0.60038,-0.27643,0.35625,-0.30503,1.05290,0.60679,-0.06056,-0.28689,-0.60970,0.26482,-0.26115,-0.88524,-0.18861,-0.33551,-11.72118,-3.66199,-2.20965
0.12252,1.27733,-0.60425,-0.28194,0.34665,-0.29802,0.96681,0.59873,-0.12093,-0.41353,-0.41683,0.30311,-0.26539,-0.88511,-0.19079,-0.33129,-6.03231,-1.14099,-3.28846
0.11814,1.28176,-0.60801,-0.28906,0.34116,-0.29108,1.00521,0.65817,-0.14948,-0.50051,-0.33384,0.46770,-0.27060,-0.88509,-0.19559,-0.32424,1.73435,4.02525,-2.35864
0.11378,1.28627,-0.61177,-0.29432,0.33791,-0.28596,1.03900,0.70111,-0.16251,-0.54779,-0.33065,0.55625,-0.27562,-0.88500,-0.20066,-0.31708,4.20551,4.46475,-0.97679
0.10906,1.29066,-0.61527,-0.30372,0.33355,-0.27805,1.02167,0.74168,-0.16460,-0.56811,-0.24885,0.55408,-0.28004,-0.88525,-0.20453,-0.30996,-0.50879,3.28451,-0.78001
0.10422,1.29506,-0.61873,-0.31284,0.33051,-0.27110,1.01348,0.80732,-0.13413,-0.51647,-0.04796,0.32453,-0.28376,-0.88596,-0.20852,-0.30178,-1.68759,2.92778,1.71948
0.09934,1.29952,-0.62207,-0.32116,0.32885,-0.26361,0.98947,0.85844,-0.06460,-0.54949,-0.18855,0.84887,-0.28614,-0.88707,-0.21253,-0.29335,1.05067,5.23472,3.96947
0.09444,1.30391,-0.62519,-0.32775,0.32584,-0.25443,0.88884,0.82347,0.01103,-0.42917,-0.36176,1.01018,-0.28662,-0.88821,-0.21509,-0.28752,-6.91169,-1.03951,6.30387
0.08949,1.30794,-0.62773,-0.33336,0.31773,-0.23786,0.74556,0.72969,0.10686,-0.22401,-0.74755,1.14204,-0.28499,-0.88950,-0.21675,-0.28387,-9.20624,-6.14897,6.55592
0.08478,1.31161,-0.63002,-0.33407,0.30533,-0.22092,0.68677,0.64944,0.14824,-0.02434,-1.04340,1.07100,-0.28472,-0.89007,-0.21960,-0.28015,-5.64042,-6.60427,3.82747
0.08021,1.31486,-0.63218,-0.33262,0.28896,-0.20592,0.70238,0.63351,0.16150,0.21579,-1.23935,0.83747,-0.28579,-0.89043,-0.22350,-0.27478,0.16904,-2.12973,0.97335
0.07594,1.31769,-0.63436,-0.32646,0.26899,-0.19452,0.73266,0.68335,0.17522,0.43271,-1.36071,0.57022,-0.28733,-0.89115,-0.22740,-0.26756,2.50377,2.32459,0.65782
0.07181,1.32017,-0.63676,-0.31919,0.24766,-0.18922,0.67018,0.72594,0.19760,0.68857,-1.71827,0.39166,-0.28786,-0.89253,-0.22915,-0.26081,-2.19480,3.41544,1.97626
0.06800,1.32201,-0.63918,-0.30828,0.22157,-0.18524,0.52202,0.74408,0.20969,0.92153,-2.04947,0.42224,-0.28760,-0.89441,-0.22833,-0.25532,-8.92327,1.26716,1.81143
0.06447,1.32352,-0.64145,-0.29531,0.19632,-0.17969,0.37710,0.73023,0.20637,1.28391,-2.22803,0.66738,-0.28721,-0.89619,-0.22671,-0.25092,-12.09146,0.05899,1.03635
0.06181,1.32399,-0.64323,-0.27077,0.15945,-0.16739,0.17136,0.64632,0.16715,1.70882,-2.38176,0.86494,-0.28657,-0.89774,-0.22286,-0.24955,-13.37044,-4.91082,-1.77654
0.05949,1.32425,-0.64489,-0.24607,0.12761,-0.15573,0.02548,0.58237,0.11064,1.74255,-2.03766,0.72076,-0.28675,-0.89895,-0.21917,-0.24824,-11.48460,-5.83480,-3.39993
0.05717,1.32477,-0.64635,-0.22767,0.10775,-0.14351,0.02015,0.58320,0.07723,1.31380,-1.18981,1.01872,-0.28784,-0.89990,-0.21789,-0.24467,-5.85545,-1.74099,-3.59690
0.05492,1.32546,-0.64707,-0.21243,0.09578,-0.12221,0.11374,0.56134,0.08293,1.07103,-0.45494,1.83033,-0.28873,-0.90026,-0.21975,-0.24057,6.24847,-0.04432,-0.72746
0.05272,1.32642,-0.64709,-0.19940,0.09189,-0.09348,0.18612,0.45379,0.12671,0.73732,0.06263,1.73272,-0.28792,-0.90030,-0.22270,-0.23869,4.40314,-6.97681,2.51230
0.05033,1.32775,-0.64742,-0.19274,0.09389,-0.07717,0.24085,0.41449,0.14819,0.61016,0.36081,1.48256,-0.28771,-0.90052,-0.22520,-0.23573,5.83396,-5.65915,2.34168
0.04811,1.32955,-0.64739,-0.18506,0.10303,-0.05911,0.16394,0.31428,0.21909,0.45269,0.76353,1.07547,-0.28464,-0.90151,-0.22554,-0.23533,-1.86459,-5.07762,3.78723
0.04578,1.33200,-0.64772,-0.18077,0.12082,-0.05064,-0.07155,0.17003,0.29873,0.14103,1.49961,0.23068,-0.27917,-0.90342,-0.22181,-0.23811,-14.27056,-9.85294,5.64781
0.04333,1.33474,-0.64835,-0.17950,0.13850,-0.04909,-0.16519,0.09980,0.31214,-0.12434,2.09137,-0.17177,-0.27583,-0.90464,-0.21962,-0.23939,-14.90608,-8.21201,4.67055
0.04029,1.33895,-0.64884,-0.18839,0.17578,-0.04528,-0.03660,0.12446,0.10036,-1.28568,3.05963,0.06679,-0.28060,-0.90320,-0.22068,-0.23832,6.62764,-0.18512,-9.28608
0.03674,1.34504,-0.64920,-0.20350,0.23648,-0.04024,0.18433,0.23322,-0.05179,-0.59392,6.09351,0.64972,-0.28678,-0.90161,-0.22435,-0.23352,14.13507,10.65818,-14.34194
0.03221,1.35535,-0.64914,-0.23184,0.35406,-0.02933,0.54627,0.26221,0.23141,-2.07783,8.80916,0.62420,-0.28312,-0.90152,-0.23665,-0.22607,24.91830,-1.21001,10.27515
0.02628,1.36740,-0.64911,-0.27748,0.47404,-0.02106,0.72201,0.31178,0.50381,-4.15958,8.75324,0.61769,-0.27711,-0.90278,-0.24607,-0.21828,12.01072,3.38682,22.94156
0.01898,1.38119,-0.64894,-0.33489,0.59523,-0.01231,0.95565,0.38841,0.74929,-4.11240,8.44981,0.62082,-0.27096,-0.90367,-0.25806,-0.20824,17.61768,5.33059,19.01160
0.01115,1.39625,-0.64868,-0.38779,0.70887,-0.00448,1.12844,0.46472,0.87832,-3.75750,7.82157,0.60597,-0.26639,-0.90403,-0.26926,-0.19815,12.97588,4.75978,11.95382
0.00228,1.41330,-0.64815,-0.44649,0.83176,0.00617,1.36286,0.61572,0.93310,-3.89579,7.68258,0.62974,-0.26423,-0.90355,-0.28191,-0.18521,12.13685,7.90049,4.08752
-0.00668,1.43006,-0.64746,-0.49282,0.92039,0.01702,1.59845,0.79837,0.95653,-3.98317,7.26139,0.97173,-0.26338,-0.90250,-0.29534,-0.17000,18.36357,14.88173,2.75186
-0.01677,1.44866,-0.64621,-0.54658,1.01742,0.03454,1.84980,1.03328,0.98544,-3.74085,6.80529,1.67751,-0.26331,-0.90096,-0.30992,-0.15131,17.68366,18.05541,2.83739
-0.02787,1.46879,-0.64378,-0.60531,1.11912,0.06837,2.10684,1.22685,1.02158,-3.52690,5.98072,2.73128,-0.26313,-0.89844,-0.32597,-0.13162,16.63526,13.84343,3.43018
-0.03874,1.48837,-0.64083,-0.64657,1.18740,0.10276,2.23110,1.28500,1.04316,-3.36920,5.44438,3.32488,-0.26189,-0.89563,-0.34066,-0.11493,12.23816,8.61224,2.05442
-0.05055,1.50926,-0.63650,-0.69301,1.26041,0.15143,2.37426,1.35046,1.05955,-3.30898,5.05306,3.72250,-0.26090,-0.89193,-0.35627,-0.09726,8.48070,4.17449,0.85008
-0.06324,1.53104,-0.63067,-0.74347,1.33325,0.21540,2.56998,1.46234,1.07422,-3.13858,4.23715,4.20963,-0.26055,-0.88697,-0.37341,-0.07723,12.01233,6.89099,0.96256
-0.07578,1.55229,-0.62457,-0.77961,1.37976,0.26847,2.73504,1.58957,1.09465,-2.89987,3.62504,4.66613,-0.26021,-0.88135,-0.39038,-0.05582,12.57627,10.18988,1.76437
-0.08893,1.57414,-0.61670,-0.81696,1.42512,0.33872,2.94075,1.74156,1.10900,-2.52961,2.95974,5.46057,-0.26048,-0.87412,-0.40869,-0.03221,13.49869,11.44994,1.57476
-0.10242,1.59593,-0.60746,-0.85022,1.46093,0.41745,3.11437,1.83312,1.13553,-2.02399,2.26681,5.98815,-0.25988,-0.86588,-0.42735,-0.00889,13.90530,8.99228,1.70686
-0.11571,1.61758,-0.59745,-0.87255,1.48530,0.48937,3.22297,1.90287,1.15453,-1.71054,1.81335,6.30379,-0.25899,-0.85716,-0.44498,0.01416,9.54635,4.98556,1.97472
-0.12975,1.63963,-0.58406,-0.89944,1.51468,0.60946,3.40069,2.01387,1.15052,-1.28664,1.47638,7.30523,-0.25914,-0.84614,-0.46406,0.03927,10.46714,7.95648,-0.47528
-0.14404,1.66136,-0.56975,-0.92193,1.53569,0.73105,3.58394,2.16570,1.17308,-1.41428,1.44234,8.35064,-0.25896,-0.83381,-0.48302,0.06626,8.37114,7.10415,0.96554
-0.15803,1.68299,-0.55510,-0.93661,1.54554,0.81984,3.78429,2.33558,1.23185,-1.33914,0.92288,9.59924,-0.25810,-0.81962,-0.50245,0.09571,16.14018,15.87129,4.56578
-0.17226,1.70444,-0.53463,-0.95819,1.54869,0.98213,4.04444,2.40124,1.41444,-1.01508,-0.45215,11.13882,-0.25250,-0.80344,-0.52419,0.12629,19.25628,6.74067,9.46325
-0.18627,1.72478,-0.51275,-0.97297,1.53323,1.13721,4.19965,2.26545,1.64212,-0.80159,-1.88389,11.72824,-0.24189,-0.78789,-0.54530,0.15286,14.67535,-9.17139,11.82390
-0.20020,1.74450,-0.49059,-0.98092,1.50919,1.25187,4.27504,2.07530,1.81197,-0.66230,-2.92881,11.98218,-0.22964,-0.77226,-0.56536,0.17674,13.00505,-17.31719,10.20109
-0.21439,1.76110,-0.46077,-0.99105,1.43710,1.46371,4.45513,1.65494,2.13788,-0.31975,-5.36247,11.72384,-0.20757,-0.75572,-0.58886,0.19760,15.40842,-25.05958,10.32140
-0.22808,1.77608,-0.43170,-0.99016,1.35155,1.61765,4.56155,1.30949,2.31908,0.38280,-7.10680,10.59653,-0.18676,-0.73837,-0.61071,0.21671,13.08186,-26.80227,6.57645
-0.24130,1.78849,-0.40150,-0.98084,1.24177,1.75243,4.66460,0.97628,2.44692,0.91078,-8.83681,8.86679,-0.16457,-0.71984,-0.63244,0.23402,11.17915,-24.44452,1.70415
-0.25369,1.79815,-0.37070,-0.96168,1.10992,1.86063,4.72382,0.65282,2.52801,1.78579,-10.23058,6.73969,-0.14132,-0.70096,-0.65315,0.24917,9.35693,-23.37044,0.07031
-0.26506,1.80507,-0.34007,-0.92989,0.96256,1.93958,4.78602,0.38047,2.55033,2.55370,-11.18872,4.57241,-0.11806,-0.68074,-0.67345,0.26290,7.63276,-19.89497,-3.93911
-0.27546,1.80919,-0.31008,-0.88817,0.80348,1.98909,4.82210,0.16334,2.51298,3.31765,-11.83328,2.53944,-0.09560,-0.65966,-0.69281,0.27519,5.25917,-13.95436,-5.48560
-0.28455,1.81112,-0.28082,-0.83612,0.64462,2.01285,4.82388,-0.05149,2.38835,3.99572,-11.16714,0.84637,-0.07421,-0.63826,-0.71156,0.28426,2.54581,-12.72300,-11.61006
-0.29255,1.81139,-0.25258,-0.77761,0.49544,2.01366,4.81796,-0.18904,2.28294,4.20407,-10.50297,-0.88644,-0.05337,-0.61606,-0.72913,0.29324,1.58905,-9.02864,-11.51565
-0.30010,1.81112,-0.22556,-0.72471,0.37538,1.99518,4.75411,-0.30972,2.16568,4.66421,-9.92469,-2.30467,-0.03325,-0.59446,-0.74504,0.30071,-1.07297,-5.21228,-9.14653
-0.30541,1.80668,-0.20133,-0.64397,0.21270,1.93407,4.50031,-0.59253,1.83883,4.44166,-8.53270,-4.52839,-0.01532,-0.57782,-0.75924,0.29907,-11.31243,-13.26269,-22.47971
-0.31132,1.80406,-0.17775,-0.59169,0.11729,1.87685,4.34231,-0.58929,1.68940,3.71662,-7.30606,-5.14210,0.00040,-0.55859,-0.77195,0.30342,-14.44417,-4.34712,-20.37646
-0.31624,1.80012,-0.15598,-0.53600,0.02382,1.80337,4.19841,-0.42122,1.68604,3.63804,-5.95803,-5.48254,0.01442,-0.53829,-0.78238,0.31293,-11.23936,9.48055,-0.15108
-0.32078,1.79585,-0.13535,-0.48696,-0.05342,1.72813,4.08736,-0.15079,1.85638,3.11422,-5.06600,-5.15630,0.02830,-0.51640,-0.79037,0.32840,-11.09028,14.72335,12.90163
-0.32531,1.79104,-0.11543,-0.44948,-0.12173,1.65866,4.01476,-0.00175,2.02380,2.41561,-4.82472,-4.89608,0.04402,-0.49405,-0.79749,0.34349,-7.29224,10.49677,17.67369
-0.33030,1.78539,-0.09647,-0.42845,-0.18813,1.58908,3.94197,-0.06841,2.12450,1.10539,-4.88139,-4.98724,0.06305,-0.47320,-0.80397,0.35460,-4.63605,-2.94843,8.21722
-0.33607,1.77868,-0.07858,-0.42544,-0.25682,1.51797,3.91335,-0.32802,2.14976,-0.11731,-4.98620,-5.29622,0.08618,-0.45326,-0.81050,0.36085,-0.90087,-15.53805,-0.04396
-0.34243,1.77161,-0.06149,-0.43286,-0.31435,1.45107,3.90469,-0.62959,2.12808,-0.93269,-4.63979,-5.81837,0.11128,-0.43370,-0.81667,0.36410,1.65171,-22.77782,-7.70320
-0.34979,1.76299,-0.04736,-0.45505,-0.38420,1.35069,3.90946,-1.09021,2.13672,-1.78198,-4.18413,-6.92009,0.14225,-0.41562,-0.82124,0.36414,4.48740,-26.59800,-5.71210
-0.35771,1.75473,-0.03397,-0.48131,-0.43215,1.26145,3.89748,-1.56497,2.08564,-2.35925,-3.95439,-8.08581,0.17505,-0.39885,-0.82466,0.36085,4.37581,-33.15432,-9.75639
-0.36670,1.74534,-0.02394,-0.51846,-0.48673,1.13902,3.92933,-2.14959,2.09388,-3.03217,-3.91951,-9.47712,0.21429,-0.38267,-0.82573,0.35469,6.96600,-40.28386,-14.58184
-0.37618,1.73473,-0.01814,-0.55522,-0.54956,0.97308,4.07403,-2.73897,2.27027,-1.65017,-3.64382,-11.47140,0.25988,-0.36325,-0.82346,0.34990,13.02432,-38.28145,3.15833
-0.38445,1.72473,-0.01334,-0.56374,-0.58806,0.82925,4.19596,-3.09526,2.39097,0.22906,-2.78017,-12.72276,0.30246,-0.34177,-0.81995,0.34554,13.18584,-33.14537,4.22788
-0.39150,1.71497,-0.01180,-0.55078,-0.61280,0.67002,4.33350,-3.40114,2.32583,2.41868,-1.26735,-14.05927,0.34391,-0.31962,-0.81654,0.33590,15.04413,-24.94655,-0.19773
-0.39609,1.70715,-0.01857,-0.50045,-0.59951,0.40994,4.42387,-3.76378,1.93756,3.02422,2.73050,-15.31402,0.38354,-0.30091,-0.81409,0.31559,15.73835,-11.73310,-28.41536
-0.39994,1.70232,-0.02550,-0.44843,-0.54025,0.19959,4.23803,-3.97617,1.97709,3.65911,5.78164,-15.50971,0.42198,-0.28497,-0.80422,0.30652,-4.85407,-14.15302,-8.45123
-0.40221,1.70172,-0.03673,-0.38108,-0.42216,-0.03702,3.77283,-4.32412,2.09474,4.58982,8.89496,-14.78401,0.46193,-0.27715,-0.78710,0.30048,-24.50034,-24.29870,-3.53033
-0.40366,1.70370,-0.04887,-0.31430,-0.28635,-0.23637,3.25009,-4.74413,1.98087,5.75714,10.62823,-14.41728,0.50125,-0.27583,-0.76722,0.28990,-29.78266,-29.19209,-15.03745
-0.40402,1.70748,-0.06209,-0.24646,-0.15534,-0.40364,2.83699,-5.16422,1.58177,6.42225,11.30414,-13.61904,0.53878,-0.27917,-0.74726,0.27091,-22.40192,-32.71258,-45.19020
-0.40129,1.71515,-0.07881,-0.14378,0.00788,-0.58731,2.45401,-5.56330,1.09837,8.55353,12.21275,-12.63281,0.57485,-0.28676,-0.72525,0.24764,-13.77658,-26.09479,-43.78609
-0.39439,1.72705,-0.09838,0.00674,0.20671,-0.77949,2.15001,-5.90612,0.40264,10.64497,12.80950,-11.46402,0.60728,-0.29856,-0.70358,0.21691,-2.36976,-16.35462,-50.08650
-0.38617,1.73901,-0.11703,0.14380,0.35946,-0.91058,1.95370,-6.11192,-0.07280,12.19108,12.83299,-10.68254,0.63806,-0.30782,-0.68046,0.18735,2.13708,-12.13589,-48.30643
-0.37290,1.75463,-0.13809,0.33084,0.53493,-1.04888,1.68720,-6.34715,-0.50254,14.50296,12.43012,-9.35013,0.66740,-0.32089,-0.65339,0.15712,-3.92244,-12.36926,-39.28268
-0.35495,1.77229,-0.15979,0.55199,0.70360,-1.16559,1.43838,-6.53941,-0.85196,17.07630,11.91814,-7.47924,0.69485,-0.33459,-0.62375,0.12716,-6.93668,-11.51775,-32.63026
-0.33187,1.79200,-0.18145,0.80659,0.86723,-1.25468,1.23406,-6.70819,-1.16323,19.58066,11.74028,-5.24624,0.72040,-0.34855,-0.59182,0.09638,-5.68675,-9.80605,-27.47097
-0.30330,1.81408,-0.20224,1.09316,1.03232,-1.30871,1.10608,-6.81136,-1.54749,21.90629,12.12865,-2.45806,0.74222,-0.36349,-0.55954,0.06241,1.10096,-6.60532,-27.59949
-0.26897,1.83885,-0.22123,1.40851,1.20384,-1.32058,0.91976,-6.86138,-2.01023,23.75354,12.74899,0.69222,0.75924,-0.38238,-0.52592,0.02729,1.74563,-1.88701,-33.20545
-0.22894,1.86659,-0.23759,1.74503,1.38471,-1.28644,0.77591,-6.87883,-2.67121,25.17903,13.35008,3.99967,0.77008,-0.40625,-0.49170,-0.01305,9.25473,1.44369,-44.00453
-0.18292,1.89716,-0.25044,2.10301,1.57046,-1.20210,0.48399,-6.93308,-3.50371,27.07404,13.41151,7.89834,0.77420,-0.43874,-0.45283,-0.05537,8.22292,-1.20457,-57.25838
-0.13016,1.93002,-0.25830,2.48935,1.75090,-1.05498,0.28795,-6.94586,-4.58169,29.31112,12.33641,13.49061,0.76850,-0.47807,-0.41228,-0.10435,12.94884,0.83254,-73.99308
-0.06994,1.96394,-0.25928,2.90964,1.90686,-0.82824,0.25347,-6.83855,-5.80817,31.58086,9.74707,19.43446,0.75112,-0.52131,-0.37227,-0.15963,35.65003,-4.85004,-78.72385
0.00164,1.99723,-0.24841,3.42881,2.01739,-0.45207,0.14596,-6.27980,-7.09817,35.23708,4.14408,27.79239,0.71816,-0.57084,-0.33840,-0.20946,32.53117,28.58355,-69.98119
0.07786,2.02588,-0.22940,3.91132,2.02508,-0.02170,0.20345,-5.37061,-8.28141,34.36497,-3.32900,33.96986,0.67186,-0.62061,-0.31314,-0.25573,58.48856,40.08102,-78.94257
0.15670,2.04910,-0.20332,4.31689,1.94088,0.41841,0.41770,-4.26061,-9.11367,33.50865,-10.94689,39.74966,0.61713,-0.66597,-0.29714,-0.29554,68.83656,57.44263,-62.89316
0.24737,2.06104,-0.15773,4.82354,1.68654,1.08074,1.29249,-2.57286,-9.94847,30.38637,-21.08954,43.62132,0.54169,-0.70737,-0.30613,-0.33540,105.85960,55.66669,-36.33331
0.33847,2.06355,-0.10706,5.22787,1.32993,1.68233,2.29733,-1.10552,-10.68223,28.14755,-30.71761,42.72990,0.45530,-0.74229,-0.31884,-0.37422,127.87440,45.90578,-30.81702
0.43353,2.05234,-0.04981,5.60359,0.82524,2.25241,3.46709,-0.03240,-11.50881,25.97041,-42.76563,39.58070,0.35439,-0.76898,-0.33040,-0.41703,122.12830,21.25258,-44.38181
0.52905,2.02447,0.01345,5.93736,0.14104,2.76802,4.79455,0.40839,-12.42848,21.90361,-56.97240,34.56477,0.24102,-0.78100,-0.33512,-0.46865,104.31340,-16.98921,-61.17881
0.62358,1.97509,0.08005,6.18144,-0.76089,3.20812,5.95262,0.48290,-13.48528,12.67855,-73.83883,28.43637,0.11577,-0.77943,-0.32839,-0.52081,70.54939,-33.71339,-81.57231
0.71241,1.90895,0.14533,6.25106,-1.71412,3.52008,7.11613,0.35899,-14.27481,-0.85150,-87.57584,22.81082,-0.01397,-0.75791,-0.31914,-0.56880,59.63095,-37.00041,-89.64620
0.79057,1.80396,0.20877,6.09753,-3.03756,3.74724,8.38907,0.59402,-14.81802,-21.69372,-100.86330,8.23701,-0.15185,-0.71949,-0.31592,-0.59956,71.77753,-55.77409,-66.67415
0.84057,1.66269,0.26188,5.50492,-4.67011,3.75055,9.90686,1.71515,-14.77880,-52.76486,-100.30160,-10.33481,-0.29428,-0.67281,-0.32883,-0.59380,100.24580,-28.01133,-22.46231
0.87075,1.52713,0.30376,4.73228,-5.83012,3.57535,11.94705,3.20121,-13.49392,-73.99145,-91.34799,-22.01814,-0.42328,-0.61466,-0.37364,-0.55084,153.63300,-84.32552,45.68933
0.86541,1.37340,0.33279,3.56995,-6.99970,3.22733,16.27937,4.53812,-10.83709,-90.20572,-75.48782,-32.31113,-0.55010,-0.50582,-0.48347,-0.45583,254.23600,-217.83130,17.59649
0.83255,1.21855,0.34654,2.22687,-7.91749,2.71015,22.48684,4.64803,-7.02204,-100.52230,-53.77647,-44.21352,-0.64294,-0.31500,-0.63158,-0.29751,378.41440,-289.61020,-132.90720
0.76372,1.07182,0.33280,0.58265,-8.49851,1.85474,26.07993,0.41503,-4.04522,-104.30820,-19.53439,-54.23922,-0.63140,-0.07677,-0.74651,-0.19537,242.09610,-250.26130,-296.07380
0.69031,0.95809,0.30854,-0.77397,-8.41503,1.01000,22.94874,-4.27668,-4.79770,-92.30267,21.66255,-55.66475,-0.58322,0.07542,-0.77476,-0.23222,-121.29530,3.25224,-365.14110
0.62040,0.86949,0.28596,-1.73943,-7.94047,0.40420,17.14460,-5.89074,-7.28513,-73.90551,49.11954,-43.95348,-0.55883,0.14909,-0.74518,-0.33195,-299.78700,277.97110,-306.19010
0.54067,0.81508,0.26057,-2.63857,-7.01304,-0.10203,9.33095,-4.02505,-10.51388,-41.73081,66.36591,-23.39577,-0.56742,0.13226,-0.64786,-0.49074,-258.06940,500.91980,-151.74300
0.47612,0.76971,0.24534,-3.09575,-6.14067,-0.33088,5.37310,-2.08016,-10.69168,-20.95587,64.82147,-11.55643,-0.57531,0.12249,-0.58028,-0.56328,-145.85180,348.63760,-5.03701
0.42002,0.72652,0.23405,-3.30510,-5.44766,-0.44017,3.46196,-0.98088,-9.78272,-11.60980,55.85774,-7.14118,-0.57889,0.12435,-0.53933,-0.59878,-102.12060,184.70880,90.21255
0.36624,0.69893,0.22275,-3.42946,-4.66138,-0.52472,1.91586,0.20776,-8.60937,-4.57600,45.01335,-4.47278,-0.58522,0.11160,-0.50161,-0.62725,-52.43344,113.56590,91.22587
0.31573,0.66864,0.21205,-3.47692,-4.08869,-0.58268,1.26507,0.99623,-7.97887,-2.23972,38.86562,-4.51580,-0.59323,0.11661,-0.46015,-0.65019,-18.24925,76.02959,59.63714
0.26624,0.63851,0.20076,-3.49618,-3.65194,-0.63573,1.09459,1.30741,-7.59425,-0.27896,35.24971,-4.39545,-0.59907,0.13373,-0.42071,-0.66801,1.43348,44.40472,39.01872
0.21849,0.62007,0.18783,-3.48179,-3.12431,-0.70303,1.12147,1.34415,-7.17320,2.89415,31.93314,-4.13223,-0.60327,0.15470,-0.38668,-0.68016,2.70058,-0.56335,28.81118
0.17511,0.60216,0.17537,-3.40048,-2.70164,-0.74799,1.22982,1.50739,-6.85687,8.76144,29.05284,-2.32348,-0.60978,0.17457,-0.34883,-0.68994,12.63010,4.00566,17.76672
0.13572,0.58490,0.16407,-3.27380,-2.37015,-0.76298,1.22421,1.46206,-6.23669,13.30555,26.73407,0.09043,-0.61360,0.18928,-0.32186,-0.69576,11.20066,-0.13440,36.60675
0.10427,0.57698,0.15470,-3.04627,-1.96217,-0.74193,0.84300,1.23720,-5.09918,15.40425,23.73158,3.09568,-0.61139,0.19088,-0.31424,-0.70073,-17.13727,-15.98324,73.16953
0.07609,0.56861,0.14708,-2.81582,-1.64969,-0.69752,0.42202,1.43916,-4.03422,16.84310,21.78567,2.90631,-0.61187,0.18020,-0.30386,-0.70768,-25.69377,13.27364,76.44730
0.05103,0.56296,0.13939,-2.58663,-1.36331,-0.66462,0.37828,1.98452,-3.30163,14.31723,19.94216,1.50041,-0.62116,0.16604,-0.28339,-0.71153,0.13635,29.48842,69.49947
0.02700,0.55924,0.13138,-2.39109,-1.11190,-0.64343,0.71153,2.56806,-3.04214,13.64576,17.36474,1.39128,-0.63713,0.15770,-0.25066,-0.71160,34.58393,44.87764,16.75032
0.00534,0.56009,0.12385,-2.19995,-0.83789,-0.61782,0.95099,2.53752,-2.68935,11.35113,17.09218,2.02873,-0.64845,0.15610,-0.23013,-0.70866,20.87646,-1.14050,21.37736
-0.01632,0.56234,0.11723,-2.04923,-0.60072,-0.58250,0.99077,2.33215,-2.66679,10.80550,16.84869,3.29764,-0.65345,0.16137,-0.20858,-0.70955,4.78932,-16.51161,5.56063
-0.03645,0.56583,0.11155,-1.91023,-0.40262,-0.53909,0.92546,2.18759,-2.68917,12.51564,16.19439,4.26178,-0.65599,0.16636,-0.18626,-0.71225,-5.69093,-12.39898,-4.33744
-0.05162,0.57322,0.10777,-1.72437,-0.18951,-0.47419,0.76104,2.08556,-2.64663,14.02473,13.83353,5.48912,-0.65623,0.16915,-0.16561,-0.71647,-10.91587,-7.96573,2.52848
-0.06324,0.58127,0.10581,-1.52119,-0.01461,-0.39481,0.47201,1.97677,-2.51952,15.50501,11.28547,5.92608,-0.65320,0.16949,-0.14821,-0.72293,-17.60228,-1.82402,9.94514
-0.07063,0.58990,0.10503,-1.29710,0.12958,-0.31471,0.22166,1.81368,-2.19214,16.33411,8.92937,6.30410,-0.65027,0.16709,-0.13780,-0.72818,-16.25538,-12.35576,24.10238
-0.07441,0.59798,0.10568,-1.06495,0.23144,-0.22872,-0.02505,2.02032,-1.88822,16.05966,5.58867,6.79028,-0.64804,0.15618,-0.12227,-0.73533,-10.30813,6.75826,26.13567
-0.07322,0.60559,0.10787,-0.79955,0.30395,-0.13692,-0.15241,2.45350,-1.52570,17.09478,4.11061,4.67407,-0.64862,0.13708,-0.10337,-0.74150,-1.32216,31.89226,22.88553
-0.07213,0.61256,0.10858,-0.59869,0.34903,-0.08931,-0.25990,2.63289,-1.25340,16.89401,3.27021,3.38341,-0.64776,0.12142,-0.08744,-0.74701,-2.68049,18.83859,22.39531
-0.06638,0.61982,0.10929,-0.37108,0.38790,-0.05299,-0.43124,2.67171,-0.84315,16.14283,2.11002,1.90309,-0.64519,0.10345,-0.07833,-0.75292,-5.68218,8.50701,27.92958
-0.05698,0.62688,0.10951,-0.13159,0.41509,-0.03413,-0.62812,2.50795,-0.31450,14.31972,1.27583,0.39685,-0.64120,0.08553,-0.07795,-0.75860,-7.37127,-7.07830,35.23339
-0.04904,0.63329,0.10888,0.02836,0.42528,-0.03360,-0.73524,2.32803,0.04630,12.65218,0.55891,-0.25019,-0.63751,0.06996,-0.07746,-0.76334,-5.04109,-11.77610,33.49782
-0.03855,0.63942,0.10774,0.19056,0.42836,-0.04108,-0.85994,2.03882,0.42979,10.86034,0.05218,-0.81046,-0.63255,0.05560,-0.08267,-0.76809,-4.45732,-17.75242,29.78471
-0.02714,0.64545,0.10608,0.33126,0.42942,-0.05684,-0.98321,1.74270,0.73633,9.28374,0.17824,-1.31371,-0.62652,0.04272,-0.08973,-0.77304,-5.06108,-22.03559,27.01241
-0.01373,0.65123,0.10344,0.47330,0.42601,-0.08468,-1.03145,1.56993,0.87260,8.34526,-0.36452,-1.96055,-0.62123,0.03073,-0.09310,-0.77747,-1.79905,-11.53842,10.34249
-0.00110,0.65668,0.10052,0.57085,0.41814,-0.11144,-1.04098,1.46051,0.96355,8.00292,-0.91373,-2.46050,-0.61647,0.01857,-0.09542,-0.78135,-0.10769,-7.69028,6.46755
0.01433,0.66168,0.09616,0.69298,0.40441,-0.15696,-1.03083,1.26604,1.14887,7.53750,-0.87888,-3.31145,-0.61187,0.00682,-0.10251,-0.78426,2.13540,-11.66329,12.66224
0.02952,0.66649,0.09138,0.78288,0.39035,-0.19851,-0.97757,1.15253,1.32471,7.44424,-1.52038,-3.54787,-0.60825,-0.00621,-0.10962,-0.78611,4.42980,-9.97437,13.23518
0.04678,0.67041,0.08551,0.88426,0.36527,-0.24768,-0.86684,1.07797,1.55165,7.07476,-1.92343,-3.49086,-0.60624,-0.02107,-0.11866,-0.78610,9.23387,-5.14243,15.98960
0.06587,0.67378,0.07860,0.99511,0.33680,-0.30480,-0.72945,1.08427,1.76440,6.72827,-1.51418,-3.63957,-0.60536,-0.03790,-0.12732,-0.78479,9.30651,0.83581,13.66803
0.08523,0.67752,0.07102,1.08648,0.32076,-0.36135,-0.60885,1.16378,1.85356,6.06087,-0.74141,-4.42704,-0.60477,-0.05503,-0.13285,-0.78331,7.81327,5.61220,9.11487
0.10401,0.68138,0.06326,1.14500,0.31072,-0.40598,-0.49732,1.24906,1.85044,5.65522,-1.15017,-4.52820,-0.60471,-0.07135,-0.13612,-0.78148,8.71622,9.58743,0.41568
0.12598,0.68444,0.05275,1.24229,0.29018,-0.48468,-0.29162,1.30577,2.01349,5.36940,-0.96486,-4.37772,-0.60713,-0.09002,-0.14345,-0.77635,12.23186,4.88614,7.49297
0.14700,0.68804,0.04281,1.30328,0.28308,-0.53704,-0.17805,1.35500,2.14297,4.89034,-0.18549,-4.44012,-0.60809,-0.10899,-0.15087,-0.77174,10.35496,4.60987,10.80879
0.16982,0.69232,0.03106,1.37987,0.28906,-0.60696,-0.06242,1.37757,2.40369,4.77633,0.73755,-4.28438,-0.60891,-0.13032,-0.16225,-0.76545,8.07515,3.24526,13.39406
0.19262,0.69737,0.01923,1.44046,0.30601,-0.66477,0.02298,1.43000,2.65431,3.98502,1.67134,-4.02617,-0.60912,-0.15327,-0.17416,-0.75838,7.84473,3.42025,18.35147
0.21535,0.70320,0.00705,1.48461,0.33136,-0.71378,0.08960,1.51766,2.79977,3.22765,2.76160,-4.16776,-0.60927,-0.17647,-0.18405,-0.75085,5.45940,7.10126,14.70325
0.23860,0.71119,-0.00687,1.52755,0.38686,-0.78047,0.16011,1.69948,2.91732,1.94076,4.24062,-4.14484,-0.60987,-0.20214,-0.19190,-0.74187,3.86391,11.44913,8.56984
0.26118,0.72143,-0.02119,1.55045,0.46266,-0.84411,0.19610,1.94116,2.92728,0.81190,5.29160,-3.90723,-0.61044,-0.22842,-0.19591,-0.73267,0.66903,15.09322,1.49889
0.28301,0.73290,-0.03577,1.55551,0.54357,-0.89729,0.16254,2.18387,2.89469,-0.15135,6.32070,-3.79479,-0.60971,-0.25529,-0.19763,-0.72389,-4.24376,16.40655,-1.37262
0.30411,0.74617,-0.05114,1.54635,0.63922,-0.94861,0.03520,2.46389,2.84987,-1.24118,7.27388,-3.40003,-0.60689,-0.28412,-0.19649,-0.71578,-10.69595,17.81835,-1.34845
0.32436,0.76129,-0.06696,1.52364,0.74345,-0.99412,-0.21698,2.76610,2.77558,-2.10239,7.61088,-3.00764,-0.60093,-0.31471,-0.19168,-0.70930,-19.95220,18.41157,-2.38922
0.34357,0.77805,-0.08326,1.48876,0.85086,-1.03729,-0.54613,3.09989,2.69747,-3.09384,7.73908,-3.12684,-0.59210,-0.34746,-0.18334,-0.70362,-25.78347,18.44311,-0.66352
0.36190,0.79537,-0.10011,1.44822,0.94187,-1.07823,-0.87614,3.46053,2.57173,-4.02286,7.54149,-3.57125,-0.58185,-0.38137,-0.17051,-0.69781,-31.54012,22.49653,-3.36997
0.37847,0.81447,-0.11829,1.38864,1.03930,-1.13079,-1.30304,3.94091,2.36280,-4.78975,6.47323,-3.79717,-0.56879,-0.41798,-0.14938,-0.69243,-37.32704,27.47112,-7.79970
0.39349,0.83402,-0.13733,1.31733,1.12170,-1.18544,-1.73441,4.41364,2.14595,-5.58492,5.51660,-4.10256,-0.55351,-0.45537,-0.12362,-0.68628,-38.85577,28.31077,-10.05608
