posX, posY, posZ, velX, velY, velZ, angVelX, angVelY, angVelZ, accX, accY, accZ, rotX, rotY, rotZ, rotW, angAccX, angAccY, angAccZ
-0.04808,1.26040,-0.60794,-0.51115,-0.00832,-0.05640,0.32142,0.56122,0.16282,2.32258,-0.78600,1.97629,-0.26911,-0.91060,-0.08167,-0.30285,-8.95391,-9.16368,-0.81489
-0.05329,1.25952,-0.60783,-0.48083,-0.01887,-0.03120,0.07167,0.35374,0.16759,1.29575,-0.58019,1.56867,-0.26622,-0.91075,-0.07814,-0.30586,-15.99778,-11.80562,2.10941
-0.05880,1.25927,-0.60810,-0.46044,-0.01713,-0.01781,-0.11072,0.27957,0.22183,1.68790,0.91898,0.26093,-0.26252,-0.91184,-0.07473,-0.30669,-12.13443,-7.86570,-0.03401
-0.06408,1.25979,-0.60874,-0.44096,-0.00244,-0.01712,-0.16748,0.28576,0.33358,1.56156,1.45884,-0.21814,-0.25773,-0.91385,-0.07344,-0.30506,-7.13914,-0.52130,10.13911
-0.06916,1.26088,-0.60956,-0.42214,0.01882,-0.01886,-0.08462,0.36655,0.35675,0.79618,1.38889,-0.18450,-0.25559,-0.91585,-0.07421,-0.30063,1.92063,6.17796,5.06561
-0.07459,1.26220,-0.61053,-0.41342,0.03922,-0.02125,0.08146,0.45658,0.31492,0.69034,1.94554,-0.20991,-0.25608,-0.91739,-0.07700,-0.29476,10.97827,6.81801,-3.71696
-0.07988,1.26445,-0.61168,-0.40430,0.07067,-0.02486,0.28860,0.53889,0.28315,0.75667,2.48836,0.05428,-0.25741,-0.91881,-0.08198,-0.28776,16.62973,7.86218,-3.85969
-0.08520,1.26747,-0.61250,-0.39791,0.10667,-0.02754,0.34535,0.51039,0.34945,0.45157,2.73001,0.08443,-0.25523,-0.92032,-0.08577,-0.28373,7.27763,0.79062,1.92527
-0.09093,1.27134,-0.61396,-0.39766,0.15010,-0.03493,0.28020,0.41400,0.50453,-0.11993,2.62256,-0.49219,-0.24915,-0.92220,-0.08811,-0.28233,-3.16930,-6.82922,9.46586
-0.09686,1.27524,-0.61561,-0.40161,0.18411,-0.04570,0.20903,0.34988,0.62665,-0.24504,2.19383,-0.84312,-0.24278,-0.92420,-0.08979,-0.28079,-5.58343,-5.19931,9.55848
-0.10270,1.27942,-0.61719,-0.40407,0.21243,-0.05944,0.18664,0.32040,0.66913,-0.26832,1.73017,-1.11849,-0.23793,-0.92592,-0.09174,-0.27866,-2.44320,-3.25961,5.40275
-0.10865,1.28364,-0.61909,-0.40597,0.23403,-0.07359,0.24010,0.31292,0.62823,0.02196,1.23528,-0.98118,-0.23562,-0.92707,-0.09479,-0.27576,2.24568,0.08838,-1.69016
-0.11438,1.28759,-0.62091,-0.40487,0.24549,-0.08394,0.31686,0.31195,0.54246,0.16446,0.91246,-1.19687,-0.23518,-0.92772,-0.09839,-0.27265,5.32044,-1.16107,-5.66347
-0.11987,1.29196,-0.62335,-0.39893,0.26064,-0.10311,0.57893,0.40092,0.28998,0.39395,0.63083,-0.97363,-0.24171,-0.92717,-0.10533,-0.26614,14.70863,6.20528,-14.51837
-0.12548,1.29615,-0.62569,-0.39623,0.26907,-0.11775,0.66126,0.41316,0.13283,0.22182,0.50964,-0.73982,-0.24610,-0.92673,-0.10981,-0.26181,9.15663,3.89927,-13.35909
-0.13122,1.30015,-0.62793,-0.39763,0.27224,-0.12723,0.59943,0.36553,0.08049,-0.08362,0.12232,-0.47929,-0.24759,-0.92666,-0.11187,-0.25979,0.35836,-2.11330,-7.87355
-0.13701,1.30406,-0.63013,-0.39845,0.27222,-0.13434,0.29332,0.12286,0.06469,0.28155,-0.08928,0.08970,-0.24584,-0.92600,-0.10856,-0.26513,-16.75432,-12.84790,-1.45321
-0.14258,1.30804,-0.63180,-0.39531,0.27319,-0.13128,0.18957,-0.05338,0.02649,0.12534,0.21894,-0.16918,-0.24563,-0.92483,-0.10840,-0.26946,-15.19742,-16.29334,-0.28227
-0.14821,1.31241,-0.63325,-0.39503,0.28127,-0.12538,0.46141,-0.00235,-0.09167,-0.31796,1.02399,-0.24450,-0.25114,-0.92329,-0.11564,-0.26663,10.07091,-3.12376,-8.15557
-0.15444,1.31750,-0.63469,-0.40513,0.29938,-0.12199,1.06117,0.28287,-0.24361,-0.60223,0.95981,0.11498,-0.26222,-0.92158,-0.13140,-0.25430,41.09410,17.95278,-10.46533
-0.16078,1.32222,-0.63675,-0.41449,0.30643,-0.13048,1.14401,0.42793,-0.26884,-0.26802,0.07503,-0.32606,-0.26779,-0.92115,-0.13843,-0.24619,17.51362,14.78711,-3.55374
-0.16687,1.32652,-0.63930,-0.41813,0.30538,-0.14434,0.91728,0.46972,-0.24946,-0.16919,-0.25994,-1.07864,-0.26984,-0.92166,-0.13828,-0.24209,-14.09162,3.99369,2.09557
-0.17282,1.33066,-0.64215,-0.41840,0.30290,-0.15932,0.66636,0.51865,-0.24248,0.11122,-0.04898,-1.01579,-0.27149,-0.92258,-0.13563,-0.23820,-20.00790,3.73392,2.45416
-0.17869,1.33515,-0.64474,-0.41696,0.30676,-0.16668,0.54232,0.59931,-0.26819,0.08075,0.53516,-0.22963,-0.27470,-0.92324,-0.13428,-0.23269,-8.86694,5.67049,-1.17893
-0.18462,1.34020,-0.64699,-0.41821,0.32016,-0.16595,0.55206,0.67142,-0.26951,-0.23283,1.56950,0.01868,-0.27821,-0.92361,-0.13578,-0.22609,-2.33151,4.77113,-0.62864
-0.19113,1.34652,-0.64876,-0.42770,0.35178,-0.15883,0.74693,0.81494,-0.22912,-0.94843,2.99115,0.55762,-0.28217,-0.92402,-0.14180,-0.21554,9.40167,7.88815,2.08016
-0.19809,1.35418,-0.64983,-0.44285,0.39881,-0.14125,0.97611,0.89752,-0.12821,-0.99028,3.73480,1.96308,-0.28480,-0.92430,-0.15084,-0.20447,21.27438,10.40511,4.31822
-0.20567,1.36289,-0.65009,-0.46624,0.45308,-0.11299,1.15227,0.80244,-0.01615,-2.10226,4.31742,2.27836,-0.28563,-0.92382,-0.16112,-0.19750,6.43291,-2.74137,9.53760
-0.21346,1.37328,-0.65011,-0.48662,0.52415,-0.08828,1.40199,0.77635,0.26584,-0.52006,5.78379,1.01263,-0.28222,-0.92429,-0.17555,-0.18765,21.03267,-8.03134,12.48774
-0.22151,1.38425,-0.65065,-0.50732,0.58697,-0.07828,1.39775,0.78274,0.50855,-1.79175,3.82967,0.68092,-0.27672,-0.92601,-0.18484,-0.17824,6.55818,1.40743,20.68535
-0.22976,1.39496,-0.65179,-0.52704,0.63017,-0.07983,1.19422,0.73356,0.69219,-1.67563,3.28803,-0.41970,-0.26974,-0.92840,-0.18901,-0.17202,-9.97009,-5.56913,16.50387
-0.23867,1.40677,-0.65329,-0.55209,0.68286,-0.08792,1.08668,0.84576,0.77893,-1.72710,3.30957,-0.68540,-0.26499,-0.93086,-0.19270,-0.16168,-10.52884,4.04461,8.63718
-0.24748,1.41852,-0.65451,-0.56997,0.72191,-0.08869,1.15377,0.97491,0.75624,-1.47944,3.30095,0.17933,-0.26387,-0.93181,-0.19967,-0.14915,3.04663,11.37436,0.08844
-0.25673,1.43126,-0.65499,-0.59099,0.76757,-0.07653,1.29115,1.06255,0.72339,-1.44372,3.35610,1.49517,-0.26359,-0.93183,-0.20898,-0.13618,8.25430,9.01645,-3.09779
-0.26636,1.44464,-0.65439,-0.61266,0.81366,-0.04921,1.44897,1.06567,0.71737,-1.54707,3.40906,2.41920,-0.26259,-0.93113,-0.22035,-0.12448,10.39583,1.57347,-1.18850
-0.27634,1.45867,-0.65272,-0.63539,0.86008,-0.01072,1.62440,1.02266,0.75694,-1.58018,3.28912,2.89020,-0.26023,-0.92994,-0.23378,-0.11332,13.14181,-1.77270,0.96328
-0.28677,1.47335,-0.65025,-0.66074,0.90693,0.03251,1.69977,0.94308,0.79813,-1.38627,2.50883,2.63378,-0.25696,-0.92881,-0.24599,-0.10376,7.72208,-3.78922,2.46003
-0.29704,1.48758,-0.64803,-0.67715,0.93522,0.06124,1.72360,0.91878,0.78721,-1.49714,2.26969,2.25263,-0.25480,-0.92758,-0.25665,-0.09383,0.44533,-5.27308,0.50521
-0.30771,1.50232,-0.64503,-0.69595,0.96517,0.09585,1.84186,0.96833,0.71729,-1.40593,2.09596,2.31448,-0.25511,-0.92508,-0.26923,-0.08161,6.35425,2.43242,-4.11009
-0.31892,1.51771,-0.64098,-0.72038,0.99822,0.13973,2.02107,1.10107,0.62191,-1.31759,1.63162,2.45698,-0.25736,-0.92148,-0.28325,-0.06638,9.72729,8.82806,-5.17175
-0.33014,1.53278,-0.63683,-0.73974,1.01900,0.17551,2.18593,1.24912,0.55858,-1.38755,1.28997,2.52546,-0.25947,-0.91747,-0.29739,-0.04987,9.05529,9.40978,-3.91628
-0.34136,1.54773,-0.63214,-0.75468,1.03253,0.21260,2.28897,1.36702,0.48182,-0.73047,0.62297,2.92731,-0.26230,-0.91294,-0.31085,-0.03339,10.39067,12.17311,-5.00608
-0.35262,1.56261,-0.62676,-0.76711,1.04043,0.25171,2.22087,1.31126,0.46842,-0.80816,0.41504,3.02452,-0.26254,-0.90948,-0.32166,-0.02149,-2.49345,-1.37685,-2.23749
-0.36401,1.57741,-0.62065,-0.77911,1.04504,0.29322,2.13859,1.23502,0.47571,-0.80571,0.21687,2.88224,-0.26191,-0.90618,-0.33186,-0.01063,-5.52693,-5.83960,0.01960
-0.37556,1.59210,-0.61409,-0.79107,1.04713,0.33410,2.07415,1.20687,0.49779,-0.94229,0.19135,2.91622,-0.26098,-0.90285,-0.34167,0.00109,-6.07102,-3.85726,1.83074
-0.38721,1.60679,-0.60645,-0.80275,1.04796,0.38027,2.12145,1.26829,0.53475,-0.83095,0.12019,3.30717,-0.26025,-0.89849,-0.35318,0.01587,1.03280,2.80138,2.43111
-0.39887,1.62141,-0.59783,-0.81198,1.04762,0.43260,2.30438,1.42357,0.55135,-0.58048,-0.02438,3.87578,-0.26070,-0.89210,-0.36742,0.03441,10.33654,8.97195,1.76292
-0.41038,1.63573,-0.58830,-0.81587,1.04270,0.49065,2.45773,1.48834,0.58189,0.28223,-0.74925,4.46317,-0.26016,-0.88511,-0.38233,0.05206,14.13974,10.24825,1.41929
-0.42147,1.64958,-0.57816,-0.81171,1.03155,0.54658,2.44404,1.37321,0.63388,0.51748,-1.07156,3.91385,-0.25720,-0.87953,-0.39508,0.06476,1.88739,-6.72849,2.49805
-0.43233,1.66310,-0.56762,-0.80476,1.01746,0.59605,2.38400,1.25646,0.67868,0.37450,-0.97943,3.12812,-0.25369,-0.87435,-0.40661,0.07626,-4.24848,-11.11450,2.30389
-0.44314,1.67646,-0.55738,-0.79784,1.00435,0.63013,2.36065,1.25177,0.70209,0.58162,-1.20364,2.41918,-0.25116,-0.86844,-0.41790,0.08997,-1.98546,-2.91555,2.68209
-0.45351,1.68927,-0.54721,-0.78378,0.98594,0.65953,2.29315,1.44072,0.70151,0.91693,-1.24056,1.54318,-0.25113,-0.86230,-0.42629,0.10788,-5.30758,8.57031,1.78309
-0.46356,1.70199,-0.53715,-0.76792,0.96969,0.67874,2.22217,1.58100,0.67130,1.76387,-1.52133,1.99155,-0.25192,-0.85578,-0.43412,0.12538,-4.31791,15.77893,1.19228
-0.47243,1.71395,-0.52491,-0.73567,0.94276,0.72992,2.21543,1.61680,0.61622,1.99842,-1.41439,3.84190,-0.25252,-0.84839,-0.44341,0.14093,-3.13360,2.56874,-2.69296
-0.48135,1.72600,-0.51192,-0.71232,0.92327,0.78060,2.34217,1.57932,0.59629,2.09467,-1.62544,4.49392,-0.25136,-0.83922,-0.45628,0.15600,8.39979,-0.42270,-3.99570
-0.48975,1.73753,-0.49769,-0.68612,0.89948,0.83938,2.42987,1.40960,0.63644,1.96803,-1.88887,3.98226,-0.24702,-0.83067,-0.46977,0.16816,8.55272,-9.98525,-0.31281
-0.49744,1.74849,-0.48284,-0.65455,0.87031,0.89393,2.46491,1.24257,0.69689,1.89562,-2.02206,2.92217,-0.24140,-0.82266,-0.48245,0.17944,3.40935,-12.88799,2.18549
-0.50503,1.75930,-0.46853,-0.62934,0.84564,0.92492,2.47402,1.18821,0.72975,2.16283,-2.28554,2.16345,-0.23693,-0.81417,-0.49402,0.19218,2.27898,-6.16035,2.08113
-0.51212,1.76950,-0.45438,-0.60253,0.81733,0.94476,2.44862,1.16552,0.75315,2.16116,-2.59396,1.06197,-0.23276,-0.80578,-0.50449,0.20501,-1.20251,-3.93745,1.59992
-0.51786,1.77812,-0.44063,-0.55920,0.76742,0.95108,2.31937,1.24860,0.77563,2.57062,-3.07022,-0.14950,-0.23028,-0.79820,-0.51152,0.21952,-7.72143,4.42036,2.79228
-0.52354,1.78679,-0.42733,-0.52539,0.73010,0.94833,2.23669,1.33666,0.76922,2.97759,-3.36926,-0.38500,-0.22860,-0.78984,-0.51865,0.23431,-7.89364,6.09328,1.90645
-0.52808,1.79417,-0.41413,-0.48082,0.68013,0.94413,2.15653,1.36083,0.73115,3.53912,-3.90277,-0.18687,-0.22724,-0.78150,-0.52567,0.24756,-6.02752,4.94667,-0.65722
-0.53182,1.80055,-0.40094,-0.43208,0.62535,0.94231,2.05811,1.22031,0.66278,3.62575,-4.00349,-0.00612,-0.22473,-0.77435,-0.53312,0.25623,-6.99397,-7.80995,-4.49511
-0.53485,1.80608,-0.38751,-0.38388,0.56906,0.94394,1.98996,1.06807,0.59169,3.41283,-3.99785,-0.00857,-0.22192,-0.76716,-0.54109,0.26351,-4.77237,-10.30289,-6.87772
-0.53729,1.81105,-0.37436,-0.33644,0.51728,0.94107,1.91439,0.96772,0.53474,3.11582,-3.48519,-0.38586,-0.21945,-0.76014,-0.54836,0.27080,-6.26722,-10.07988,-5.50770
-0.53907,1.81547,-0.36132,-0.28874,0.46852,0.93733,1.92617,1.03752,0.49614,3.44005,-3.34810,-0.34009,-0.21851,-0.75080,-0.55597,0.28187,-0.59775,3.54196,-2.29589
-0.54033,1.81976,-0.34835,-0.24430,0.42995,0.93332,1.93987,1.10551,0.44396,3.90682,-3.15320,-0.37399,-0.21828,-0.74086,-0.56361,0.29294,0.87066,7.10538,-2.68669
-0.53997,1.82287,-0.33551,-0.18263,0.38063,0.92815,1.95633,1.15258,0.36396,3.87045,-3.10417,-0.39476,-0.21879,-0.73039,-0.57159,0.30324,0.41631,4.54836,-4.28192
-0.53950,1.82583,-0.32283,-0.13247,0.33991,0.92192,1.92820,1.13964,0.33745,3.52061,-2.93195,-0.41500,-0.21803,-0.72103,-0.57865,0.31264,-1.23639,0.95564,-2.99507
-0.53853,1.82819,-0.31011,-0.08567,0.29872,0.91817,1.88772,1.03735,0.32221,3.43072,-2.95813,-0.13501,-0.21577,-0.71270,-0.58577,0.31996,-2.68109,-5.62480,-1.39432
-0.53678,1.82967,-0.29719,-0.03515,0.25173,0.91969,1.84042,0.79806,0.28807,3.14846,-2.91228,0.32444,-0.21155,-0.70582,-0.59369,0.32342,-3.84037,-13.81357,-3.52997
-0.53486,1.83095,-0.28426,0.00787,0.21216,0.92163,1.81672,0.54038,0.24225,3.19511,-2.78707,-0.02782,-0.20633,-0.69912,-0.60244,0.32515,-0.36908,-15.93988,-4.47916
-0.53271,1.83203,-0.27151,0.04352,0.17936,0.92023,1.79089,0.31217,0.19375,2.81661,-2.74837,-0.21626,-0.20077,-0.69280,-0.61126,0.32571,-2.90961,-19.86163,-6.24379
-0.52972,1.83190,-0.25907,0.08493,0.13340,0.91365,1.80287,0.14277,0.14950,2.13195,-2.98087,-0.69663,-0.19502,-0.68579,-0.62067,0.32624,0.66303,-12.86388,-4.84181
-0.52687,1.83125,-0.24705,0.11429,0.08874,0.90115,1.85899,0.13069,0.14123,1.85786,-3.32132,-1.08782,-0.19025,-0.67691,-0.62991,0.32988,2.73504,-2.43229,-1.07096
-0.52412,1.83014,-0.23543,0.13445,0.04787,0.88487,1.89673,0.08711,0.12658,1.59104,-3.61990,-1.73990,-0.18506,-0.66819,-0.63923,0.33264,4.71904,-0.93548,-0.90524
-0.52113,1.82769,-0.22531,0.15390,-0.00623,0.84610,1.79892,-0.14997,0.07194,1.24584,-3.44714,-3.18568,-0.17830,-0.66323,-0.64763,0.33002,-3.26054,-12.03827,-3.44971
-0.51834,1.82515,-0.21634,0.16510,-0.04957,0.79594,1.64151,-0.39945,-0.00485,0.45289,-2.87454,-4.08299,-0.17170,-0.66026,-0.65503,0.32482,-11.74860,-19.04139,-7.96967
-0.51578,1.82292,-0.20776,0.16930,-0.07578,0.75215,1.53298,-0.48696,-0.02914,0.02858,-2.35444,-4.84934,-0.16606,-0.65637,-0.66170,0.32212,-10.69901,-13.41432,-6.37490
-0.51328,1.82027,-0.20233,0.17165,-0.10191,0.66720,1.30781,-0.51421,-0.05521,-0.15887,-0.93747,-5.78311,-0.16267,-0.65490,-0.66539,0.31922,-13.45940,-4.00102,-3.10531
-0.51070,1.81835,-0.19816,0.17500,-0.11051,0.57888,1.17040,-0.18739,0.05772,0.03796,-0.30790,-5.20913,-0.16276,-0.65031,-0.66678,0.32560,-11.64897,14.97750,7.01397
-0.50801,1.81648,-0.19310,0.17964,-0.11625,0.52864,1.15089,0.09505,0.12526,0.72001,-0.57410,-4.84776,-0.16324,-0.64342,-0.66964,0.33308,-2.93195,29.21505,11.52448
-0.50503,1.81439,-0.19000,0.18764,-0.12414,0.45761,1.10651,0.39149,0.12092,0.47355,-0.44688,-3.99896,-0.16679,-0.63588,-0.67196,0.34104,-2.91464,20.35308,1.86885
-0.50247,1.81227,-0.18685,0.18647,-0.13076,0.40212,1.08529,0.49101,0.08484,-0.14365,-0.31757,-3.11487,-0.16831,-0.62908,-0.67551,0.34586,-0.66044,9.81057,-0.38463
-0.50024,1.81047,-0.18297,0.18020,-0.13037,0.37308,1.04125,0.45284,0.06455,-0.85651,0.27149,-2.66324,-0.16772,-0.62404,-0.67905,0.34832,-3.31840,-1.52725,-4.15884
-0.49909,1.80909,-0.17983,0.15668,-0.12286,0.33879,1.01275,0.31683,0.11331,-1.59116,0.63588,-1.18301,-0.16387,-0.62022,-0.68253,0.35017,-1.07446,-5.83299,2.85789
-0.49825,1.80796,-0.17572,0.13352,-0.11271,0.32856,1.00550,0.13430,0.16111,-2.04747,1.04601,-0.61633,-0.15807,-0.61694,-0.68656,0.35077,-0.70049,-14.09159,2.40817
-0.49843,1.80755,-0.17145,0.09822,-0.09274,0.32358,0.98206,-0.16103,0.22931,-2.35052,1.37250,0.02649,-0.14881,-0.61568,-0.69062,0.34906,-1.40654,-17.98626,2.84351
-0.49902,1.80738,-0.16682,0.06381,-0.07308,0.32586,1.00040,-0.42047,0.31557,-2.70356,1.48292,0.43673,-0.13791,-0.61411,-0.69504,0.34751,0.66103,-19.60452,4.05150
-0.50002,1.80719,-0.16177,0.03128,-0.05889,0.33467,1.07454,-0.62371,0.43845,-2.86086,1.09656,1.09487,-0.12507,-0.61160,-0.69982,0.34720,4.12494,-17.92443,8.31934
-0.50215,1.80715,-0.15597,-0.01272,-0.04553,0.35446,1.24138,-0.85950,0.61597,-2.59099,0.62192,1.28156,-0.10789,-0.60779,-0.70584,0.34747,10.92747,-14.71337,11.24069
-0.50423,1.80687,-0.15003,-0.04583,-0.03959,0.37202,1.35539,-1.10267,0.69929,-2.03723,0.22934,1.19706,-0.09055,-0.60444,-0.71210,0.34549,8.96362,-17.08770,6.77029
-0.50613,1.80649,-0.14409,-0.06731,-0.03669,0.38491,1.43288,-1.28542,0.71786,-1.55149,0.16688,0.88482,-0.07400,-0.60092,-0.71844,0.34243,7.83919,-16.58608,1.95666
-0.50812,1.80609,-0.13811,-0.08488,-0.03489,0.39536,1.50790,-1.42188,0.71405,-1.19624,0.01632,0.59647,-0.05753,-0.59683,-0.72501,0.33888,5.58709,-12.26553,-1.63300
-0.51004,1.80558,-0.13228,-0.09723,-0.03518,0.40070,1.56786,-1.51544,0.69895,-0.65980,0.03399,0.06756,-0.04148,-0.59230,-0.73146,0.33529,5.79707,-5.84754,0.24310
-0.51182,1.80530,-0.12692,-0.10436,-0.03162,0.39667,1.58007,-1.57363,0.69002,-0.49170,0.16190,-0.53425,-0.02598,-0.58824,-0.73708,0.33169,1.32273,-6.23509,-3.09890
-0.51334,1.80487,-0.12184,-0.10548,-0.03141,0.38902,1.61746,-1.47655,0.76828,-0.08704,0.07286,-0.78187,-0.01171,-0.58226,-0.74184,0.33242,1.21005,3.90127,5.17315
-0.51452,1.80443,-0.11721,-0.10053,-0.03149,0.37592,1.66203,-1.28268,0.89850,0.61575,-0.12601,-1.06703,0.00135,-0.57468,-0.74583,0.33686,1.63417,12.62935,10.90038
-0.51528,1.80367,-0.11294,-0.08945,-0.03718,0.35947,1.69248,-1.14563,0.98372,0.84194,-0.52145,-0.81155,0.01432,-0.56710,-0.74976,0.34066,0.37974,9.03374,7.17157
-0.51586,1.80254,-0.10845,-0.07786,-0.04781,0.35061,1.79078,-1.05900,1.06369,0.96390,-0.85975,-0.49453,0.02865,-0.55790,-0.75459,0.34427,4.73175,6.18056,6.75721
-0.51615,1.80116,-0.10409,-0.06406,-0.06030,0.34147,1.89657,-1.01927,1.11479,1.07082,-0.92725,-0.86384,0.04366,-0.54800,-0.75981,0.34710,7.46051,4.13357,4.53130
-0.51635,1.79955,-0.10013,-0.05229,-0.07351,0.32767,1.97528,-1.07036,1.12742,0.85226,-1.01573,-1.10461,0.05992,-0.53870,-0.76496,0.34792,5.88849,-1.32651,2.57529
-0.51675,1.79780,-0.09648,-0.04676,-0.08596,0.31223,2.02281,-1.22840,1.09134,0.35866,-1.18898,-1.44664,0.07796,-0.53066,-0.77001,0.34554,5.53605,-9.14678,-3.00131
-0.51738,1.79524,-0.09350,-0.04654,-0.10924,0.28892,2.12249,-1.51595,1.04276,-0.09278,-1.70885,-1.42843,0.09996,-0.52259,-0.77555,0.33974,6.59968,-15.73059,-3.14747
-0.51845,1.79224,-0.09082,-0.05392,-0.13493,0.26572,2.26249,-1.84161,0.96051,-0.81205,-1.87328,-1.86033,0.12412,-0.51381,-0.78172,0.33093,11.41875,-20.81134,-8.15672
-0.52011,1.78882,-0.08879,-0.06977,-0.16153,0.23683,2.41665,-2.17265,0.94969,-1.55262,-1.90097,-2.21608,0.15136,-0.50424,-0.78709,0.32145,12.41504,-23.49331,-5.83987
-0.52231,1.78513,-0.08760,-0.09104,-0.18600,0.20038,2.58483,-2.47790,0.98700,-1.27948,-1.37058,-3.29250,0.18091,-0.49326,-0.79167,0.31181,14.33092,-20.34106,3.30412
-0.52458,1.78182,-0.08732,-0.10805,-0.19825,0.15782,2.64710,-2.73399,0.99714,-1.51933,-0.92106,-4.02709,0.21002,-0.48366,-0.79451,0.30120,8.45871,-21.46625,-3.02427
-0.52728,1.77841,-0.08868,-0.12779,-0.20898,0.09844,2.71349,-3.02123,1.00402,-1.46084,-0.66195,-4.65014,0.24134,-0.47388,-0.79615,0.28868,5.98505,-21.28628,-2.00748
-0.53026,1.77513,-0.09208,-0.14805,-0.21499,0.01771,2.73872,-3.30832,1.03008,-1.26299,-0.20063,-5.52766,0.27389,-0.46454,-0.79580,0.27545,4.13302,-18.53637,-2.19616
-0.53304,1.77194,-0.09629,-0.16014,-0.21843,-0.05866,2.74873,-3.48639,1.09383,-0.51260,-0.29515,-5.53785,0.30566,-0.45429,-0.79411,0.26378,-0.24560,-14.63752,3.21780
-0.53544,1.76867,-0.10113,-0.16285,-0.22218,-0.12659,2.78923,-3.60617,1.12216,0.03819,-0.25716,-5.86266,0.33674,-0.44264,-0.79215,0.25133,3.53082,-11.32941,0.80243
-0.53734,1.76549,-0.10799,-0.15669,-0.22360,-0.21105,2.83824,-3.70516,1.16272,0.70326,0.04736,-6.49303,0.36801,-0.42986,-0.78916,0.23877,3.91982,-7.56901,2.14785
-0.53816,1.76284,-0.11808,-0.13280,-0.21531,-0.33362,2.76375,-3.77632,1.35517,1.84669,0.82688,-7.44009,0.39995,-0.41776,-0.78256,0.23048,-4.58025,-5.75399,7.75423
-0.53860,1.76040,-0.12704,-0.10870,-0.20570,-0.40744,2.67285,-3.80932,1.49963,2.95033,1.09829,-7.57525,0.43062,-0.40579,-0.77478,0.22277,-11.94620,-6.12151,12.67657
-0.53687,1.75877,-0.14013,-0.05370,-0.18494,-0.53209,2.57539,-3.92786,1.60193,4.47939,1.60761,-7.84619,0.46256,-0.39461,-0.76460,0.21381,-9.18378,-8.21809,6.00623
-0.53293,1.75818,-0.15489,0.02817,-0.14996,-0.65953,2.57598,-4.06228,1.54531,5.93942,2.93216,-8.09612,0.49360,-0.38274,-0.75489,0.20000,3.71262,-8.49657,-6.88617
-0.52717,1.75903,-0.17036,0.12322,-0.09778,-0.77040,2.55364,-4.14951,1.50244,7.75540,4.63424,-8.02136,0.52354,-0.37077,-0.74405,0.18663,-1.24420,-5.93968,-0.91273
-0.51988,1.76131,-0.18658,0.21996,-0.03456,-0.86549,2.50365,-4.24215,1.43407,8.55633,5.96631,-8.11456,0.55275,-0.35970,-0.73172,0.17222,0.94985,-5.92725,-8.95493
-0.50815,1.76706,-0.20586,0.37031,0.07404,-0.99032,2.33928,-4.39574,1.39121,10.46114,7.87969,-7.65315,0.58241,-0.35130,-0.71569,0.15865,-8.61992,-9.51617,-4.92874
-0.49441,1.77496,-0.22544,0.52162,0.19511,-1.09189,2.22646,-4.57564,1.17850,11.71292,9.51960,-6.87002,0.61066,-0.34494,-0.69886,0.14033,-4.05604,-10.63963,-15.61543
-0.47862,1.78472,-0.24495,0.66923,0.31709,-1.16596,2.04622,-4.70377,0.99500,13.09840,11.14940,-5.80675,0.63731,-0.34060,-0.68026,0.12280,-2.17160,-11.16019,-21.65373
-0.45638,1.80050,-0.26494,0.89259,0.51397,-1.22970,1.65070,-4.74019,0.65420,15.35928,13.72408,-2.56431,0.65901,-0.34439,-0.66017,0.10616,-20.07296,-3.41476,-22.97855
-0.43166,1.81925,-0.28326,1.10832,0.71758,-1.25026,1.31766,-4.66082,0.08715,16.14612,15.45581,-0.69170,0.67480,-0.35306,-0.64246,0.08507,-9.76259,8.25953,-43.07597
-0.40651,1.83849,-0.30046,1.27286,0.87414,-1.24648,0.92586,-4.58807,-0.28960,16.99808,16.26376,0.80456,0.68953,-0.36394,-0.62250,0.06776,-17.14579,9.61280,-46.49532
-0.37188,1.86635,-0.31563,1.55447,1.13510,-1.20934,0.15203,-4.44384,-0.94852,18.52083,16.61130,3.36340,0.69613,-0.39100,-0.59977,0.05285,-32.43778,11.36955,-52.11544
-0.33239,1.89738,-0.32796,1.86174,1.39667,-1.13115,-0.52608,-4.23123,-1.77961,20.65281,16.32865,6.87526,0.69655,-0.42426,-0.57756,0.03526,-33.95551,14.42962,-58.36037
-0.29417,1.92633,-0.33937,2.06957,1.55693,-1.05759,-0.76132,-3.99495,-2.41276,21.74189,15.91204,8.42958,0.69523,-0.45174,-0.55893,0.01328,-8.88900,17.44682,-66.93336
-0.24138,1.96402,-0.34382,2.47469,1.82617,-0.88330,-1.23140,-3.44550,-3.60662,23.94366,14.02259,10.71985,0.67635,-0.49664,-0.54384,-0.01154,-3.50941,27.70194,-71.58837
-0.18710,1.99935,-0.34683,2.82069,1.99774,-0.72103,-1.77985,-2.92585,-4.51206,25.81549,10.48041,11.94524,0.65423,-0.54263,-0.52595,-0.03036,-10.87794,33.49995,-75.14196
-0.12639,2.03361,-0.34621,3.19437,2.10862,-0.53505,-2.49338,-2.24993,-5.30532,27.97152,5.74260,14.86727,0.62348,-0.59376,-0.50702,-0.04063,-31.52960,49.56800,-69.84255
-0.05889,2.06624,-0.34158,3.59476,2.16419,-0.32456,-2.42198,-1.56238,-6.32322,30.14201,1.98726,16.49558,0.58179,-0.64032,-0.49720,-0.06558,12.35031,41.22818,-73.19759
0.01550,2.09632,-0.33343,4.01845,2.16234,-0.10454,-2.15073,-1.05088,-7.52832,31.44007,-2.65705,15.87284,0.52953,-0.68725,-0.48699,-0.10063,41.53492,14.83982,-85.34080
0.09710,2.12148,-0.32196,4.46420,2.07415,0.11999,-1.78777,-0.68415,-8.84152,32.52878,-11.03543,16.37291,0.46590,-0.73336,-0.47390,-0.14331,35.27446,-2.35574,-94.81229
0.18494,2.13680,-0.30690,4.90899,1.83567,0.35219,-1.62453,-0.27889,-9.88776,30.38270,-23.19666,16.43970,0.39507,-0.77624,-0.45686,-0.18070,30.09736,6.79621,-83.76415
0.27339,2.14233,-0.29017,5.25060,1.49263,0.55367,-1.31187,-0.15514,-10.44867,26.11703,-33.47945,18.37985,0.32807,-0.80782,-0.43801,-0.21894,19.39578,5.25302,-59.11073
0.36798,2.12744,-0.26429,5.61352,0.88273,0.86464,-0.40651,-0.15614,-11.09717,18.61168,-43.09767,21.57650,0.25280,-0.82549,-0.42655,-0.26965,42.85457,-41.23906,-35.26279
0.45760,2.10208,-0.23292,5.80830,0.22969,1.19961,0.46399,0.42918,-11.42154,9.69525,-50.54136,25.59430,0.16963,-0.83591,-0.42396,-0.30453,54.89234,-9.97162,-32.71043
0.54298,2.06200,-0.19584,5.88521,-0.51957,1.55122,2.04290,0.92156,-11.56910,0.66290,-56.99425,23.43178,0.08080,-0.82662,-0.43913,-0.34254,111.37480,-34.84230,-18.19464
0.62212,2.01373,-0.15993,5.83596,-1.21622,1.79283,2.89623,1.84740,-11.40672,-8.79564,-58.45761,14.80991,-0.00856,-0.81810,-0.45059,-0.35723,99.61597,-31.19227,-13.49355
0.68595,1.95434,-0.11877,5.65443,-2.02057,1.97997,3.50866,2.65345,-10.96124,-16.37080,-58.06989,11.46797,-0.09200,-0.80538,-0.46196,-0.35986,99.75008,34.11274,36.81464
0.74414,1.88546,-0.08027,5.38153,-2.80968,2.06752,3.80326,1.94969,-10.76598,-21.81158,-56.78838,3.28090,-0.15821,-0.78177,-0.45757,-0.39299,-2.70570,-53.42867,4.31029
0.79253,1.79314,-0.04698,4.94021,-3.78237,2.08368,3.69947,1.60625,-10.95986,-29.51948,-54.04197,-2.89574,-0.23088,-0.75839,-0.43940,-0.42245,-32.74567,-20.85866,-19.02253
0.83888,1.70347,-0.01805,4.54489,-4.42412,2.07671,4.25080,2.35762,-10.95702,-36.90350,-52.95890,-1.39355,-0.31842,-0.72970,-0.43365,-0.42201,42.85714,26.72189,3.99594
0.86902,1.60025,0.01163,3.97115,-5.12880,2.08373,5.93981,3.46847,-10.94335,-46.52434,-47.87059,0.42017,-0.42304,-0.67898,-0.44776,-0.39942,129.91510,3.68336,-13.02111
0.88798,1.49659,0.04088,3.35670,-5.66959,2.08555,7.95336,3.65690,-10.68906,-55.72525,-41.34917,0.01135,-0.51656,-0.60367,-0.47587,-0.37722,150.04580,-58.40046,-28.51291
0.87719,1.38328,0.06831,2.38159,-6.23458,2.04890,10.39384,2.42448,-10.00273,-65.20135,-29.09085,-2.96484,-0.58430,-0.49596,-0.53049,-0.36220,107.92410,-146.15410,-47.49727
0.86308,1.28092,0.09151,1.58613,-6.48706,1.95472,10.69328,0.61185,-9.76213,-66.92204,-13.45240,-8.82181,-0.62412,-0.39909,-0.55555,-0.37758,-24.97356,-139.13060,-79.61012
0.82963,1.18753,0.11027,0.66871,-6.52840,1.81391,10.41568,-1.38977,-8.89805,-63.58488,6.75955,-9.83614,-0.63326,-0.31118,-0.58706,-0.39689,-90.17897,-109.89160,-48.42605
0.78795,1.10823,0.12657,-0.17124,-6.32791,1.66685,8.86117,-3.27172,-8.13643,-56.49762,19.84733,-9.82637,-0.61935,-0.24413,-0.60599,-0.43541,-146.59240,-91.80968,-27.01161
0.74364,1.04149,0.14059,-0.85843,-5.96873,1.51752,6.36238,-4.32751,-7.89970,-43.13708,29.72295,-10.26175,-0.60024,-0.19891,-0.59863,-0.49173,-187.26210,-2.16460,-63.33493
0.70163,0.98499,0.15323,-1.35013,-5.52824,1.38109,3.34665,-3.78654,-7.49851,-29.86636,32.71661,-9.94507,-0.58787,-0.19531,-0.56464,-0.54539,-185.47810,104.75070,-15.30566
0.66161,0.93440,0.16386,-1.69872,-5.09699,1.24630,0.89369,-2.45576,-7.28560,-22.44734,29.79939,-10.40074,-0.58674,-0.20493,-0.51341,-0.59173,-134.78350,167.16110,2.80221
0.62214,0.88332,0.17396,-1.95603,-4.77736,1.13420,-0.36979,-1.35111,-7.23103,-20.97014,25.41891,-9.39513,-0.59233,-0.20223,-0.46371,-0.62708,-70.45285,153.47170,-3.96357
0.57376,0.83850,0.18047,-2.29786,-4.42738,0.98881,-0.90203,-0.89462,-7.65840,-19.92909,21.78570,-9.97853,-0.59752,-0.17646,-0.41451,-0.66333,-21.82766,59.16404,-33.06502
0.52508,0.79515,0.18529,-2.56887,-4.12410,0.84724,-0.50211,-1.46218,-7.70342,-15.91603,23.62465,-11.14308,-0.59742,-0.12610,-0.39315,-0.68748,7.97050,-37.07008,-6.13645
0.47944,0.75830,0.18656,-2.72616,-3.78441,0.67944,-0.06882,-2.18874,-7.19480,-5.11023,25.34760,-12.66760,-0.59152,-0.07793,-0.38737,-0.70283,1.90357,-59.28817,21.12747
0.44120,0.72900,0.18348,-2.72412,-3.39364,0.47339,0.20665,-2.23239,-5.90790,4.57918,23.16631,-12.51869,-0.58873,-0.05589,-0.39065,-0.70545,-1.31925,-27.45284,76.44366
0.40935,0.69919,0.18000,-2.61699,-3.09828,0.30690,0.24177,-1.38392,-4.94662,7.97105,19.31390,-11.02753,-0.59570,-0.05305,-0.37716,-0.70716,11.24195,41.69525,81.82292
0.38004,0.67122,0.17580,-2.49484,-2.84135,0.16649,0.24368,-0.11099,-4.48585,7.60348,18.39161,-9.07927,-0.61071,-0.05827,-0.34636,-0.70970,25.03828,88.05861,39.97057
0.35001,0.64658,0.17148,-2.41481,-2.58893,0.05722,0.26682,0.85676,-4.25825,4.08572,17.73304,-6.40985,-0.62505,-0.06130,-0.31231,-0.71276,22.20779,75.08195,21.78865
0.31786,0.62517,0.16789,-2.38918,-2.34115,-0.01374,0.36247,1.11100,-4.08125,0.97340,18.44829,-4.14854,-0.63452,-0.05389,-0.28659,-0.71578,16.53017,32.83472,10.04222
0.28377,0.60817,0.16484,-2.40261,-2.07774,-0.06010,0.40074,0.75465,-3.88601,-1.76676,19.14597,-2.50761,-0.63689,-0.03668,-0.27227,-0.72035,2.85556,-20.84276,17.47105
0.24907,0.59742,0.16173,-2.42307,-1.76552,-0.09773,0.24511,0.30581,-3.96886,-0.01692,20.03922,-2.16736,-0.63358,-0.01325,-0.25547,-0.73016,-15.86053,-25.86357,-8.79212
0.21621,0.58653,0.15864,-2.40724,-1.53126,-0.12664,0.12495,0.13093,-3.94717,2.68988,19.20392,-2.76177,-0.63132,0.00529,-0.23738,-0.73828,-17.79940,-19.56419,1.41138
0.18673,0.58023,0.15421,-2.33836,-1.27887,-0.17109,0.16427,0.14176,-3.70496,7.06449,17.31247,-3.65724,-0.63277,0.01792,-0.22151,-0.74176,-1.48671,-1.33075,8.48951
0.16049,0.57561,0.14912,-2.23249,-1.05759,-0.21533,0.38359,0.24089,-3.25946,7.77560,14.83377,-2.67663,-0.63902,0.02514,-0.20997,-0.73955,14.01217,2.57895,33.20021
0.13566,0.57266,0.14439,-2.12817,-0.85978,-0.24336,0.64629,0.24978,-2.93187,6.96219,14.14206,-1.45638,-0.64669,0.03460,-0.19929,-0.73545,20.56004,-0.56131,26.54180
0.11131,0.57236,0.14031,-2.04031,-0.66351,-0.25417,0.81504,0.08455,-2.79726,5.99283,14.24487,0.02885,-0.65215,0.04961,-0.18908,-0.73245,13.16478,-10.68936,11.38274
0.08821,0.57523,0.13741,-1.95144,-0.45999,-0.24277,0.78622,0.08391,-2.91661,6.41774,15.08232,2.03953,-0.65445,0.06513,-0.17191,-0.73342,-0.90485,-13.12024,0.49595
0.06728,0.57965,0.13547,-1.84830,-0.28141,-0.21879,0.62622,0.44926,-3.10886,10.16418,14.42073,2.68115,-0.65560,0.07357,-0.14476,-0.73744,-4.11830,28.15288,-21.86697
0.05183,0.58858,0.13545,-1.67899,-0.07067,-0.16860,0.29636,0.73786,-2.90769,11.56412,11.34729,3.45588,-0.65259,0.07370,-0.12527,-0.74364,-15.44989,25.42585,9.16937
0.03759,0.59655,0.13601,-1.52683,0.07924,-0.12010,0.01609,0.76041,-2.51601,10.52874,10.38646,3.25279,-0.64823,0.07367,-0.11539,-0.74904,-17.94864,6.56616,30.38940
0.02481,0.60574,0.13682,-1.38569,0.21463,-0.07889,-0.26810,0.78626,-2.36287,9.94615,9.26716,2.55159,-0.64180,0.07601,-0.10219,-0.75622,-18.57559,6.04239,14.96765
0.01478,0.61666,0.13744,-1.22833,0.34875,-0.05053,-0.60037,0.68112,-2.20913,10.04151,7.57936,0.79182,-0.63221,0.08008,-0.09232,-0.76510,-22.69323,-3.17462,11.15659
0.00567,0.62672,0.13692,-1.09023,0.43799,-0.04819,-0.77739,0.52778,-2.04932,9.91091,5.44958,-0.65842,-0.62407,0.08540,-0.08452,-0.77207,-15.93611,-6.70415,11.55850
-0.00371,0.63554,0.13573,-0.99354,0.48315,-0.05708,-0.79928,0.37912,-1.92656,9.82185,3.99678,-1.43709,-0.61824,0.09194,-0.07737,-0.77675,-8.60327,-11.38603,12.77091
-0.00703,0.64540,0.13325,-0.81824,0.53478,-0.08639,-0.72376,0.08399,-1.60845,9.99904,2.11691,-1.75480,-0.61457,0.09875,-0.07858,-0.77870,2.78500,-16.18370,18.04487
-0.01129,0.65427,0.13092,-0.69728,0.55903,-0.10641,-0.71374,-0.09304,-1.36308,10.40928,1.90542,-1.59669,-0.61002,0.10428,-0.07885,-0.78153,2.17975,-15.02976,20.52448
-0.01205,0.66349,0.12818,-0.54822,0.58277,-0.12842,-0.76210,-0.18826,-1.11871,10.84419,1.28980,-1.38602,-0.60444,0.10770,-0.08003,-0.78527,-3.94106,-9.57846,19.61267
-0.00920,0.67202,0.12508,-0.36972,0.58916,-0.15133,-0.77426,-0.11334,-0.87857,11.48076,-0.43095,-1.34502,-0.59998,0.10694,-0.07951,-0.78884,-1.56778,3.68134,14.05423
-0.00489,0.67946,0.12202,-0.20595,0.57566,-0.16842,-0.74292,0.02002,-0.56777,12.19627,-1.49291,-1.02133,-0.59702,0.10238,-0.08028,-0.79160,1.54037,9.26001,18.88656
0.00103,0.68640,0.11903,-0.05676,0.55728,-0.17977,-0.70972,0.24253,-0.27728,12.69852,-1.58958,-0.71467,-0.59477,0.09393,-0.08026,-0.79434,3.46609,14.63893,24.92853
0.01089,0.69266,0.11596,0.12223,0.53253,-0.19039,-0.66275,0.64768,0.00224,12.75614,-1.88784,-0.68442,-0.59371,0.07874,-0.07731,-0.79708,3.41300,27.40587,20.36471
0.02437,0.69795,0.11261,0.32366,0.49668,-0.20389,-0.51854,1.26472,0.17431,12.51056,-2.45636,-1.11741,-0.59548,0.05756,-0.06763,-0.79845,8.61373,38.34125,9.90874
0.03742,0.70294,0.10887,0.46856,0.46428,-0.21986,-0.38768,1.69703,0.30926,11.93731,-2.98488,-1.68248,-0.59737,0.03723,-0.05859,-0.79896,10.96911,39.35623,7.56802
0.05315,0.70674,0.10441,0.62468,0.42120,-0.24412,-0.23580,2.10444,0.49290,11.00948,-3.22161,-2.04450,-0.60052,0.01349,-0.04988,-0.79794,11.86187,32.37754,9.67291
0.07138,0.70993,0.09906,0.78881,0.37778,-0.27852,-0.13368,2.37672,0.78721,10.22210,-2.40157,-2.51066,-0.60305,-0.01197,-0.04559,-0.79631,8.98191,19.82866,16.18451
0.09120,0.71349,0.09287,0.94404,0.34938,-0.31914,-0.13046,2.48146,1.18785,9.67410,-1.40754,-2.74374,-0.60335,-0.03788,-0.04719,-0.79518,3.99250,8.51677,23.66135
0.11045,0.71760,0.08660,1.05424,0.33832,-0.35083,-0.15286,2.51321,1.52361,9.19319,-0.53275,-2.62576,-0.60251,-0.06328,-0.05044,-0.79400,2.43522,3.79640,27.51149
0.13212,0.72227,0.07955,1.17780,0.34029,-0.38795,-0.21443,2.57870,1.91480,8.64489,0.76350,-2.67760,-0.60002,-0.09217,-0.05626,-0.79267,0.32979,2.98504,29.50511
0.15604,0.72793,0.07143,1.30986,0.35780,-0.43545,-0.27502,2.72950,2.25564,7.94543,1.53592,-3.27126,-0.59653,-0.12392,-0.06108,-0.79061,-1.81725,9.18683,21.87670
0.17959,0.73416,0.06285,1.40139,0.37945,-0.47902,-0.29369,2.91125,2.43247,7.14709,2.35016,-3.92352,-0.59323,-0.15562,-0.06281,-0.78735,-0.34026,11.86232,19.01391
0.20399,0.74114,0.05309,1.48274,0.40789,-0.53060,-0.27294,3.14612,2.49142,6.26818,2.71697,-4.66193,-0.59037,-0.18823,-0.06099,-0.78250,-1.25310,19.25496,8.03275
0.23061,0.75004,0.04034,1.58347,0.46300,-0.62185,-0.19956,3.46074,2.59796,4.94496,3.64456,-5.57950,-0.58796,-0.22461,-0.05824,-0.77489,1.51841,18.56736,4.79721
0.25563,0.75933,0.02777,1.63442,0.51201,-0.68920,-0.15012,3.64079,2.69281,3.64605,4.57894,-5.70518,-0.58460,-0.25944,-0.05695,-0.76661,4.01933,16.14835,6.71036
0.28054,0.77007,0.01415,1.66997,0.57238,-0.75628,-0.12314,3.81447,2.75777,2.28812,5.65666,-5.53585,-0.58031,-0.29480,-0.05473,-0.75719,2.64880,14.98560,5.50676
0.30343,0.77930,-0.00220,1.68797,0.66788,-0.84249,-0.20588,3.98080,2.83427,0.56987,7.17155,-5.13277,-0.57260,-0.33126,-0.05202,-0.74812,-3.89862,10.53701,5.29456
0.32416,0.78647,-0.01900,1.67749,0.76440,-0.91321,-0.37965,4.06007,2.95147,-0.95709,8.25338,-4.90512,-0.56105,-0.36730,-0.05072,-0.74009,-10.03405,5.19947,9.51294
0.34419,0.79600,-0.03642,1.64523,0.87079,-0.98221,-0.57212,4.05275,3.12878,-2.61782,8.54426,-5.02082,-0.54648,-0.40288,-0.05188,-0.73236,-11.40851,-0.67219,14.48686
0.36426,0.81507,-0.05402,1.59487,0.98723,-1.04957,-0.72869,3.99148,3.29568,-4.74010,8.17023,-4.77388,-0.53061,-0.43706,-0.05423,-0.72421,-6.44372,-5.36190,16.23773
0.38205,0.83510,-0.07225,1.51903,1.09314,-1.11280,-0.87864,3.92821,3.33462,-6.52876,7.26628,-4.33723,-0.51427,-0.46876,-0.05438,-0.71612,-8.29409,-6.26268,8.07297
0.39663,0.85643,-0.09150,1.40473,1.19705,-1.17802,-1.07968,3.85830,3.21784,-8.07624,5.99662,-3.92469,-0.49712,-0.49741,-0.05059,-0.70915,-11.81041,-7.00030,-2.14604
