posX, posY, posZ, velX, velY, velZ, angVelX, angVelY, angVelZ, accX, accY, accZ, rotX, rotY, rotZ, rotW, angAccX, angAccY, angAccZ
0.01641,1.31735,-0.61203,-0.23053,-0.10955,0.09717,-0.79777,0.18776,-0.04035,2.00391,-1.93833,0.23583,-0.22502,-0.91060,-0.16329,-0.30578,7.00997,1.66334,-11.13996
0.01484,1.31441,-0.60990,-0.20212,-0.13534,0.10726,-0.49763,0.28613,-0.20998,1.59277,-1.26365,0.70966,-0.23146,-0.91012,-0.16360,-0.30222,18.49019,5.62792,-11.67686
0.01311,1.31180,-0.60757,-0.18285,-0.14908,0.11965,-0.20350,0.36355,-0.32853,1.23389,-0.71607,1.02054,-0.23812,-0.90939,-0.16565,-0.29811,20.76122,5.29450,-9.47354
0.01142,1.30932,-0.60490,-0.16812,-0.15655,0.13564,0.02904,0.38255,-0.40927,1.00842,-0.34697,1.50577,-0.24446,-0.90829,-0.16834,-0.29481,19.08022,3.12856,-7.35531
0.00967,1.30703,-0.60199,-0.15813,-0.15886,0.15164,0.12867,0.32320,-0.44472,0.75540,0.01741,1.45505,-0.24909,-0.90706,-0.16978,-0.29387,10.57076,-3.66713,-4.03200
0.00796,1.30507,-0.59856,-0.14981,-0.15482,0.17294,0.17146,0.19962,-0.43074,0.28089,0.42158,1.00304,-0.25200,-0.90562,-0.17127,-0.29497,2.92813,-6.92347,0.46862
0.00599,1.30342,-0.59546,-0.14745,-0.14856,0.18116,0.11893,0.12550,-0.39180,0.14645,0.63161,0.41038,-0.25352,-0.90498,-0.17061,-0.29601,-3.12472,-7.16713,2.28438
0.00394,1.30212,-0.59252,-0.14721,-0.13820,0.18402,0.04413,0.08666,-0.33916,-0.11835,0.85615,-0.07273,-0.25419,-0.90482,-0.16909,-0.29680,-5.67388,-3.68955,3.59126
0.00169,1.30107,-0.58994,-0.15064,-0.12494,0.18128,-0.01326,0.09705,-0.27471,-0.34793,1.04032,-0.45090,-0.25440,-0.90518,-0.16748,-0.29643,-4.38924,-0.08340,4.67961
-0.00072,1.30043,-0.58744,-0.15595,-0.10954,0.17563,-0.04655,0.13924,-0.19913,-0.45440,1.14949,-0.46719,-0.25417,-0.90599,-0.16613,-0.29492,-2.64822,3.29946,5.03801
-0.00321,1.29988,-0.58502,-0.16140,-0.09589,0.17087,-0.09124,0.14705,-0.13143,-0.45218,1.09159,-0.36588,-0.25336,-0.90677,-0.16453,-0.29412,-2.43823,1.90941,5.87021
-0.00580,1.29956,-0.58275,-0.16704,-0.08112,0.16580,-0.13584,0.13360,-0.06243,-0.42676,0.96294,-0.37525,-0.25182,-0.90758,-0.16292,-0.29384,-3.64219,-0.29272,5.41602
-0.00845,1.29935,-0.58062,-0.17279,-0.06754,0.15947,-0.18842,0.09370,-0.01734,-0.34622,0.69467,-0.58026,-0.25019,-0.90815,-0.16099,-0.29453,-3.69725,-2.85196,3.66408
-0.01107,1.29898,-0.57868,-0.17640,-0.05942,0.15228,-0.18358,0.09272,-0.01562,-0.41357,0.63446,-0.89606,-0.24999,-0.90850,-0.15974,-0.29430,-1.55969,-1.88489,0.93809
-0.01392,1.29886,-0.57722,-0.18318,-0.04890,0.13897,-0.10782,0.15220,-0.03849,-0.48892,0.65777,-0.96658,-0.25135,-0.90886,-0.15976,-0.29203,4.77595,3.87185,-1.30678
-0.01682,1.29875,-0.57587,-0.18909,-0.04070,0.12685,-0.04756,0.20285,-0.05478,-0.53169,0.67010,-1.12006,-0.25274,-0.90924,-0.15983,-0.28958,5.18162,3.82491,-1.52511
-0.01993,1.29883,-0.57484,-0.19685,-0.03176,0.11217,0.01365,0.26526,-0.06457,-0.49078,0.65438,-0.98047,-0.25434,-0.90978,-0.16017,-0.28629,4.57415,5.21067,-1.30308
-0.02316,1.29901,-0.57404,-0.20483,-0.02247,0.09783,0.03446,0.28134,-0.05821,-0.61110,0.67469,-0.98362,-0.25518,-0.91025,-0.16018,-0.28401,2.80918,1.88528,0.15371
-0.02657,1.29933,-0.57349,-0.21408,-0.01312,0.08213,0.00137,0.28084,-0.03055,-0.71031,0.71715,-1.26780,-0.25490,-0.91103,-0.15913,-0.28237,-1.96083,-0.69022,1.62280
-0.03013,1.29976,-0.57314,-0.22342,-0.00415,0.06739,0.02013,0.31276,-0.01696,-0.86517,0.75016,-1.38490,-0.25535,-0.91180,-0.15896,-0.27954,-0.48264,1.30136,1.55175
-0.03405,1.30042,-0.57350,-0.23682,0.00697,0.04477,0.05370,0.36311,0.00008,-0.80556,0.58709,-1.55139,-0.25591,-0.91275,-0.15921,-0.27577,2.55843,3.30863,1.24800
-0.03799,1.30108,-0.57435,-0.24814,0.01606,0.01871,0.08860,0.44895,-0.00768,-0.73866,0.57927,-1.67703,-0.25729,-0.91385,-0.15912,-0.27084,1.87489,4.69011,-0.06832
-0.04196,1.30171,-0.57520,-0.25697,0.02268,-0.00076,0.08938,0.49830,0.00363,-0.68321,0.56021,-1.52747,-0.25793,-0.91506,-0.15862,-0.26641,2.11786,5.34153,0.32079
-0.04614,1.30255,-0.57675,-0.26731,0.03136,-0.02726,0.02813,0.53600,0.01839,-0.60482,0.52720,-1.59491,-0.25791,-0.91657,-0.15654,-0.26243,-2.58511,2.48030,0.98661
-0.05036,1.30349,-0.57841,-0.27575,0.03959,-0.04999,-0.09749,0.53876,0.03913,-0.64170,0.66545,-1.55940,-0.25690,-0.91830,-0.15260,-0.25969,-8.03870,0.85638,1.46560
-0.05461,1.30449,-0.57998,-0.28269,0.04682,-0.06503,-0.19634,0.53567,0.06381,-0.71141,0.78682,-1.41618,-0.25554,-0.92007,-0.14858,-0.25709,-9.69111,0.10939,2.64965
-0.05934,1.30625,-0.58211,-0.29580,0.06521,-0.08583,-0.24943,0.56413,0.09368,-0.80883,1.32862,-1.09066,-0.25411,-0.92205,-0.14485,-0.25353,-5.23118,0.56565,1.86567
-0.06412,1.30838,-0.58376,-0.30724,0.08580,-0.09413,-0.13861,0.62013,0.11252,-0.84568,1.64956,-0.46004,-0.25422,-0.92353,-0.14506,-0.24784,5.93733,4.16077,1.01198
-0.06907,1.31098,-0.58519,-0.31879,0.10961,-0.09676,0.05133,0.66992,0.11592,-0.81061,1.80436,-0.17132,-0.25544,-0.92448,-0.14801,-0.24122,12.69021,3.42621,0.42131
-0.07409,1.31402,-0.58658,-0.32893,0.13562,-0.09812,0.23478,0.71314,0.11640,-0.68735,1.88450,-0.01425,-0.25704,-0.92521,-0.15201,-0.23410,15.00428,4.22008,-1.17855
-0.07920,1.31742,-0.58803,-0.33839,0.16183,-0.10039,0.32597,0.71735,0.12461,-0.60307,1.84994,-0.07873,-0.25791,-0.92598,-0.15496,-0.22809,8.02228,1.09986,0.09140
-0.08427,1.32097,-0.58960,-0.34455,0.18362,-0.10387,0.32973,0.68720,0.12720,-0.42400,1.78517,-0.25738,-0.25824,-0.92678,-0.15636,-0.22350,3.11403,-1.06037,0.11419
-0.08947,1.32517,-0.59161,-0.35137,0.21193,-0.11344,0.24659,0.62519,0.12936,-0.51587,1.78401,-0.81643,-0.25773,-0.92770,-0.15570,-0.22069,-4.64400,-4.84918,0.60967
-0.09486,1.32960,-0.59404,-0.36010,0.23791,-0.12785,0.15506,0.61488,0.11955,-0.88875,2.06179,-1.36137,-0.25752,-0.92890,-0.15387,-0.21716,-7.77282,-2.40965,-0.28308
-0.10061,1.33454,-0.59664,-0.37254,0.26547,-0.14156,0.17554,0.70030,0.08808,-1.34543,2.67799,-1.28208,-0.25899,-0.93008,-0.15358,-0.21043,-2.97753,4.37601,-1.35886
-0.10703,1.34088,-0.59910,-0.39343,0.31032,-0.14971,0.41875,0.86986,0.03572,-1.76503,3.90194,-0.41514,-0.26330,-0.93054,-0.15861,-0.19903,12.30255,11.50130,-4.36788
-0.11442,1.34923,-0.60089,-0.42594,0.37916,-0.14506,0.84603,1.02716,0.03810,-2.21086,4.77067,0.65182,-0.26806,-0.93005,-0.17035,-0.18475,26.18596,11.37978,-2.20678
-0.12253,1.35886,-0.60227,-0.46368,0.45486,-0.13431,1.18030,1.10332,0.12590,-2.27438,4.67130,0.91910,-0.27013,-0.92963,-0.18295,-0.17130,23.97353,5.69061,3.48855
-0.13053,1.36812,-0.60375,-0.49054,0.50644,-0.12780,1.19325,1.03313,0.26767,-1.91772,3.94781,0.88833,-0.26810,-0.93024,-0.19048,-0.16278,11.41924,-0.90232,8.25320
-0.13890,1.37812,-0.60543,-0.51680,0.55779,-0.12632,1.03847,0.90639,0.44489,-1.88752,3.43211,-0.30479,-0.26268,-0.93191,-0.19435,-0.15741,-10.73657,-13.16220,13.89816
-0.14757,1.38873,-0.60744,-0.54242,0.60768,-0.13102,0.94827,0.90824,0.55619,-1.64064,2.86315,-0.49688,-0.25859,-0.93363,-0.19804,-0.14917,-5.83621,-1.58891,8.13835
-0.15611,1.39901,-0.60946,-0.55988,0.64028,-0.13474,0.92105,0.95719,0.60046,-1.49285,2.67918,-0.30720,-0.25608,-0.93493,-0.20223,-0.13944,-3.06069,2.66160,5.08129
-0.16489,1.40968,-0.61135,-0.57645,0.67039,-0.13509,0.95987,1.02636,0.61092,-1.40823,2.43124,0.01080,-0.25463,-0.93571,-0.20767,-0.12840,0.74004,4.51703,2.54474
-0.17405,1.42121,-0.61288,-0.59543,0.71238,-0.12568,1.11891,1.17546,0.52548,-0.85714,2.32977,1.01829,-0.25679,-0.93521,-0.21542,-0.11416,8.35907,9.97887,-4.23108
-0.18283,1.43239,-0.61407,-0.60452,0.74138,-0.11105,1.21188,1.22582,0.45646,-0.77605,2.76344,1.53437,-0.25855,-0.93440,-0.22283,-0.10201,7.46324,5.98570,-6.41828
-0.19179,1.44431,-0.61457,-0.61485,0.77583,-0.08906,1.34475,1.27532,0.41533,-0.85253,3.33072,2.15134,-0.26031,-0.93302,-0.23193,-0.08898,9.66769,4.85875,-5.11278
-0.20124,1.45839,-0.61346,-0.62999,0.83311,-0.04832,1.52205,1.26390,0.44353,-0.94380,3.92284,2.98928,-0.26032,-0.93113,-0.24376,-0.07624,11.77592,1.19285,-0.30165
-0.21100,1.47359,-0.61133,-0.64712,0.89702,0.00043,1.68730,1.21432,0.52243,-1.14985,4.15878,3.11818,-0.25837,-0.92912,-0.25666,-0.06413,10.24376,-4.15007,4.09420
-0.22072,1.48883,-0.60906,-0.65937,0.94547,0.03950,1.86163,1.24097,0.53490,-1.08816,4.02360,3.21978,-0.25814,-0.92622,-0.27012,-0.05017,12.78922,-0.22686,1.75447
-0.23066,1.50485,-0.60606,-0.67190,0.99954,0.08602,2.09460,1.32545,0.48016,-0.91931,3.81825,3.40688,-0.26024,-0.92171,-0.28561,-0.03404,16.10887,6.01900,-3.15515
-0.24074,1.52166,-0.60225,-0.68377,1.05849,0.13951,2.30947,1.43609,0.41685,-0.56049,3.79317,3.58083,-0.26316,-0.91627,-0.30152,-0.01649,14.31265,8.80929,-4.48346
-0.25077,1.53923,-0.59759,-0.69224,1.11279,0.19225,2.45435,1.48660,0.40394,-0.52434,4.06450,4.30293,-0.26468,-0.91075,-0.31697,0.00018,9.79513,6.13171,-2.54219
-0.26098,1.55766,-0.59162,-0.70110,1.16877,0.25431,2.58956,1.49462,0.44217,-0.63249,4.16929,4.69806,-0.26448,-0.90484,-0.33323,0.01656,9.33892,-0.60970,1.79224
-0.27131,1.57685,-0.58427,-0.70964,1.22438,0.32613,2.84028,1.60534,0.45885,-0.67418,3.97589,5.53097,-0.26531,-0.89675,-0.35229,0.03672,15.54707,6.04124,0.93641
-0.28168,1.59657,-0.57525,-0.71744,1.27393,0.40780,3.07801,1.67122,0.48884,-0.29032,3.15269,6.35525,-0.26531,-0.88749,-0.37245,0.05699,18.93856,7.95410,1.16804
-0.29169,1.61627,-0.56407,-0.72098,1.31246,0.49872,3.25423,1.65046,0.54082,-0.20463,2.67125,6.84046,-0.26366,-0.87781,-0.39271,0.07556,12.34782,-0.36914,1.56825
-0.30165,1.63601,-0.55115,-0.72289,1.34214,0.59828,3.46209,1.63516,0.61884,-0.08130,1.74919,7.28556,-0.26061,-0.86676,-0.41447,0.09503,15.80898,-1.72738,3.51386
-0.31153,1.65548,-0.53695,-0.72140,1.35837,0.69798,3.58256,1.52988,0.74937,0.50246,0.62265,7.13347,-0.25453,-0.85606,-0.43557,0.11253,12.50817,-6.24282,6.55800
-0.32106,1.67443,-0.52257,-0.71306,1.36128,0.77866,3.63974,1.39538,0.86313,0.95005,-0.24984,6.59909,-0.24718,-0.84538,-0.45579,0.12837,6.42447,-13.28903,6.39227
-0.32960,1.69240,-0.50604,-0.68967,1.34713,0.87702,3.66536,1.22984,0.94460,1.92377,-1.59064,5.87926,-0.23902,-0.83445,-0.47569,0.14241,3.65266,-10.89965,3.55605
-0.33737,1.70939,-0.48947,-0.65823,1.31799,0.95343,3.67144,1.14280,0.92905,2.45877,-2.72091,5.12178,-0.23318,-0.82246,-0.49471,0.15636,0.92826,-8.07265,-1.42900
-0.34416,1.72506,-0.47255,-0.61689,1.27365,1.01847,3.63615,1.09614,0.82953,3.25469,-3.77987,4.34743,-0.22969,-0.80985,-0.51256,0.16935,-2.19981,-3.40285,-5.15744
-0.35024,1.73977,-0.45559,-0.57436,1.22396,1.06762,3.61756,1.14101,0.66252,3.67195,-4.74846,3.86354,-0.22944,-0.79560,-0.52998,0.18300,-3.31704,3.96204,-11.36465
-0.35490,1.75253,-0.43825,-0.51796,1.15466,1.11283,3.53463,1.12334,0.41951,4.31328,-5.10031,2.78768,-0.23158,-0.78139,-0.54638,0.19305,-5.92468,2.35713,-15.40635
-0.35837,1.76345,-0.42126,-0.45122,1.07116,1.15117,3.58681,1.35515,0.17670,4.02846,-5.40352,2.24692,-0.23783,-0.76311,-0.56351,0.20870,-0.11110,17.16293,-13.83964
-0.36181,1.77367,-0.40434,-0.39885,0.99308,1.17807,3.69637,1.49966,0.05475,3.45920,-5.42571,2.04298,-0.24136,-0.74358,-0.58168,0.22469,4.08983,12.00952,-7.83413
-0.36485,1.78258,-0.38653,-0.35587,0.90976,1.20508,3.97839,1.76654,0.07597,2.73583,-6.22080,1.67581,-0.24317,-0.71950,-0.60181,0.24702,18.92916,19.02839,1.01429
-0.36782,1.79002,-0.36919,-0.32158,0.82085,1.21778,4.14964,1.87864,0.15797,2.67961,-6.78338,0.24797,-0.24202,-0.69609,-0.62059,0.26785,17.60422,11.16392,6.95472
-0.37039,1.79565,-0.35315,-0.28818,0.72052,1.20536,3.98884,1.67469,0.24352,2.14848,-6.37501,-1.50805,-0.23758,-0.67945,-0.63488,0.28075,-4.31251,-9.63331,3.72113
-0.37339,1.80198,-0.33796,-0.26947,0.65660,1.18134,3.66157,1.35380,0.34581,1.47497,-5.00287,-2.28054,-0.23089,-0.66796,-0.64568,0.28917,-21.41002,-25.38014,2.17703
-0.37640,1.80785,-0.32382,-0.25470,0.60036,1.14810,3.19344,0.86989,0.52532,0.97412,-3.45590,-2.18275,-0.21943,-0.66329,-0.65280,0.29283,-31.74376,-34.77106,6.80542
-0.37950,1.81370,-0.30974,-0.24475,0.55672,1.12142,2.73953,0.32037,0.73126,0.58908,-3.02867,-1.17934,-0.20390,-0.66235,-0.65850,0.29341,-31.64420,-42.99590,8.61215
-0.38260,1.81847,-0.29461,-0.23915,0.50569,1.11456,2.48163,-0.19911,0.90699,0.30022,-3.96203,0.24795,-0.18531,-0.66043,-0.66609,0.29295,-20.46441,-40.02901,7.21327
-0.38573,1.82169,-0.27860,-0.23512,0.44023,1.12434,2.39307,-0.67787,1.01699,0.31170,-5.09027,1.28742,-0.16460,-0.65664,-0.67604,0.29103,-8.49020,-37.27629,3.70201
-0.38867,1.82328,-0.26166,-0.22908,0.36307,1.14719,2.44909,-1.12135,1.02675,0.48388,-5.65457,1.95035,-0.14269,-0.65017,-0.68893,0.28686,3.51111,-31.18932,-1.64724
-0.39148,1.82370,-0.24420,-0.22233,0.28500,1.17276,2.58764,-1.51134,0.98069,0.20159,-5.33137,1.81670,-0.11982,-0.64141,-0.70380,0.28090,10.30364,-29.50746,-7.46835
-0.39437,1.82330,-0.22650,-0.21841,0.21154,1.19633,2.82690,-1.76316,0.99568,0.09380,-5.09814,1.50583,-0.09556,-0.62917,-0.71979,0.27733,17.81241,-17.21791,-0.84440
-0.39754,1.82212,-0.20907,-0.22046,0.14213,1.20960,3.02395,-2.06092,0.98529,-0.27815,-5.02730,0.39384,-0.06931,-0.61665,-0.73586,0.27100,17.40148,-19.98686,-2.15589
-0.40093,1.82001,-0.19222,-0.22583,0.07339,1.20940,3.18292,-2.29145,0.95749,-0.66895,-5.04992,-0.51581,-0.04318,-0.60327,-0.75136,0.26392,12.97307,-16.56573,-3.49161
-0.40466,1.81699,-0.17618,-0.23588,0.00544,1.19583,3.32542,-2.42815,0.97232,-1.08783,-4.68928,-1.48133,-0.01691,-0.58863,-0.76592,0.25808,11.12377,-12.16273,-1.73384
-0.40862,1.81283,-0.16103,-0.24735,-0.06673,1.17021,3.54409,-2.30059,1.18469,-0.79819,-4.28459,-1.79154,0.00898,-0.56975,-0.77934,0.26065,10.93903,3.73255,14.02382
-0.41251,1.80848,-0.14629,-0.25496,-0.12605,1.14303,3.73218,-2.15630,1.39518,-0.37249,-4.29114,-2.17565,0.03471,-0.54931,-0.79176,0.26490,10.90126,8.91271,20.67103
-0.41636,1.80389,-0.13202,-0.26005,-0.17424,1.11468,3.85538,-2.10374,1.50391,-0.16255,-3.99621,-2.62347,0.06055,-0.52882,-0.80345,0.26673,9.56695,4.95996,14.65164
-0.42040,1.79797,-0.11937,-0.26737,-0.23380,1.06589,3.91959,-2.17804,1.51676,-0.49643,-3.80901,-3.58126,0.08733,-0.50918,-0.81428,0.26468,5.15647,-3.25329,1.52652
-0.42474,1.79168,-0.10765,-0.27816,-0.28621,1.01161,3.93509,-2.29154,1.48623,-1.02478,-3.76704,-4.24186,0.11439,-0.49020,-0.82389,0.26042,2.03047,-7.49242,-3.95329
-0.42940,1.78507,-0.09670,-0.29149,-0.33087,0.95812,3.95149,-2.36060,1.52624,-1.41445,-3.69000,-4.78664,0.14205,-0.47032,-0.83204,0.25755,2.18777,-6.82033,-0.67529
-0.43500,1.77696,-0.08808,-0.31811,-0.39050,0.87787,3.97096,-2.43424,1.69098,-2.34330,-3.80704,-5.38345,0.17203,-0.44955,-0.83799,0.25708,-0.05106,-6.32143,6.36725
-0.44149,1.76818,-0.08055,-0.35378,-0.44831,0.79666,4.01618,-2.52828,2.07033,-3.08349,-4.34355,-6.35098,0.20645,-0.42670,-0.84079,0.26150,1.01538,-10.14988,21.11219
-0.44822,1.75913,-0.07356,-0.38386,-0.49529,0.72817,4.05143,-2.67639,2.37719,-2.90259,-5.08804,-7.42702,0.24283,-0.40331,-0.84148,0.26512,-0.08458,-17.49046,28.47485
-0.45607,1.74714,-0.07172,-0.42463,-0.57869,0.59150,4.14900,-3.14191,2.56387,-1.40661,-5.41097,-9.62312,0.28735,-0.37975,-0.83942,0.26190,6.43968,-29.38427,14.15192
-0.46332,1.73440,-0.07361,-0.44685,-0.65766,0.41933,4.30238,-3.78875,2.36072,-0.48669,-4.64693,-12.02037,0.33366,-0.35730,-0.83717,0.24526,17.46810,-34.12627,-17.32183
-0.46952,1.72202,-0.07830,-0.44599,-0.71279,0.23788,4.47499,-4.32930,2.12891,0.54366,-3.09602,-14.14132,0.37955,-0.33341,-0.83307,0.22532,24.53270,-31.47580,-25.06971
-0.47467,1.71051,-0.08523,-0.42782,-0.73893,0.06482,4.52699,-4.73775,2.09797,2.06178,-1.13572,-15.30040,0.42578,-0.30954,-0.82415,0.20900,16.10776,-30.83340,-12.69627
-0.47791,1.70029,-0.09717,-0.38219,-0.73734,-0.14848,4.44010,-5.19216,2.12817,4.30897,1.47758,-15.81988,0.47407,-0.28845,-0.80922,0.19295,2.36146,-31.92596,-8.60861
-0.47857,1.69221,-0.11226,-0.30444,-0.70051,-0.36435,4.21137,-5.60250,2.16240,6.99134,3.77561,-15.46152,0.52153,-0.27084,-0.78927,0.17806,-9.60350,-31.24849,-7.97911
-0.47510,1.68710,-0.13139,-0.17357,-0.62163,-0.60062,3.99685,-5.97793,1.97179,9.72714,6.10881,-14.32267,0.56647,-0.25603,-0.76726,0.15769,-4.51620,-22.47950,-20.26059
-0.46883,1.68421,-0.15064,-0.02427,-0.52233,-0.78636,3.77872,-6.19952,1.76497,11.88421,8.23671,-12.52521,0.60751,-0.24215,-0.74394,0.13731,-5.47244,-14.38501,-21.64364
-0.45717,1.68552,-0.17169,0.18528,-0.37225,-0.96104,3.45058,-6.31773,1.54731,14.44303,10.88181,-9.64486,0.64484,-0.23198,-0.71859,0.11830,-10.86397,-7.56753,-22.37171
-0.44415,1.68852,-0.19067,0.36668,-0.22953,-1.05748,3.07471,-6.26404,1.37913,16.18791,13.39168,-7.24462,0.67746,-0.22361,-0.69319,0.10265,-18.96554,1.46773,-19.79348
-0.42573,1.69687,-0.20989,0.59416,-0.03220,-1.13381,2.30853,-6.21945,1.06754,16.54530,14.92259,-4.47592,0.70555,-0.22898,-0.66444,0.09101,-37.43709,6.31187,-40.44144
-0.40184,1.71025,-0.22855,0.86518,0.20774,-1.18281,1.34896,-6.21089,0.69636,17.56179,15.26501,-2.13383,0.73097,-0.24396,-0.63181,0.08357,-50.47634,1.30334,-40.66218
-0.37774,1.72361,-0.24631,1.07412,0.38893,-1.20513,0.84239,-6.26926,0.20793,18.04868,14.98865,-1.11396,0.75543,-0.25753,-0.59864,0.06801,-35.02042,-1.11066,-51.14947
-0.34785,1.74118,-0.26397,1.32806,0.59554,-1.21968,0.61241,-6.41159,-0.53599,18.91448,14.55644,-0.17256,0.77751,-0.27509,-0.56398,0.04151,-2.24215,-5.85174,-56.35488
-0.31120,1.76273,-0.28048,1.64327,0.82469,-1.21096,0.67161,-6.65916,-1.41854,21.06032,14.28131,1.97853,0.79761,-0.29383,-0.52676,0.00388,20.85376,-14.20653,-50.94759
-0.27310,1.78399,-0.29519,1.90648,0.99351,-1.17333,0.79860,-6.87084,-2.04958,23.18397,14.05041,4.60248,0.81575,-0.30969,-0.48729,-0.03457,31.04500,-17.54512,-46.63444
-0.22909,1.80777,-0.30693,2.19841,1.15952,-1.09583,0.88573,-7.02426,-2.66123,25.86271,13.94754,8.50193,0.82943,-0.32804,-0.44587,-0.07507,27.39343,-16.58893,-42.57473
-0.17302,1.83688,-0.31101,2.62363,1.37549,-0.90722,1.02827,-6.95982,-3.57714,28.02630,13.33224,15.38998,0.83287,-0.35415,-0.40729,-0.12255,31.75762,-2.21470,-46.61482
-0.11349,1.86655,-0.30844,3.01305,1.55324,-0.64816,0.97245,-6.61775,-4.52638,28.66877,12.60098,21.45908,0.82681,-0.38775,-0.37212,-0.16604,33.26231,18.07899,-54.79030
-0.05127,1.89664,-0.29988,3.35060,1.69399,-0.35460,0.71750,-5.99426,-5.56215,29.16933,11.33899,26.98749,0.80957,-0.43185,-0.34122,-0.20412,29.48917,41.09536,-73.90269
0.02274,1.92981,-0.27561,3.80554,1.85253,0.13330,0.51154,-4.76022,-7.20491,29.26873,8.66678,34.62433,0.76838,-0.49632,-0.32272,-0.24313,40.90796,66.80156,-93.73038
0.10313,1.96172,-0.23989,4.27718,1.95568,0.71649,0.75149,-3.05012,-9.11175,32.03201,3.61506,38.75818,0.70245,-0.56854,-0.31839,-0.28626,85.63799,81.87444,-102.35790
0.18672,1.98893,-0.20214,4.69036,1.95375,1.19321,1.22647,-1.59125,-10.71168,37.90256,-4.39311,41.15356,0.62253,-0.63602,-0.31471,-0.32998,112.70600,79.96097,-114.79990
0.28700,2.00578,-0.14748,5.33013,1.76921,1.84515,2.64623,0.08716,-12.58396,43.02591,-20.08232,42.22017,0.50688,-0.69812,-0.32572,-0.38679,138.19340,48.65168,-109.68210
0.39376,2.00897,-0.08896,5.96098,1.37336,2.41729,4.93456,0.63244,-13.91223,47.62307,-38.56084,42.24907,0.38066,-0.72651,-0.33266,-0.46543,151.15050,-45.79006,-101.42560
0.50809,1.99692,-0.02625,6.53477,0.80647,2.90965,7.13838,0.37057,-15.16188,49.33265,-58.16970,42.95591,0.23940,-0.72974,-0.32501,-0.55185,123.89400,-104.17840,-124.57660
0.64497,1.93842,0.05255,7.31394,-0.40642,3.55626,9.88773,-0.01170,-18.19974,47.45533,-99.57869,33.90012,0.03011,-0.70592,-0.29173,-0.64472,106.23270,-110.63740,-202.84010
0.77033,1.85110,0.12247,7.70248,-1.80745,3.89740,10.77532,0.97501,-21.04799,16.20858,-135.07770,17.85401,-0.19099,-0.68155,-0.22985,-0.66797,141.71330,49.12416,-239.22770
0.86520,1.70257,0.18141,7.47783,-3.87998,3.96827,11.79176,3.50143,-21.63725,-49.69724,-151.24510,-9.38761,-0.39225,-0.64570,-0.20233,-0.62311,205.30660,30.52563,-68.32720
0.89047,1.51657,0.21533,6.10267,-6.11272,3.58538,13.93235,4.28187,-18.01385,-115.47450,-116.44330,-32.98491,-0.51340,-0.58059,-0.26118,-0.57543,110.82160,-208.05330,90.15395
0.88937,1.36033,0.23704,4.62948,-7.30902,3.09535,15.82106,3.29081,-14.41612,-126.74170,-84.12307,-50.83087,-0.60008,-0.48960,-0.33288,-0.53794,-61.71585,-340.39140,39.65065
0.84807,1.19992,0.23535,2.85868,-8.27276,2.33887,20.43952,2.86320,-9.92051,-127.05900,-57.55707,-64.46196,-0.68724,-0.35628,-0.47365,-0.42002,155.27180,-391.67720,-40.02228
0.77072,1.04475,0.19934,0.87214,-8.93823,1.16158,28.16327,0.71190,-6.72405,-121.33790,-17.70229,-86.58371,-0.75241,-0.09532,-0.61414,-0.21822,346.91970,-253.18840,-275.16170
0.70087,0.92597,0.15634,-0.51484,-8.82886,0.15638,31.57974,-3.37667,-4.88568,-109.39350,29.91461,-70.51845,-0.71088,0.16376,-0.68164,-0.05649,393.65360,-204.27010,-352.05050
0.61628,0.85549,0.10707,-1.79532,-7.94011,-0.69092,26.74773,-7.91078,-6.09117,-78.06292,73.79292,-37.44518,-0.62801,0.32223,-0.70372,-0.08094,-81.02983,162.32760,-389.94940
0.54946,0.81520,0.08175,-2.48385,-6.77578,-0.93868,16.72531,-6.47954,-8.65807,-31.10887,75.28392,0.29857,-0.62812,0.32588,-0.66690,-0.23347,-423.62110,539.59410,-117.36020
0.50321,0.78260,0.08029,-2.67723,-5.74348,-0.73764,6.40879,-1.47168,-8.81436,1.17986,62.01315,18.00758,-0.66827,0.20570,-0.59107,-0.40217,-435.54110,673.42210,110.83750
0.46489,0.74316,0.08300,-2.70030,-5.05273,-0.51480,2.73513,-0.15509,-6.25964,1.29107,46.70131,16.07500,-0.67080,0.14518,-0.58105,-0.43741,-233.90760,239.97830,209.13080
0.42566,0.70535,0.08627,-2.74236,-4.50251,-0.33640,0.60372,0.33779,-4.54926,-5.43398,35.78806,10.42477,-0.66421,0.10760,-0.57717,-0.46273,-155.52750,75.47128,152.78820
0.38025,0.67067,0.08786,-2.88068,-4.02651,-0.22955,-0.49755,0.28003,-4.94045,-12.13401,33.06456,6.57778,-0.64819,0.11801,-0.55696,-0.50568,-76.87949,18.31885,-21.06015
0.33064,0.64009,0.08853,-3.05226,-3.59268,-0.16498,-1.56867,0.62307,-5.34293,-13.18112,31.03306,2.15909,-0.63304,0.12085,-0.52719,-0.55383,-81.16171,46.16126,-5.95610
0.28060,0.61562,0.08728,-3.19855,-3.15879,-0.14988,-2.27959,1.30464,-6.03840,-8.54324,31.81960,-0.68668,-0.62158,0.12747,-0.48120,-0.60485,-41.91017,51.13796,-57.38779
0.23361,0.59698,0.08382,-3.25605,-2.72678,-0.17544,-2.57285,2.44463,-6.41395,-0.94202,31.50957,-3.70623,-0.62081,0.12559,-0.42330,-0.64780,-8.98144,72.44876,-42.41359
0.19190,0.58287,0.07827,-3.20345,-2.32081,-0.23039,-2.37257,3.65035,-6.38919,8.81231,27.68415,-4.17211,-0.63032,0.11808,-0.36116,-0.67699,40.56334,86.11831,-29.40299
0.15707,0.57083,0.07161,-3.05123,-1.97591,-0.29179,-2.02558,4.11005,-5.42233,13.85508,22.32614,-4.30220,-0.63996,0.10254,-0.32418,-0.68909,48.48040,38.50272,35.08161
0.12473,0.55795,0.06460,-2.89402,-1.72930,-0.34192,-1.71865,4.33689,-4.42006,12.19629,19.67036,-3.93305,-0.64909,0.08359,-0.29526,-0.69608,55.20207,14.55197,78.28185
0.09618,0.55227,0.05650,-2.70789,-1.41927,-0.39940,-1.44396,4.82617,-3.66549,10.27396,19.19649,-3.38668,-0.66067,0.05882,-0.25948,-0.70194,38.69030,25.18275,42.19106
0.06782,0.54800,0.04803,-2.56143,-1.15356,-0.45119,-1.16086,5.55288,-3.44393,9.39840,19.24102,-4.16697,-0.67271,0.03446,-0.20894,-0.70895,32.70276,40.09476,12.73919
0.04115,0.54662,0.03820,-2.41920,-0.90137,-0.51219,-0.65562,6.64033,-3.66411,9.81936,17.44845,-4.64713,-0.68964,0.00929,-0.13828,-0.71077,39.87748,63.75989,-26.31805
0.01611,0.54708,0.02741,-2.27592,-0.67975,-0.57606,-0.03879,7.43077,-3.91117,11.33699,14.38690,-4.73400,-0.70650,-0.01246,-0.06509,-0.70460,44.71167,61.31736,-44.67860
-0.00681,0.54821,0.01629,-2.13288,-0.49900,-0.63002,0.47093,7.25311,-3.77715,11.50389,11.26375,-3.94435,-0.71903,-0.02531,-0.01454,-0.69437,36.23797,-0.55163,-17.35784
-0.02675,0.55091,0.00530,-1.96847,-0.33124,-0.66795,0.86635,6.06890,-3.22879,11.35271,9.58042,-1.43378,-0.72930,-0.02673,0.00523,-0.68365,24.01832,-72.20694,16.77295
-0.04497,0.55412,-0.00391,-1.80916,-0.19329,-0.66690,0.89340,4.67084,-2.58939,12.23473,9.55496,1.53568,-0.73384,-0.02442,0.01004,-0.67881,4.51340,-103.00760,38.29620
-0.06095,0.55800,-0.01167,-1.65217,-0.07916,-0.64121,0.72767,3.64889,-2.16014,13.65365,9.57238,3.13019,-0.73466,-0.02224,0.01581,-0.67789,-12.48188,-95.31662,40.78565
-0.06927,0.56491,-0.01749,-1.40018,0.05931,-0.58781,0.36104,2.79939,-1.62705,16.94773,7.80078,4.34960,-0.73101,-0.02302,0.01575,-0.68179,-18.57693,-61.32650,34.12877
-0.07335,0.57538,-0.02256,-1.13920,0.16653,-0.53842,-0.01161,2.60847,-1.22013,19.22447,5.70398,3.59532,-0.72537,-0.03286,0.02588,-0.68708,-29.47837,-19.24739,30.67677
-0.07135,0.58384,-0.02697,-0.83753,0.22213,-0.48843,-0.22697,3.49185,-0.47650,32.06862,2.83064,10.46445,-0.71999,-0.07114,0.04799,-0.68866,-10.94338,-8.09056,41.71228
-0.04570,0.59051,-0.02894,-0.20420,0.24718,-0.40919,-0.26816,6.39637,0.06199,36.86497,1.56004,-0.51014,-0.70903,-0.15374,0.11953,-0.67776,6.12806,225.16730,10.94101
-0.02817,0.59675,-0.03532,0.14602,0.29632,-0.42348,-0.40691,6.60804,0.97169,17.07836,4.67082,-4.98816,-0.69606,-0.20731,0.13777,-0.67345,17.78159,41.62264,80.12080
-0.01725,0.60253,-0.04464,0.29635,0.32422,-0.48298,-0.38854,6.48766,0.87249,9.36124,2.02062,-5.97906,-0.68696,-0.23829,0.16505,-0.66638,4.78731,-7.73950,14.19171
-0.00564,0.60747,-0.05626,0.42268,0.33095,-0.56675,-0.15782,5.37834,0.95005,7.50552,-1.12506,-5.80366,-0.68586,-0.25307,0.16866,-0.66114,8.70446,-52.72661,-8.16211
0.00571,0.61150,-0.06715,0.51542,0.32160,-0.61852,0.22323,3.87192,1.33988,6.94299,-0.10021,-2.48039,-0.69044,-0.26256,0.15080,-0.65697,44.26752,-110.04000,18.57986
0.01814,0.61633,-0.07741,0.60363,0.32803,-0.64626,0.36702,3.10799,1.56320,7.17064,1.28831,-0.41944,-0.69031,-0.27712,0.14182,-0.65312,33.40650,-85.25754,19.56127
0.03361,0.62224,-0.08735,0.72191,0.35141,-0.66195,0.19169,2.88879,1.53893,7.04357,2.10670,-0.18462,-0.68380,-0.29361,0.14562,-0.65192,-5.81800,-20.13433,0.62250
0.04935,0.62893,-0.09697,0.81695,0.38266,-0.66906,-0.04956,2.84225,1.56373,6.47742,2.01597,-0.48943,-0.67387,-0.31287,0.15226,-0.65179,-18.40565,-2.40420,1.08518
0.06443,0.63560,-0.10646,0.87669,0.40536,-0.67210,-0.18392,2.69702,1.67468,5.58263,2.39611,-0.71936,-0.66425,-0.33191,0.15443,-0.65173,-13.82781,-9.53503,9.77225
0.08180,0.64457,-0.11636,0.96023,0.46141,-0.68161,-0.37595,2.22953,1.95600,3.87475,3.53303,-0.77257,-0.65272,-0.34757,0.14632,-0.65707,-5.10667,-25.19883,16.33482
0.09802,0.65389,-0.12626,1.00658,0.51134,-0.68949,-0.45318,1.64688,2.23897,2.81774,3.54579,-1.01971,-0.64259,-0.36047,0.13239,-0.66303,-1.64710,-37.11862,20.53140
0.11390,0.66361,-0.13649,1.03576,0.55506,-0.70064,-0.39135,1.07265,2.49188,2.09325,3.82701,-1.15985,-0.63460,-0.37173,0.11375,-0.66795,11.10350,-47.15596,22.58832
0.13027,0.67509,-0.14763,1.06638,0.61841,-0.72598,-0.25122,0.45185,2.76128,1.72168,4.46202,-2.17795,-0.62788,-0.38087,0.08911,-0.67288,14.88537,-38.84874,17.16456
0.14661,0.68762,-0.16002,1.08938,0.68554,-0.76748,-0.09838,0.17678,2.95763,1.46359,5.06028,-2.97317,-0.62080,-0.39354,0.06806,-0.67461,17.58406,-24.79572,16.97309
0.16303,0.70056,-0.17323,1.10864,0.74229,-0.81166,-0.03303,0.19656,3.05066,1.60602,4.70239,-3.92687,-0.61214,-0.40927,0.05302,-0.67451,6.57282,-2.30237,7.83716
0.18001,0.71558,-0.18859,1.13239,0.82054,-0.88277,0.13909,0.34319,3.25331,1.21091,5.10371,-4.77197,-0.60357,-0.42995,0.03645,-0.67046,9.56931,8.81244,12.53137
0.19664,0.73130,-0.20490,1.14436,0.89286,-0.95432,0.27174,0.62098,3.43361,0.35270,5.29926,-5.37583,-0.59379,-0.45387,0.02230,-0.66402,6.18087,19.00976,12.70414
0.21247,0.74807,-0.22262,1.14078,0.96640,-1.03205,0.38572,0.99340,3.57972,-1.11020,5.36951,-5.58599,-0.58331,-0.48063,0.01062,-0.65470,4.43840,26.19427,12.06210
0.22696,0.76586,-0.24151,1.11478,1.03928,-1.11112,0.43734,1.42293,3.61977,-2.88578,5.21704,-5.61923,-0.57231,-0.50844,0.00324,-0.64338,-1.76709,30.63832,5.93572
0.23973,0.78446,-0.26123,1.06547,1.10809,-1.18511,0.41350,1.86300,3.56997,-4.49482,4.87091,-4.91632,-0.56061,-0.53645,0.00008,-0.63082,-5.94587,30.53977,-0.65507
0.25040,0.80387,-0.28153,0.99250,1.17505,-1.25097,0.25170,2.31658,3.41418,-6.15892,4.88025,-4.18114,-0.54735,-0.56401,0.00306,-0.61830,-15.68374,29.30770,-7.43629
