posX, posY, posZ, velX, velY, velZ, angVelX, angVelY, angVelZ, accX, accY, accZ, rotX, rotY, rotZ, rotW, angAccX, angAccY, angAccZ
0.21416,1.14199,-0.27716,-0.22977,0.45729,-0.78360,1.82822,1.17310,0.56427,0.03393,-0.41571,-0.08234,-0.19893,-0.81075,-0.05994,-0.54729,6.25389,3.22197,-9.06394
0.21111,1.14800,-0.28809,-0.22814,0.45253,-0.78362,1.87500,1.14537,0.45537,0.17774,-0.17083,0.12134,-0.20639,-0.81405,-0.07016,-0.53833,3.14550,-0.98060,-8.94684
0.20796,1.15421,-0.29892,-0.22821,0.45178,-0.78100,1.95047,1.14441,0.36646,-0.15166,0.10920,0.21872,-0.21463,-0.81735,-0.08115,-0.52848,5.07257,0.72617,-6.76283
0.20141,1.16693,-0.32048,-0.23160,0.45501,-0.77901,1.99739,1.16666,0.30782,-0.25831,0.44833,0.17808,-0.22860,-0.82407,-0.10259,-0.50805,4.25463,1.70236,-4.34676
0.20118,1.16733,-0.32044,-0.23636,0.46377,-0.77728,1.96494,1.17665,0.25289,-0.35698,0.75028,0.22826,-0.22942,-0.82403,-0.10104,-0.50807,-1.09282,1.59836,-3.22793
0.19756,1.17442,-0.33116,-0.24300,0.47648,-0.77491,1.88849,1.17778,0.19259,-0.69326,1.16562,0.26031,-0.23599,-0.82702,-0.10868,-0.49854,-5.67387,0.33015,-4.35139
0.19353,1.18205,-0.34161,-0.25547,0.49640,-0.76807,1.84714,1.16267,0.17248,-1.00968,1.73453,0.68844,-0.24214,-0.82971,-0.11708,-0.48912,-4.51738,-0.27773,-2.07859
0.18918,1.19035,-0.35161,-0.27094,0.52404,-0.75447,1.86632,1.12613,0.18926,-1.12446,2.27807,1.19216,-0.24816,-0.83190,-0.12722,-0.47977,0.47365,-2.18989,0.34968
0.18453,1.19946,-0.36115,-0.28759,0.55850,-0.73619,1.90006,1.04782,0.23807,-1.28270,2.70163,1.46698,-0.25345,-0.83335,-0.13867,-0.47123,3.79869,-4.92039,2.07994
0.17946,1.20938,-0.37034,-0.30669,0.59772,-0.71708,1.90490,0.95815,0.30891,-1.44530,3.02147,1.19648,-0.25747,-0.83452,-0.15025,-0.46336,-0.51517,-7.23346,3.91776
0.17402,1.21982,-0.37951,-0.32738,0.63557,-0.70246,2.01141,0.95223,0.42120,-1.75551,3.33760,0.94658,-0.26155,-0.83623,-0.16459,-0.45302,4.77433,-4.99464,6.43546
0.16762,1.23167,-0.38795,-0.36020,0.68903,-0.67856,2.13869,0.90580,0.60636,-2.15805,3.70484,2.33839,-0.26378,-0.83763,-0.18181,-0.44243,14.79505,1.63358,11.12870
0.16110,1.24395,-0.39602,-0.38694,0.73800,-0.65362,2.16147,0.78439,0.79259,-1.75342,3.41999,1.59540,-0.26334,-0.83825,-0.19825,-0.43439,-0.59258,-14.61223,12.63595
0.15465,1.25633,-0.40393,-0.40568,0.77564,-0.63270,2.20663,0.72694,0.90153,-1.56413,2.82003,1.73410,-0.26401,-0.83870,-0.21473,-0.42518,6.03317,-5.68463,9.95337
0.14809,1.26927,-0.41155,-0.42136,0.81340,-0.61195,2.19751,0.68461,0.93363,-0.94329,2.68254,1.37019,-0.26521,-0.83881,-0.22949,-0.41641,1.33734,-3.82107,3.12225
0.14149,1.28254,-0.41928,-0.43508,0.85010,-0.59766,2.14565,0.69560,0.95097,-1.00524,2.74132,0.77801,-0.26620,-0.83946,-0.24268,-0.40688,-2.50105,-0.76640,0.73159
0.13473,1.29639,-0.42722,-0.44827,0.88794,-0.59030,2.07554,0.79298,0.97089,-0.98337,2.76620,0.18371,-0.26703,-0.84124,-0.25440,-0.39533,-7.14602,3.30375,2.42850
0.12771,1.31063,-0.43517,-0.46212,0.92093,-0.58515,2.08986,0.95752,1.00715,-1.33925,2.80612,0.47765,-0.26869,-0.84354,-0.26720,-0.38059,-0.82665,12.27401,3.82363
0.11983,1.32577,-0.44264,-0.48742,0.96237,-0.57293,2.07954,1.11683,1.07777,-1.81657,2.48189,1.11811,-0.26918,-0.84637,-0.27966,-0.36467,-0.70824,10.22383,5.90876
0.11145,1.34091,-0.44950,-0.51568,0.99395,-0.55290,2.10810,1.21448,1.14275,-2.25218,2.02893,1.84076,-0.26959,-0.84832,-0.29315,-0.34890,1.14727,7.12787,5.52907
0.10222,1.35617,-0.45543,-0.55233,1.02017,-0.52129,1.99089,1.16839,1.18882,-2.36727,1.14766,2.44945,-0.26776,-0.84982,-0.30426,-0.33695,-3.40963,-1.33643,4.06355
0.09306,1.37090,-0.46132,-0.57935,1.03125,-0.49624,1.76876,1.03950,1.17981,-2.25145,0.66329,2.17231,-0.26481,-0.85104,-0.31227,-0.32878,-15.45899,-10.56615,0.06162
0.08334,1.38546,-0.46673,-0.60927,1.03678,-0.46919,1.52472,0.91437,1.15939,-2.14298,0.10616,1.72557,-0.26108,-0.85248,-0.31836,-0.32211,-17.81608,-11.99825,-1.21924
0.07325,1.39967,-0.47185,-0.63735,1.03387,-0.44415,1.36142,0.86260,1.11643,-1.94471,-0.41599,1.61670,-0.25859,-0.85390,-0.32428,-0.31436,-13.69257,-5.75149,-2.48101
0.06294,1.41352,-0.47651,-0.66244,1.02618,-0.41713,1.38564,0.90803,1.07552,-1.82355,-0.49536,1.66531,-0.25843,-0.85458,-0.33296,-0.30337,-3.73354,0.65751,-2.93770
0.05242,1.42716,-0.48090,-0.68485,1.01632,-0.39247,1.60799,1.06124,1.05746,-1.87079,-0.90641,1.75081,-0.26096,-0.85419,-0.34588,-0.28744,12.11719,10.50918,-1.95025
0.04139,1.44013,-0.48455,-0.71060,0.99820,-0.36085,1.93573,1.34383,1.00411,-1.47505,-1.30337,2.11684,-0.26737,-0.85287,-0.36098,-0.26614,21.01463,19.78070,-2.15597
0.03034,1.45271,-0.48810,-0.73154,0.97864,-0.33358,2.05251,1.51471,0.95961,-1.53391,-1.79748,2.39126,-0.27209,-0.85197,-0.37295,-0.24701,12.75624,16.57677,-2.68037
0.01906,1.46436,-0.49114,-0.75175,0.94777,-0.30324,1.83524,1.45728,0.85716,-1.04178,-2.05379,2.07422,-0.27408,-0.85217,-0.37836,-0.23565,-12.40298,-2.71968,-4.60034
0.00799,1.47592,-0.49421,-0.76370,0.92331,-0.27975,1.67885,1.41546,0.77079,-0.97831,-1.99102,1.94853,-0.27635,-0.85207,-0.38372,-0.22443,-15.07340,-4.68083,-7.54056
-0.00328,1.48690,-0.49683,-0.77622,0.89669,-0.25320,1.49352,1.38560,0.67675,-0.94433,-1.68704,1.82409,-0.27882,-0.85242,-0.38707,-0.21406,-14.79780,-3.83693,-6.44150
-0.01472,1.49772,-0.49899,-0.78850,0.87247,-0.22594,1.34153,1.39999,0.60716,-0.85092,-1.55689,2.04107,-0.28157,-0.85302,-0.38984,-0.20272,-10.71602,2.16534,-4.21810
-0.02633,1.50853,-0.50075,-0.80035,0.85323,-0.19869,1.22096,1.45571,0.56976,-0.94017,-1.03935,1.84763,-0.28431,-0.85395,-0.39212,-0.19019,-10.95846,1.44566,-2.27467
-0.03828,1.51943,-0.50201,-0.81550,0.84032,-0.16885,1.21201,1.59299,0.59827,-1.26553,-0.65118,2.36229,-0.28719,-0.85471,-0.39595,-0.17385,-2.39578,9.48758,1.64472
-0.05095,1.53052,-0.50215,-0.83919,0.83238,-0.12767,1.16610,1.62811,0.68345,-1.58772,-0.25340,2.95071,-0.28753,-0.85576,-0.39976,-0.15872,-1.11431,4.41342,5.07097
-0.06409,1.54198,-0.50185,-0.86487,0.83175,-0.08894,1.08494,1.59964,0.80425,-1.89763,0.19538,2.82572,-0.28556,-0.85732,-0.40310,-0.14482,-5.32724,-3.20048,7.95129
-0.07767,1.55361,-0.50089,-0.89204,0.83399,-0.04822,1.03687,1.58862,0.95399,-1.90204,0.15591,3.08796,-0.28225,-0.85904,-0.40685,-0.12985,-2.62688,-2.12891,11.02638
-0.09145,1.56521,-0.49912,-0.91585,0.83470,-0.00397,0.99788,1.55024,1.08296,-1.44984,-0.10964,3.34182,-0.27816,-0.86059,-0.41073,-0.11538,-1.87050,-2.34148,9.94838
-0.10513,1.57664,-0.49702,-0.93180,0.83216,0.03499,0.92992,1.47342,1.16017,-1.24999,-0.39953,3.39048,-0.27376,-0.86212,-0.41386,-0.10263,-3.23122,-5.73698,7.58553
-0.11916,1.58767,-0.49354,-0.95004,0.82366,0.08879,0.94365,1.42357,1.23599,-1.18105,-0.68797,3.22920,-0.26918,-0.86288,-0.41839,-0.08902,-0.72938,-5.21739,4.94687
-0.13298,1.59826,-0.48972,-0.96041,0.80891,0.13511,1.02667,1.43321,1.25345,-0.38915,-1.41330,3.27903,-0.26639,-0.86238,-0.42410,-0.07395,6.29253,1.85329,2.53642
-0.14630,1.60837,-0.48578,-0.96118,0.79074,0.17195,1.10039,1.45834,1.20542,0.04991,-1.70858,2.87224,-0.26532,-0.86111,-0.42966,-0.05912,5.50466,0.51302,-2.79767
-0.15915,1.61775,-0.48125,-0.95405,0.76495,0.20979,1.19400,1.53176,1.08957,0.65031,-1.97749,2.62451,-0.26697,-0.85862,-0.43543,-0.04356,5.91163,5.33715,-6.95554
-0.17163,1.62647,-0.47586,-0.94136,0.73229,0.25123,1.32490,1.64421,0.95220,0.87991,-2.17784,2.55511,-0.27057,-0.85484,-0.44197,-0.02671,6.77828,8.07822,-9.05651
-0.18402,1.63509,-0.47040,-0.92955,0.70418,0.28092,1.39161,1.68255,0.85176,1.13692,-2.59517,2.43226,-0.27331,-0.85115,-0.44802,-0.01120,5.81141,6.81008,-7.98820
-0.19594,1.64265,-0.46439,-0.91318,0.66548,0.31191,1.44915,1.69415,0.73293,1.31279,-3.03069,1.99102,-0.27689,-0.84675,-0.45424,0.00333,3.59124,1.96691,-9.16889
-0.20711,1.64900,-0.45847,-0.88718,0.61542,0.33827,1.48394,1.70398,0.55799,1.89045,-3.29080,1.34176,-0.28238,-0.84164,-0.46003,0.01670,0.69175,0.84187,-10.17390
-0.21790,1.65525,-0.45290,-0.86085,0.57556,0.35376,1.54059,1.76653,0.38023,2.26818,-3.41148,1.17539,-0.28960,-0.83551,-0.46592,0.03109,1.30029,4.74502,-13.03179
-0.22812,1.66081,-0.44723,-0.83212,0.53488,0.36673,1.60371,1.84004,0.18175,2.38529,-3.36537,0.90243,-0.29885,-0.82816,-0.47199,0.04547,4.00151,8.67294,-16.05821
-0.23715,1.66490,-0.44167,-0.78950,0.47810,0.37872,1.80113,2.15865,-0.04789,1.81144,-2.36958,0.53594,-0.31310,-0.81735,-0.47909,0.06622,9.37151,19.15205,-11.82713
-0.24721,1.67015,-0.43646,-0.77347,0.45340,0.38177,1.78510,2.21784,-0.04304,1.46729,-2.04761,0.43511,-0.32040,-0.81020,-0.48366,0.08364,5.19102,12.68270,-3.24864
-0.25717,1.67525,-0.43135,-0.75942,0.43239,0.38211,1.59976,2.09359,0.06678,1.11727,-1.29843,0.12963,-0.32308,-0.80655,-0.48548,0.09694,-9.96690,-6.73611,6.65883
-0.26686,1.68040,-0.42621,-0.74372,0.41686,0.38232,1.31077,1.87096,0.25644,1.19593,-0.78646,0.20128,-0.32185,-0.80611,-0.48484,0.10741,-15.85254,-14.04095,12.99862
-0.27644,1.68592,-0.42085,-0.72986,0.41131,0.38714,1.10874,1.68613,0.39136,1.11728,-0.18715,0.79504,-0.32056,-0.80539,-0.48456,0.11744,-17.69899,-16.77181,11.91295
-0.28577,1.69166,-0.41480,-0.71510,0.41101,0.40297,0.96945,1.46654,0.56668,0.93360,0.40042,1.49330,-0.31631,-0.80539,-0.48505,0.12659,-10.76092,-18.09040,12.32889
-0.29721,1.69775,-0.41086,-0.71147,0.42182,0.43078,1.01661,1.33043,0.80315,0.30962,0.98720,2.58377,-0.30998,-0.80381,-0.48849,0.13848,3.28623,-9.56601,12.78302
-0.30872,1.70420,-0.40588,-0.71402,0.43521,0.46003,1.12479,1.23386,1.01299,0.29128,1.16528,3.15036,-0.30263,-0.80129,-0.49328,0.15175,8.58845,-8.75700,16.45739
-0.31989,1.71109,-0.39899,-0.71506,0.45154,0.50322,1.22276,1.02311,1.25578,0.57772,0.85024,3.66622,-0.29116,-0.79951,-0.49929,0.16343,11.96630,-10.53569,15.79930
-0.32970,1.71862,-0.38826,-0.70887,0.46808,0.56189,1.25464,0.64750,1.47732,0.38275,0.89507,3.59429,-0.27576,-0.79946,-0.50571,0.17051,3.35887,-26.60154,12.81594
-0.33937,1.72580,-0.37757,-0.70289,0.47625,0.60732,1.37025,0.44341,1.62185,0.50177,0.53056,3.78277,-0.26158,-0.79729,-0.51336,0.17992,9.20547,-18.80751,10.18926
-0.34889,1.73270,-0.36567,-0.69663,0.47843,0.66292,1.55287,0.20316,1.77903,0.47064,-0.26873,4.00583,-0.24441,-0.79410,-0.52348,0.18877,14.58235,-14.96816,9.14672
-0.35849,1.73901,-0.35256,-0.69309,0.46798,0.72404,1.74540,-0.14408,1.96120,0.23612,-1.16037,3.43124,-0.22304,-0.79090,-0.53542,0.19506,14.83874,-21.32946,9.11801
-0.36799,1.74477,-0.34004,-0.68916,0.45223,0.76224,1.87740,-0.36246,2.06566,0.36996,-1.61988,2.75970,-0.20295,-0.78711,-0.54646,0.20164,12.95873,-20.40589,8.36640
-0.37707,1.74970,-0.32725,-0.67972,0.42669,0.79554,2.03856,-0.54118,2.14269,0.90755,-2.17493,1.79260,-0.18210,-0.78190,-0.55867,0.20821,13.74920,-12.70127,5.19299
-0.38537,1.75374,-0.31446,-0.65931,0.38932,0.81810,2.19196,-0.64427,2.15189,1.26593,-2.69871,0.85876,-0.16258,-0.77536,-0.57117,0.21482,10.35809,-7.21744,0.86645
-0.39339,1.75729,-0.30246,-0.63882,0.35425,0.82340,2.27905,-0.68827,2.13422,2.61210,-3.47113,-0.30318,-0.14430,-0.76847,-0.58265,0.22169,11.06564,2.24376,0.99745
-0.39993,1.75944,-0.29170,-0.59870,0.30404,0.80685,2.17601,-0.98347,1.96398,2.43508,-3.55180,-1.78705,-0.12628,-0.76484,-0.59260,0.21887,-4.37556,-21.03407,-14.21000
-0.40579,1.76094,-0.28179,-0.55665,0.25380,0.77690,2.06362,-1.10247,1.78270,3.15189,-3.82461,-2.79962,-0.11115,-0.76075,-0.60131,0.21755,-4.49184,-9.73103,-12.66909
-0.41097,1.76196,-0.27253,-0.51350,0.20877,0.74475,2.01472,-0.98334,1.58908,3.39335,-3.71309,-2.98640,-0.10053,-0.75459,-0.61001,0.21994,-6.92862,1.35855,-16.08639
-0.41436,1.76151,-0.26457,-0.44961,0.15011,0.69950,2.07677,-0.49021,1.36239,3.80969,-3.39745,-3.00909,-0.09783,-0.74393,-0.61966,0.23024,1.61877,28.80303,-11.64284
-0.41721,1.76084,-0.25666,-0.39145,0.10079,0.66249,2.15023,0.00081,1.19183,4.71089,-3.65355,-2.37635,-0.09688,-0.73174,-0.62926,0.24332,3.25481,44.14340,-3.96239
-0.41981,1.75981,-0.24875,-0.34397,0.05835,0.63615,2.20063,0.17812,1.00967,3.89413,-3.42721,-1.92355,-0.09395,-0.72041,-0.63972,0.25088,0.65708,19.90225,-14.14455
-0.42136,1.75743,-0.24110,-0.28968,0.00314,0.61291,2.28916,0.15501,0.78016,3.54056,-3.55899,-0.89382,-0.08998,-0.70854,-0.65226,0.25382,6.22119,9.70149,-10.93216
-0.42344,1.75509,-0.23328,-0.25692,-0.03837,0.59746,2.29106,-0.20706,0.52405,1.57195,-2.40831,-1.37590,-0.08178,-0.69992,-0.66503,0.24732,2.44990,-24.86789,-24.06386
-0.42612,1.75324,-0.22571,-0.24271,-0.06082,0.58238,2.27397,-0.29970,0.48607,0.09148,-1.29646,-1.38035,-0.07356,-0.69074,-0.67555,0.24719,-0.38910,-13.50635,-12.19968
-0.42969,1.75157,-0.21840,-0.24676,-0.07432,0.56767,2.26568,-0.28981,0.63392,-1.10562,-0.51290,-0.89327,-0.06303,-0.68122,-0.68443,0.25203,-1.72987,-2.42383,6.70286
-0.43424,1.75010,-0.21070,-0.26615,-0.08147,0.56272,2.33362,-0.17155,0.94190,-1.97879,-0.34148,0.13168,-0.04998,-0.66957,-0.69277,0.26313,2.00959,5.55108,20.84386
-0.43930,1.74861,-0.20267,-0.28858,-0.08694,0.56503,2.41554,-0.16342,1.19467,-2.24321,-0.52725,0.34935,-0.03458,-0.65748,-0.70140,0.27305,7.26537,3.22174,26.00241
-0.44643,1.74694,-0.19443,-0.33987,-0.09410,0.57028,2.47128,-0.51768,1.53004,-2.72631,-0.60604,0.42859,-0.00901,-0.64791,-0.70898,0.27835,4.60230,-17.67734,18.28672
-0.45476,1.74519,-0.18634,-0.40293,-0.10100,0.57138,2.43335,-1.37651,1.57831,-3.84495,-0.34077,-0.19592,0.02273,-0.64343,-0.71682,0.26768,2.97600,-49.51588,-5.33438
-0.46304,1.74351,-0.17851,-0.45038,-0.10535,0.56868,2.41783,-1.88392,1.63568,-4.41593,-0.24119,-0.32324,0.05207,-0.63712,-0.72365,0.26017,1.64985,-45.55159,-4.69516
-0.47270,1.74171,-0.17093,-0.50931,-0.11088,0.56221,2.45839,-2.28970,1.81521,-4.55553,-0.42099,-0.81364,0.08504,-0.62925,-0.72939,0.25457,4.85744,-34.16021,5.38886
-0.48287,1.73947,-0.16387,-0.56162,-0.12234,0.54746,2.52929,-2.49658,2.07422,-3.28523,-1.15235,-1.48119,0.11871,-0.61890,-0.73399,0.25324,4.68506,-20.43559,16.70988
-0.49272,1.73672,-0.15777,-0.59706,-0.14038,0.52112,2.59126,-2.68403,2.20337,-1.76884,-1.44548,-2.40600,0.15141,-0.60795,-0.73827,0.24986,4.93641,-13.50571,11.54490
-0.50217,1.73372,-0.15265,-0.61629,-0.15744,0.48347,2.60183,-2.87091,2.19269,-0.89818,-1.13949,-3.06447,0.18273,-0.59760,-0.74185,0.24320,3.44219,-13.87204,-0.61350
-0.51127,1.73067,-0.14832,-0.62499,-0.17120,0.44135,2.62752,-2.90420,2.22274,-0.78035,-0.72715,-3.13293,0.21240,-0.58550,-0.74499,0.23890,2.03668,-6.76463,-2.72650
-0.52063,1.72779,-0.14504,-0.63022,-0.17985,0.39012,2.69560,-2.77381,2.41041,-0.27256,-0.12646,-3.53086,0.24181,-0.57003,-0.74753,0.24043,1.51247,6.22547,12.97894
-0.53026,1.72529,-0.14205,-0.63272,-0.18078,0.34656,2.70313,-2.64431,2.65709,0.09203,-0.05355,-4.00554,0.27174,-0.55404,-0.74792,0.24455,-2.14643,6.58947,17.59430
-0.53939,1.72274,-0.14024,-0.62657,-0.18173,0.29556,2.71537,-2.60365,2.81619,1.64761,-0.14375,-4.51663,0.30215,-0.53759,-0.74742,0.24713,-5.22822,5.69062,22.24339
-0.54282,1.71915,-0.14064,-0.59382,-0.18192,0.21403,2.79286,-2.81632,2.67734,2.05789,0.22078,-5.60715,0.33348,-0.52218,-0.74763,0.23910,7.86191,-10.37100,-8.51925
-0.53959,1.71477,-0.14131,-0.54262,-0.17874,0.13377,2.84384,-3.01068,2.53197,2.07732,0.89828,-6.11763,0.36442,-0.50685,-0.74679,0.22938,9.27336,-11.59716,-13.31602
-0.53733,1.71160,-0.14238,-0.49617,-0.16810,0.06266,2.82709,-3.14764,2.45951,2.38999,1.45403,-6.24538,0.39500,-0.49187,-0.74382,0.22085,4.15574,-10.19263,-8.16086
-0.53934,1.71018,-0.14691,-0.44608,-0.14747,-0.03609,2.67145,-3.18502,2.55249,2.85969,1.17390,-6.72158,0.42504,-0.47790,-0.73735,0.21742,-6.01477,-6.48006,-2.33975
-0.54233,1.70891,-0.15279,-0.39045,-0.13419,-0.12868,2.37815,-3.05148,2.88719,4.64602,1.01079,-6.98996,0.45401,-0.46351,-0.72723,0.22398,-24.13524,0.93454,18.81966
-0.54343,1.70801,-0.16039,-0.31569,-0.11736,-0.22855,2.09282,-2.95437,3.12307,6.31104,1.36041,-7.27608,0.48178,-0.45000,-0.71560,0.23087,-28.50501,2.60619,18.50373
-0.54205,1.70826,-0.17092,-0.21436,-0.08377,-0.35718,2.05119,-3.11373,2.95896,7.13379,3.16636,-8.55041,0.51016,-0.43737,-0.70557,0.22497,1.43515,-8.04919,-10.03549
-0.53886,1.71045,-0.18276,-0.10424,-0.02373,-0.47916,1.75016,-3.24215,2.94139,8.35224,5.48926,-9.69153,0.53794,-0.42861,-0.69050,0.22388,-8.56994,-12.50553,-10.79233
-0.53260,1.71513,-0.19653,0.03323,0.06585,-0.60525,1.16987,-3.26586,3.23007,12.18793,8.04412,-10.51811,0.56528,-0.42201,-0.66881,0.23464,-38.41026,-7.54100,16.19107
-0.52220,1.72349,-0.21280,0.20977,0.19830,-0.74391,0.46956,-3.65457,3.00647,13.96110,10.45751,-8.56761,0.59183,-0.42877,-0.64066,0.23546,-51.96799,-37.24045,-26.47604
-0.50709,1.73554,-0.23048,0.42635,0.36340,-0.87338,0.37650,-4.07334,2.44675,17.65847,13.31121,-8.46746,0.61798,-0.43273,-0.61799,0.22121,-4.01243,-29.26138,-33.88211
-0.48647,1.75241,-0.24912,0.68676,0.57324,-0.98753,0.48821,-4.47467,1.69663,20.74574,17.21371,-7.16680,0.64198,-0.43835,-0.59749,0.19677,21.09200,-27.40506,-44.54677
-0.46013,1.77544,-0.26765,0.98370,0.84008,-1.07116,0.82057,-4.82761,0.64124,22.84101,21.29619,-4.35356,0.66115,-0.44728,-0.58110,0.15856,39.50558,-22.21505,-64.51172
-0.42774,1.80570,-0.28502,1.31411,1.16883,-1.11349,1.13364,-5.12382,-0.80061,25.29658,25.80143,-1.82763,0.67136,-0.46521,-0.56695,0.10690,57.51691,-18.76569,-84.39990
-0.39146,1.84059,-0.29983,1.62597,1.49183,-1.10055,0.81782,-5.14164,-1.93721,27.34711,28.34284,2.00169,0.67265,-0.49292,-0.54789,0.06620,29.21430,-8.24473,-97.15702
-0.35897,1.88531,-0.31255,2.00162,1.88883,-1.03326,-0.01064,-4.81515,-3.35290,30.70471,28.84365,7.75551,0.65541,-0.54006,-0.52706,0.03150,-19.90813,25.98372,-108.45340
-0.31630,1.93806,-0.32135,2.48230,2.31575,-0.88068,-0.79518,-4.06296,-5.08460,34.31299,24.68256,12.64514,0.61723,-0.59763,-0.51171,-0.00368,-12.97498,49.46175,-124.11100
-0.26098,1.98640,-0.32638,2.91218,2.57645,-0.73162,-1.11369,-3.41117,-6.50204,39.23238,19.05738,13.94302,0.57406,-0.64827,-0.49831,-0.04348,16.17688,43.35798,-116.74040
-0.18148,2.03578,-0.32250,3.58892,2.80185,-0.49425,-1.37003,-2.42355,-8.36105,45.44170,8.82019,16.15567,0.50493,-0.70610,-0.48888,-0.08642,26.00752,54.36975,-123.00460
-0.09937,2.07773,-0.31810,4.14509,2.84723,-0.30385,-1.28283,-1.86700,-9.65434,47.96030,-1.65447,15.94180,0.43666,-0.75205,-0.47524,-0.13383,44.37082,28.42685,-112.01210
0.00315,2.10805,-0.30729,4.91726,2.67792,-0.04679,-1.36645,-1.23898,-10.94535,48.25259,-19.97292,16.73096,0.35416,-0.79716,-0.45556,-0.17768,22.67261,25.86227,-87.21368
0.10946,2.12353,-0.29321,5.57745,2.28719,0.20821,-1.05179,-0.75048,-11.76297,45.87685,-35.39154,20.57601,0.27177,-0.82769,-0.43821,-0.22147,29.62962,13.98755,-64.82656
0.22234,2.12221,-0.27242,6.19005,1.69955,0.51864,-0.46355,0.12036,-12.72761,41.87663,-50.45952,22.88868,0.17069,-0.84860,-0.42727,-0.26113,65.84662,3.37536,-61.30147
0.33815,2.09976,-0.24554,6.70275,0.88692,0.85977,0.27458,1.68545,-13.77727,31.20965,-67.52279,23.35063,0.04532,-0.85960,-0.42261,-0.28360,93.61497,33.69022,-85.28123
0.45142,2.05206,-0.21483,7.04299,-0.16732,1.18197,1.32219,3.97064,-14.54489,15.95371,-82.99609,20.31117,-0.09795,-0.85416,-0.42815,-0.27838,153.50820,48.27489,-74.19489
0.55461,1.98953,-0.18397,7.12363,-1.20084,1.42553,2.42111,5.50326,-14.86606,-2.46474,-89.91514,21.77751,-0.23370,-0.82944,-0.43081,-0.26799,167.57580,52.26838,-70.25064
0.63904,1.88650,-0.14741,6.86129,-2.67998,1.71088,4.37937,5.43024,-14.89419,-29.98347,-93.18472,17.63740,-0.35133,-0.77173,-0.44919,-0.28146,81.08926,-80.15233,-54.00655
0.70169,1.77686,-0.11144,6.28516,-3.93765,1.92351,5.84041,4.50159,-14.63538,-52.12577,-86.36912,13.17306,-0.44615,-0.70235,-0.46361,-0.30451,12.58356,-115.15000,-40.28818
0.75465,1.67279,-0.07777,5.70409,-4.76551,2.03984,7.22016,4.19558,-14.14201,-64.64178,-78.06242,7.30406,-0.53569,-0.62292,-0.48090,-0.30618,10.56025,-125.50840,-37.78338
0.75814,1.53093,-0.04326,4.42787,-6.02937,2.14656,10.38825,3.78318,-13.05785,-77.58838,-62.67339,4.26730,-0.61386,-0.50216,-0.54227,-0.27741,130.80740,-156.84050,-24.83473
0.75378,1.40590,-0.01464,3.28594,-6.74625,2.13304,11.48610,1.94948,-12.65998,-85.24045,-42.38522,-2.81563,-0.66293,-0.38302,-0.57523,-0.28798,-3.10181,-143.64400,-81.69469
0.72956,1.28916,0.00955,2.07482,-7.14650,2.04232,10.46593,-0.21065,-12.42379,-87.64806,-17.27098,-7.29916,-0.68410,-0.28709,-0.58353,-0.33028,-129.69700,-72.55963,-70.24511
0.69093,1.18518,0.03028,0.91142,-7.22581,1.92463,8.23108,-1.70977,-11.95867,-79.02161,3.35789,-7.77708,-0.68887,-0.22126,-0.57365,-0.38395,-191.04120,-1.33116,-25.47681
0.64500,1.09378,0.05092,-0.09953,-7.07477,1.83352,5.56517,-2.34777,-11.50130,-68.57961,17.78537,-4.90140,-0.68843,-0.17735,-0.54667,-0.44245,-189.38540,81.92212,9.57351
0.59086,1.01336,0.07287,-1.01187,-6.76852,1.78001,3.70598,-2.99001,-10.83562,-61.98833,27.07789,-3.92769,-0.67795,-0.13254,-0.52852,-0.49345,-152.34010,59.93589,20.68391
0.52582,0.94681,0.09224,-1.91699,-6.29305,1.69611,2.13535,-3.61794,-10.60104,-52.27405,35.13490,-7.61940,-0.65985,-0.08081,-0.50725,-0.54842,-110.36340,25.96486,-6.13381
0.46459,0.88888,0.10823,-2.54476,-5.77047,1.56769,0.97779,-3.61258,-10.57821,-39.05087,39.49256,-10.75309,-0.64564,-0.02928,-0.47530,-0.59697,-74.52666,33.96036,-10.23257
0.40623,0.84038,0.12121,-2.95893,-5.20628,1.41379,-0.02679,-2.77295,-10.29307,-22.14743,41.79040,-11.51282,-0.63830,0.00457,-0.43120,-0.63766,-35.20226,89.51037,-6.45438
0.35354,0.79960,0.13166,-3.18305,-4.65121,1.25696,-0.56611,-1.78336,-9.50190,-11.07258,38.64338,-11.23584,-0.63543,0.02504,-0.39158,-0.66503,-7.89776,87.06075,46.14030
0.30492,0.75959,0.14156,-3.27600,-4.22178,1.12928,-0.59107,-1.06805,-8.64673,-4.96483,34.89227,-10.71653,-0.63610,0.04556,-0.35814,-0.68193,17.42044,72.31512,61.49151
0.25622,0.72737,0.14933,-3.34273,-3.76668,0.99619,-0.31658,-0.88475,-7.44071,-4.46883,31.54543,-8.48438,-0.63660,0.06465,-0.34269,-0.68784,26.76627,18.95060,89.35332
0.20618,0.70298,0.15649,-3.42459,-3.27795,0.88221,-0.21273,-1.19679,-6.49458,-5.69668,30.69447,-5.94395,-0.62905,0.08997,-0.33539,-0.69550,-0.56909,-15.50635,63.62981
0.15552,0.67870,0.16487,-3.49094,-2.90359,0.81580,-0.33530,-1.57346,-6.12923,-6.29130,32.12817,-5.12996,-0.61469,0.12211,-0.32339,-0.70899,-19.39455,-27.35688,48.28303
0.10438,0.66418,0.17204,-3.54056,-2.45852,0.74446,-0.55355,-1.45660,-6.28911,-2.14283,31.61770,-5.04128,-0.60020,0.15340,-0.29466,-0.72761,-16.75946,4.59804,-9.03210
0.05585,0.65457,0.17841,-3.53245,-2.03675,0.67502,-0.64825,-1.27855,-6.30126,3.29662,29.20687,-5.26179,-0.58721,0.18149,-0.26564,-0.74275,-1.12891,16.98218,-8.59315
0.01116,0.64836,0.18352,-3.46003,-1.65736,0.60060,-0.70419,-1.23102,-5.94624,7.60531,25.65545,-5.78955,-0.57424,0.20475,-0.24567,-0.75364,-4.71711,8.26048,17.08854
-0.02932,0.64490,0.18713,-3.33202,-1.32134,0.51826,-0.64286,-1.09642,-5.44721,10.68975,23.09726,-6.18210,-0.56507,0.22283,-0.22873,-0.76074,1.43456,6.20002,36.67271
-0.06543,0.64391,0.18948,-3.16049,-1.02274,0.43394,-0.46163,-0.79712,-4.99281,13.55171,20.37693,-5.87208,-0.56069,0.23650,-0.20929,-0.76544,14.77389,16.86257,32.82500
-0.09730,0.64533,0.19140,-2.95727,-0.75348,0.36270,-0.29830,-0.54826,-4.41704,15.52615,18.39142,-4.39710,-0.55832,0.24586,-0.19423,-0.76818,18.25410,16.95655,38.05533
-0.12584,0.64912,0.19342,-2.74349,-0.50981,0.31075,-0.27756,-0.46149,-3.77549,15.50845,16.44334,-3.21500,-0.55408,0.25313,-0.18604,-0.77092,4.52146,8.36171,45.69877
-0.15018,0.65604,0.19525,-2.50626,-0.26614,0.26628,-0.36380,-0.53493,-3.04732,14.23627,14.48140,-2.49488,-0.54816,0.25887,-0.18597,-0.77325,-8.21454,-2.14016,48.12596
-0.17512,0.66175,0.19737,-2.33610,-0.10200,0.23785,-0.30687,-0.45228,-2.80318,13.50439,13.80861,-2.45027,-0.54353,0.26748,-0.17619,-0.77588,-1.98134,-0.02811,32.92097
-0.19485,0.67171,0.19870,-2.11549,0.09429,0.20247,0.00609,-0.10692,-2.89023,13.67837,11.59167,-2.04268,-0.54434,0.27579,-0.15383,-0.77715,20.58639,17.58175,-3.70159
-0.21353,0.68153,0.20011,-1.92524,0.24346,0.17631,0.20895,0.02634,-2.97746,14.19047,9.65455,-1.73715,-0.54321,0.28681,-0.13283,-0.77783,23.26789,13.37114,-8.53151
-0.22937,0.69220,0.20142,-1.73374,0.37086,0.15522,0.05761,-0.19131,-2.93765,14.32465,7.71805,-1.21043,-0.53443,0.30137,-0.12137,-0.78028,-2.99594,-7.81464,0.54788
-0.24229,0.70279,0.20300,-1.53950,0.46612,0.14626,-0.52241,-0.70190,-2.60148,14.68122,4.57797,0.49856,-0.51595,0.31690,-0.12556,-0.78588,-37.12635,-32.12721,9.73688
-0.25194,0.71221,0.20534,-1.33437,0.51738,0.15252,-1.27398,-1.08728,-2.03309,14.91231,2.53009,0.41396,-0.49289,0.32596,-0.13966,-0.79455,-61.90143,-19.69468,43.90608
-0.25842,0.71969,0.20799,-1.12338,0.52173,0.16219,-1.71055,-1.05244,-1.62410,14.41171,-0.82248,0.67148,-0.47358,0.32899,-0.14753,-0.80357,-46.44174,-3.63074,28.09322
-0.26260,0.72413,0.21103,-0.92508,0.47247,0.17667,-1.46663,-0.49583,-1.35143,13.04804,-4.45448,0.98036,-0.46951,0.32333,-0.14212,-0.80921,4.27158,31.87406,20.09280
-0.26474,0.72594,0.21400,-0.73896,0.39013,0.18589,-0.79306,0.23787,-1.13902,13.54381,-6.14346,-0.22848,-0.47840,0.31240,-0.12785,-0.81067,51.06625,53.76342,12.64119
-0.26472,0.72644,0.21601,-0.56041,0.30471,0.17573,-0.15625,0.77259,-1.00513,12.40460,-6.33317,-1.36725,-0.48972,0.30258,-0.11211,-0.80997,50.63331,39.48912,7.93686
-0.26331,0.72592,0.21712,-0.40186,0.22207,0.15284,0.23138,0.96450,-0.79632,11.31586,-6.08777,-1.91177,-0.49896,0.29557,-0.10259,-0.80818,37.05424,19.37371,10.94227
-0.26035,0.72463,0.21758,-0.25468,0.14587,0.12422,0.36124,0.95513,-0.55609,10.31094,-5.56007,-2.04838,-0.50444,0.29033,-0.09880,-0.80715,12.63190,0.24635,17.75411
-0.25571,0.72226,0.21778,-0.11363,0.06928,0.09785,0.30643,0.87269,-0.23971,10.20930,-5.83787,-1.62447,-0.50730,0.28444,-0.10045,-0.80725,0.95886,-5.62343,18.69424
-0.24905,0.71879,0.21794,0.02763,-0.00827,0.07695,0.25469,0.85020,0.07321,10.07922,-5.33048,-1.33350,-0.51051,0.27646,-0.10353,-0.80761,-5.65219,-4.48206,25.27944
-0.24030,0.71429,0.21814,0.17072,-0.08484,0.06168,0.45657,1.00814,0.23590,9.99296,-4.85570,-1.03946,-0.51899,0.26620,-0.10041,-0.80604,7.67966,6.43233,16.17260
-0.22942,0.70903,0.21834,0.31727,-0.15606,0.05009,0.84388,1.33543,0.23608,10.79464,-5.10300,-0.60745,-0.53247,0.25351,-0.08917,-0.80266,29.09847,23.11721,-1.73507
-0.21503,0.70297,0.21848,0.49043,-0.22675,0.03965,1.02035,1.62788,0.42777,11.21157,-4.23997,-0.60310,-0.54464,0.23659,-0.08254,-0.80036,14.57107,19.68390,11.27152
-0.20050,0.69743,0.21859,0.62436,-0.27041,0.03128,0.98688,1.76634,0.66322,11.61266,-3.65899,-0.72672,-0.55323,0.21966,-0.08052,-0.79950,3.41697,13.20981,16.53962
-0.18233,0.69127,0.21822,0.78667,-0.31298,0.01685,0.87510,1.85531,1.01589,11.84982,-2.77395,-1.23738,-0.56075,0.19997,-0.08349,-0.79912,-6.20898,5.29357,25.39757
-0.16157,0.68514,0.21748,0.95354,-0.34542,-0.00057,0.76318,1.92755,1.38642,12.33548,-2.03615,-1.32360,-0.56798,0.17840,-0.08890,-0.79854,-5.58954,2.80302,27.19963
-0.13944,0.67920,0.21647,1.10175,-0.36615,-0.01799,0.73239,2.04954,1.69082,12.20677,-1.20559,-1.56232,-0.57631,0.15472,-0.09352,-0.79699,-3.74757,4.79954,28.96228
-0.11209,0.67319,0.21458,1.30426,-0.38285,-0.04692,0.95142,2.41412,1.89517,12.91103,-0.27081,-1.99761,-0.59014,0.12553,-0.09139,-0.79223,12.43335,22.10522,12.57341
-0.08325,0.66836,0.21227,1.48700,-0.37593,-0.07680,1.14676,2.83253,2.03767,13.11255,1.34095,-2.18122,-0.60412,0.09335,-0.08641,-0.78667,13.13538,28.47758,10.79606
-0.05462,0.66446,0.20988,1.61813,-0.35507,-0.09960,1.23415,3.17310,2.12310,13.17648,2.75170,-2.27873,-0.61602,0.06042,-0.08055,-0.78127,9.36154,33.65575,9.08262
-0.01776,0.66453,0.20603,1.85114,-0.27641,-0.14292,1.11894,3.77450,2.31698,12.74766,5.69978,-2.50378,-0.62380,0.01652,-0.07229,-0.77806,-5.96829,31.59905,14.44085
0.01849,0.66667,0.20176,2.02459,-0.18122,-0.18517,0.85924,4.25086,2.45606,11.83881,7.63178,-3.64898,-0.62636,-0.02749,-0.06397,-0.77642,-18.93580,30.49767,17.21021
0.05598,0.67104,0.19585,2.17900,-0.06936,-0.24445,0.61554,4.70375,2.55194,10.21249,8.44973,-5.02581,-0.62662,-0.07345,-0.05349,-0.77401,-20.45730,30.61433,13.85260
0.09374,0.67727,0.18802,2.30465,0.05309,-0.32110,0.40818,5.02039,2.68005,7.98923,9.32318,-6.26814,-0.62508,-0.11963,-0.04444,-0.77005,-15.77976,22.60252,14.51874
0.13134,0.68592,0.17815,2.39746,0.18732,-0.41427,0.22282,5.23445,2.78557,5.40323,10.08710,-7.31345,-0.62158,-0.16509,-0.03577,-0.76492,-13.21826,14.71699,12.61440
0.16814,0.69794,0.16572,2.45529,0.35042,-0.53061,0.01975,5.30422,2.86663,1.99043,10.53568,-7.51175,-0.61553,-0.20819,-0.02848,-0.75959,-11.09874,4.33693,10.12573
0.20292,0.71122,0.15261,2.46414,0.49804,-0.63268,-0.14497,5.24292,2.91286,-0.60619,10.87250,-7.34655,-0.60827,-0.24811,-0.02258,-0.75362,-9.86131,-3.57329,7.16148
0.23586,0.72690,0.13833,2.43859,0.65147,-0.72980,-0.32381,5.07375,2.98266,-2.94095,11.12189,-6.73777,-0.59875,-0.28561,-0.01920,-0.74803,-8.11850,-11.67746,7.24093
0.26617,0.74583,0.12268,2.37181,0.82805,-0.82854,-0.54442,4.75113,3.09082,-5.31935,11.00772,-5.91046,-0.58634,-0.31969,-0.01962,-0.74406,-8.29337,-20.15509,9.39510
0.29515,0.76455,0.10751,2.29898,0.95704,-0.89360,-0.70306,4.43721,3.20727,-6.78347,10.61108,-5.21503,-0.57296,-0.35238,-0.02189,-0.73964,-5.72983,-26.52035,12.96926
0.32124,0.78590,0.09124,2.19428,1.09836,-0.96097,-0.85615,4.05670,3.36551,-8.30415,9.66571,-4.55561,-0.55747,-0.38275,-0.02782,-0.73618,-3.37012,-28.00835,14.92335
0.34476,0.80766,0.07466,2.07107,1.22176,-1.01946,-0.94879,3.71917,3.46894,-9.63376,8.35017,-4.02339,-0.54181,-0.41129,-0.03425,-0.73219,0.10522,-25.56184,11.32208
0.36564,0.82849,0.05808,1.93180,1.32247,-1.06964,-0.97678,3.42849,3.50388,-10.78548,6.83173,-3.48621,-0.52679,-0.43788,-0.04058,-0.72739,2.83829,-21.64828,5.47339
0.38509,0.84931,0.04144,1.80100,1.39137,-1.10679,-0.98999,3.24964,3.45885,-11.55464,5.41338,-2.87440,-0.51214,-0.46370,-0.04472,-0.72159,3.33294,-17.16759,-0.23720
