posX, posY, posZ, velX, velY, velZ, angVelX, angVelY, angVelZ, accX, accY, accZ, rotX, rotY, rotZ, rotW, angAccX, angAccY, angAccZ
-0.04419,1.53692,-0.53904,-0.67788,0.35878,-0.09707,0.86036,1.19658,0.74336,-0.43969,-1.11992,0.56310,-0.26732,-0.85715,-0.40171,-0.18017,0.07769,4.39317,2.77835
-0.05393,1.54094,-0.54025,-0.68404,0.34297,-0.09312,0.65447,1.10762,0.77205,-0.37142,-1.27453,0.44282,-0.26433,-0.85975,-0.40134,-0.17286,-12.63948,-6.15979,3.17495
-0.06358,1.54444,-0.54112,-0.68756,0.32232,-0.08320,0.50746,1.02002,0.78575,-0.21931,-1.19715,0.63743,-0.26135,-0.86205,-0.40120,-0.16611,-12.13008,-7.36405,1.45423
-0.07317,1.54786,-0.54162,-0.68883,0.30436,-0.07004,0.57784,1.06174,0.78173,-0.08856,-1.20782,0.86236,-0.26096,-0.86259,-0.40458,-0.15543,2.12581,0.99409,-0.37390
-0.08263,1.55094,-0.54201,-0.68761,0.28587,-0.05710,0.65843,1.09716,0.75078,0.13217,-1.34076,0.96734,-0.26146,-0.86248,-0.40849,-0.14462,6.67254,4.40116,-2.00996
-0.09209,1.55379,-0.54237,-0.68662,0.26759,-0.04704,0.67213,1.09375,0.72377,0.05341,-1.41350,0.67474,-0.26144,-0.86264,-0.41145,-0.13496,2.71637,0.67008,-2.27135
-0.10164,1.55650,-0.54281,-0.68685,0.25097,-0.04203,0.62234,1.07102,0.71097,-0.05638,-1.35330,0.36041,-0.26068,-0.86343,-0.41305,-0.12620,-3.02138,-2.00786,-1.54306
-0.11133,1.55885,-0.54328,-0.69011,0.23278,-0.03753,0.53498,1.01681,0.74085,-0.34093,-1.35280,0.44059,-0.25827,-0.86491,-0.41382,-0.11825,-5.42369,-2.38722,1.35359
-0.12124,1.56090,-0.54364,-0.69620,0.21380,-0.03224,0.44489,0.93636,0.79049,-0.38303,-1.40906,0.41336,-0.25456,-0.86668,-0.41437,-0.11120,-6.33501,-6.42812,3.61399
-0.13116,1.56271,-0.54379,-0.70037,0.19466,-0.02560,0.39186,0.86802,0.80733,-0.32730,-1.36584,0.39487,-0.25136,-0.86804,-0.41523,-0.10445,-4.29269,-5.70707,1.77621
-0.14095,1.56426,-0.54401,-0.70102,0.17550,-0.02238,0.38503,0.87526,0.76332,0.14166,-1.43692,-0.13036,-0.25040,-0.86872,-0.41628,-0.09662,-0.85801,-1.74351,-1.23792
-0.15020,1.56550,-0.54456,-0.69207,0.15558,-0.02522,0.40428,0.97465,0.62817,0.67420,-1.16338,-0.26089,-0.25320,-0.86862,-0.41684,-0.08738,0.32730,7.18862,-7.78345
-0.15921,1.56686,-0.54519,-0.68128,0.14183,-0.02937,0.40442,1.05126,0.48196,0.88711,-0.77870,-0.24336,-0.25702,-0.86829,-0.41692,-0.07874,0.18750,6.75178,-10.39801
-0.16822,1.56836,-0.54593,-0.67313,0.13454,-0.03383,0.36581,1.08188,0.35922,0.54520,-0.44261,-0.41724,-0.26076,-0.86819,-0.41615,-0.07126,-3.43894,3.44172,-10.75990
-0.17723,1.57003,-0.54691,-0.66706,0.13200,-0.04091,0.30981,1.12854,0.25604,0.27943,0.19598,-0.54299,-0.26496,-0.86833,-0.41444,-0.06355,-4.81500,2.19082,-7.54276
-0.18649,1.57223,-0.54779,-0.66675,0.13891,-0.04503,0.34927,1.27710,0.19887,-0.22301,0.93308,-0.07066,-0.27009,-0.86776,-0.41392,-0.05213,-0.00943,8.28167,-3.91959
-0.19596,1.57482,-0.54827,-0.67002,0.15064,-0.04146,0.47951,1.42430,0.17816,-0.34486,1.27592,0.44399,-0.27523,-0.86600,-0.41570,-0.03872,7.94511,11.79461,-2.32651
-0.20548,1.57784,-0.54850,-0.67318,0.16633,-0.03491,0.62711,1.56095,0.15098,-0.11958,1.37491,0.63718,-0.28106,-0.86329,-0.41851,-0.02424,13.15835,12.54927,-2.45414
-0.21473,1.58154,-0.54865,-0.67197,0.19001,-0.02758,0.73310,1.68172,0.07649,0.23578,1.46926,0.47872,-0.28839,-0.86002,-0.42083,-0.01004,7.28747,8.60658,-4.75330
-0.22375,1.58548,-0.54893,-0.66858,0.21321,-0.02239,0.74366,1.71771,0.01440,0.16330,1.89509,0.53875,-0.29497,-0.85742,-0.42168,0.00198,0.93566,4.22782,-5.44202
-0.23299,1.58982,-0.54902,-0.66905,0.23695,-0.01594,0.76510,1.73897,0.00377,-0.25257,2.18876,0.63069,-0.30048,-0.85479,-0.42290,0.01439,0.63453,0.98518,-2.37958
-0.24264,1.59522,-0.54870,-0.67593,0.27271,-0.00318,0.78356,1.71191,0.04513,-0.69714,2.44207,1.15220,-0.30411,-0.85242,-0.42450,0.02634,0.90309,-0.37518,1.92732
-0.25252,1.60098,-0.54810,-0.68444,0.30691,0.01274,0.80367,1.71160,0.12070,-0.55298,2.60793,1.28988,-0.30678,-0.85021,-0.42601,0.03936,1.52357,-2.34371,5.23576
-0.26237,1.60707,-0.54708,-0.69010,0.33784,0.03090,0.85190,1.74058,0.17320,-0.66114,2.73009,1.69939,-0.30987,-0.84731,-0.42801,0.05337,4.11872,1.06035,3.44455
-0.27211,1.61465,-0.54474,-0.69339,0.38649,0.06499,0.99357,1.79022,0.28614,0.07576,3.45316,2.44812,-0.31141,-0.84337,-0.43227,0.06996,10.02185,3.50418,2.91603
-0.28167,1.62237,-0.54230,-0.69305,0.42595,0.09283,1.04849,1.75373,0.40349,0.14475,3.08574,2.50777,-0.31105,-0.84038,-0.43572,0.08462,8.26600,0.27092,10.40487
-0.29116,1.63169,-0.53863,-0.69104,0.48328,0.13517,0.99670,1.55626,0.60277,0.33650,3.16200,2.50414,-0.30598,-0.83981,-0.43814,0.09556,-1.11903,-10.73860,10.39623
-0.30030,1.64082,-0.53482,-0.68461,0.52592,0.17020,0.97569,1.38454,0.77703,0.56928,3.03772,2.57796,-0.30014,-0.83915,-0.44094,0.10636,-2.44615,-14.12839,11.83458
-0.30888,1.65017,-0.53052,-0.67063,0.56265,0.20560,0.98793,1.22635,0.92219,1.35021,2.31479,2.55335,-0.29352,-0.83819,-0.44455,0.11689,2.70347,-11.35422,10.61458
-0.31680,1.65956,-0.52585,-0.64740,0.59010,0.23796,0.99865,1.08959,0.97367,1.81149,1.63514,2.10586,-0.28805,-0.83666,-0.44842,0.12627,1.95872,-12.24617,4.22623
-0.32405,1.66887,-0.52102,-0.61728,0.60932,0.26469,0.98530,1.00613,0.95595,2.31098,1.06252,1.79242,-0.28428,-0.83479,-0.45167,0.13528,-0.10222,-5.89659,-0.61460
-0.33095,1.67798,-0.51613,-0.58890,0.62023,0.28595,0.96903,0.95057,0.92199,2.30395,0.76426,1.79698,-0.28113,-0.83275,-0.45467,0.14409,-2.21077,-5.88578,-2.76259
-0.33709,1.68694,-0.51067,-0.55488,0.62571,0.31114,1.00739,0.92711,0.88824,2.51288,0.13106,1.78584,-0.27822,-0.82977,-0.45877,0.15367,1.89187,-2.01819,-3.23987
-0.34253,1.69539,-0.50498,-0.51652,0.62150,0.33495,1.04876,0.87897,0.83684,3.12166,-0.74341,1.66163,-0.27547,-0.82642,-0.46347,0.16230,2.98687,-1.53141,-3.03979
-0.34645,1.70296,-0.49895,-0.46097,0.60326,0.35965,1.14939,0.85438,0.71959,3.72466,-1.45382,1.44052,-0.27441,-0.82141,-0.46996,0.17067,4.47102,-2.15970,-6.68876
-0.35032,1.71001,-0.49339,-0.41416,0.58181,0.37448,1.25759,0.86999,0.57793,4.22326,-2.05566,1.04373,-0.27495,-0.81519,-0.47713,0.17948,9.09109,2.70266,-10.56181
-0.35417,1.71596,-0.48980,-0.35714,0.55321,0.38038,1.32580,0.90245,0.34999,4.48360,-2.12540,0.32084,-0.27877,-0.80795,-0.48432,0.18691,4.79020,1.97740,-14.90529
-0.35722,1.72149,-0.48639,-0.30067,0.52365,0.38101,1.42320,1.06247,0.08882,3.98272,-2.11056,0.12381,-0.28635,-0.79843,-0.49175,0.19671,4.55985,10.64340,-18.66157
-0.35856,1.72679,-0.48174,-0.24326,0.49117,0.38082,1.51679,1.26062,-0.13576,3.36579,-2.00662,0.02799,-0.29530,-0.78771,-0.49898,0.20814,5.60939,14.42088,-14.56706
-0.35994,1.73250,-0.47607,-0.20906,0.46840,0.38357,1.60070,1.38695,-0.22762,2.63545,-1.91387,0.30998,-0.30174,-0.77739,-0.50615,0.22007,4.81723,12.08410,-9.28982
-0.36106,1.73769,-0.47007,-0.17915,0.44245,0.39042,1.66110,1.37997,-0.24444,2.21925,-1.99332,0.63934,-0.30541,-0.76792,-0.51380,0.23032,6.70804,5.38692,-3.00077
-0.36230,1.74243,-0.46399,-0.15824,0.41691,0.39903,1.54734,1.05295,-0.17785,0.96377,-1.46344,0.44442,-0.30349,-0.76365,-0.52015,0.23274,-5.61467,-18.81822,1.67857
-0.36419,1.74748,-0.45805,-0.15299,0.40216,0.40336,1.40700,0.73617,-0.02971,-0.03096,-0.83137,0.12098,-0.29862,-0.76151,-0.52526,0.23459,-9.38155,-24.75290,7.09327
-0.36645,1.75275,-0.45227,-0.15510,0.39503,0.40426,1.29481,0.53592,0.13889,-0.46926,-0.34303,0.02504,-0.29294,-0.75972,-0.52942,0.23817,-9.35451,-20.42943,12.03828
-0.36914,1.75786,-0.44641,-0.16402,0.38726,0.40695,1.22174,0.37930,0.38883,-0.63729,-0.61808,0.14280,-0.28430,-0.75874,-0.53300,0.24369,-3.75475,-10.58429,15.22954
-0.37189,1.76276,-0.44049,-0.17194,0.37771,0.41011,1.15121,0.20832,0.57989,-0.45782,-0.86681,0.42034,-0.27508,-0.75821,-0.53662,0.24796,-4.92279,-13.37932,13.41240
-0.37449,1.76711,-0.43430,-0.17538,0.36135,0.41747,1.10624,0.00683,0.70514,0.00877,-1.43962,0.54136,-0.26511,-0.75777,-0.54110,0.25042,-2.68670,-14.46210,10.17116
-0.37672,1.77107,-0.42798,-0.17301,0.34135,0.42372,1.09580,-0.10276,0.76338,0.11427,-1.44665,0.15909,-0.25645,-0.75630,-0.54594,0.25338,-1.13184,-11.96191,3.90179
-0.37850,1.77477,-0.42175,-0.16383,0.32121,0.42620,1.12819,-0.04546,0.78962,0.76663,-1.52960,0.09244,-0.25011,-0.75294,-0.55058,0.25960,1.31761,1.16163,2.61411
-0.37965,1.77791,-0.41565,-0.14594,0.29696,0.42660,1.16125,0.03212,0.73785,1.80432,-2.01476,-0.14514,-0.24588,-0.74852,-0.55562,0.26562,3.60004,8.10361,-0.52212
-0.38002,1.78049,-0.40963,-0.11921,0.27022,0.42624,1.14006,0.09473,0.63093,1.95649,-1.87823,0.16400,-0.24358,-0.74431,-0.56007,0.27016,-2.59921,3.74425,-7.05398
-0.37992,1.78271,-0.40325,-0.09091,0.24381,0.43168,1.18039,0.18948,0.52290,1.95417,-1.83849,0.48317,-0.24219,-0.73854,-0.56560,0.27568,2.24138,6.55564,-8.16502
-0.37949,1.78464,-0.39667,-0.06331,0.21894,0.44000,1.23877,0.30683,0.43536,1.87148,-1.65890,0.69962,-0.24140,-0.73182,-0.57139,0.28228,3.16677,8.55517,-6.28442
-0.37885,1.78636,-0.38985,-0.03782,0.19714,0.45123,1.30920,0.41813,0.38641,1.86348,-1.52054,0.86437,-0.24032,-0.72448,-0.57739,0.28983,5.34631,9.00759,-3.44278
-0.37807,1.78801,-0.38291,-0.01621,0.17937,0.46226,1.34390,0.47509,0.36089,1.94529,-1.54627,1.02063,-0.23866,-0.71770,-0.58299,0.29678,3.33778,7.11056,-1.40568
-0.37634,1.78881,-0.37526,0.01657,0.15135,0.48259,1.36279,0.47208,0.30076,1.83402,-1.55914,1.31016,-0.23714,-0.71107,-0.58905,0.30194,0.87502,0.05175,-3.55004
-0.37479,1.78961,-0.36726,0.03948,0.12894,0.50483,1.38139,0.39753,0.25571,1.68053,-1.65909,1.88896,-0.23433,-0.70491,-0.59562,0.30564,1.58841,-1.52552,-2.97690
-0.37333,1.79021,-0.35864,0.05520,0.10861,0.53231,1.39109,0.15913,0.23264,0.91090,-1.20858,2.02280,-0.22825,-0.70042,-0.60326,0.30561,0.39210,-15.35905,-4.25088
-0.37255,1.79093,-0.34975,0.06224,0.09348,0.56083,1.42364,-0.02889,0.28144,0.18320,-0.94082,2.14839,-0.22037,-0.69596,-0.61078,0.30664,1.31595,-15.02645,0.94995
-0.37332,1.79192,-0.34091,0.05842,0.08233,0.58794,1.44874,-0.24433,0.37861,0.00383,-0.86699,1.87398,-0.20991,-0.69236,-0.61819,0.30728,3.99972,-14.73083,5.80479
-0.37391,1.79281,-0.33194,0.05453,0.07325,0.60903,1.47182,-0.41309,0.44759,-0.11125,-0.93971,1.82647,-0.19926,-0.68865,-0.62562,0.30765,0.73016,-16.63773,4.79514
-0.37368,1.79284,-0.32197,0.05408,0.05442,0.63654,1.54579,-0.57377,0.46791,0.12765,-1.34525,1.53663,-0.18812,-0.68386,-0.63453,0.30710,4.71637,-10.66752,1.29844
-0.37264,1.79256,-0.31193,0.05825,0.03677,0.65458,1.59901,-0.67837,0.42437,0.48136,-1.14079,0.96503,-0.17853,-0.67846,-0.64364,0.30587,4.66607,-7.33893,-2.24863
-0.37136,1.79247,-0.30217,0.06547,0.02700,0.66380,1.62540,-0.73994,0.35128,0.58927,-0.54357,0.47162,-0.17019,-0.67281,-0.65263,0.30405,3.09683,-6.09677,-6.65712
-0.36977,1.79259,-0.29276,0.07670,0.02290,0.66608,1.67363,-0.66459,0.27700,0.37391,0.00725,-0.20448,-0.16416,-0.66537,-0.66157,0.30440,3.33086,2.76877,-5.15256
-0.36843,1.79297,-0.28378,0.08130,0.02400,0.66091,1.73059,-0.46773,0.30522,-0.02775,0.12357,-0.62545,-0.15885,-0.65668,-0.66929,0.30918,4.14079,12.97442,1.12558
-0.36744,1.79331,-0.27513,0.07869,0.02400,0.65142,1.76413,-0.30873,0.39943,-0.18230,-0.13301,-0.65115,-0.15240,-0.64832,-0.67596,0.31549,2.39943,13.48666,8.46073
-0.36668,1.79351,-0.26651,0.07301,0.02185,0.64380,1.74891,-0.32563,0.44453,-0.23559,-0.30429,-0.60856,-0.14419,-0.64171,-0.68269,0.31836,0.74614,3.96001,6.19935
-0.36620,1.79364,-0.25814,0.06390,0.01886,0.63379,1.70155,-0.49520,0.44460,-0.63570,-0.15068,-0.65810,-0.13392,-0.63699,-0.68972,0.31717,-3.00338,-11.00481,-1.84821
-0.36584,1.79388,-0.24985,0.05486,0.01865,0.62477,1.66678,-0.65181,0.44655,-0.66053,0.21995,-0.69188,-0.12303,-0.63235,-0.69672,0.31556,-1.59616,-10.33074,-0.64708
-0.36553,1.79449,-0.24169,0.04720,0.02460,0.61570,1.64032,-0.78497,0.44993,-0.62805,0.72491,-0.86942,-0.11173,-0.62776,-0.70362,0.31362,-1.66110,-11.70257,-0.91918
-0.36548,1.79571,-0.23388,0.03699,0.03947,0.60285,1.60640,-0.91071,0.45285,-0.75690,1.28161,-0.66957,-0.10003,-0.62363,-0.71016,0.31106,-3.22174,-8.77822,-1.17267
-0.36552,1.79748,-0.22614,0.02746,0.06061,0.59167,1.64394,-0.96421,0.48797,-0.67647,1.36901,-0.71307,-0.08800,-0.61778,-0.71722,0.31016,1.45811,-5.91530,0.81927
-0.36541,1.79910,-0.21849,0.02276,0.07407,0.58141,1.72618,-0.92278,0.56242,-0.31226,1.04467,-1.09632,-0.07624,-0.61006,-0.72438,0.31192,5.99173,2.15185,5.94587
-0.36531,1.80100,-0.21157,0.01905,0.08880,0.56103,1.74275,-0.97282,0.58339,-0.05050,0.89728,-1.85327,-0.06385,-0.60366,-0.73114,0.31137,3.70987,-0.62337,3.86155
-0.36541,1.80321,-0.20558,0.01270,0.10582,0.52962,1.68121,-1.05770,0.56499,-0.66422,1.17904,-2.16259,-0.05179,-0.59908,-0.73691,0.30883,-3.03855,-6.87178,-2.94377
-0.36565,1.80559,-0.19968,0.00546,0.12151,0.50403,1.60784,-1.06386,0.59581,-0.85738,1.38007,-2.17128,-0.04036,-0.59457,-0.74152,0.30824,-4.99254,-2.10395,0.86535
-0.36632,1.80849,-0.19417,-0.00732,0.14215,0.47871,1.56245,-1.03995,0.67578,-1.15082,1.64587,-1.44598,-0.02845,-0.58963,-0.74554,0.30935,-5.12922,0.83991,4.73562
-0.36762,1.81170,-0.18868,-0.02818,0.16311,0.45862,1.58856,-1.05172,0.82919,-1.50055,1.04600,-0.98762,-0.01380,-0.58364,-0.74959,0.31191,-0.36913,-0.55840,9.13335
-0.36925,1.81442,-0.18300,-0.04963,0.17062,0.44645,1.62466,-1.16222,0.93286,-1.83000,0.27758,-0.92349,0.00297,-0.57789,-0.75394,0.31242,2.90055,-5.56619,10.36259
-0.37199,1.81677,-0.17765,-0.08454,0.17009,0.43152,1.66463,-1.47315,0.99646,-2.81958,-0.38190,-1.14391,0.02458,-0.57357,-0.75847,0.30844,3.58948,-18.82734,2.94345
-0.37589,1.81864,-0.17269,-0.13078,0.16152,0.41389,1.69036,-1.92870,1.02636,-3.48416,-0.83475,-1.40396,0.05063,-0.57088,-0.76256,0.30007,4.08422,-29.77001,1.07859
-0.38091,1.82022,-0.16821,-0.18502,0.15014,0.39203,1.70545,-2.41736,1.07415,-4.52655,-0.89862,-1.51318,0.08020,-0.56904,-0.76552,0.28938,3.07182,-36.21601,-3.71740
-0.38670,1.82134,-0.16390,-0.23851,0.13391,0.37300,1.80894,-2.82657,1.20825,-4.55721,-1.59164,-1.63869,0.11320,-0.56473,-0.76803,0.27998,6.19272,-33.23508,8.04148
-0.39450,1.82137,-0.16063,-0.31280,0.10342,0.34102,2.02090,-3.43262,1.34593,-4.61621,-2.15210,-2.31543,0.15447,-0.55867,-0.77042,0.26550,14.43120,-38.13073,6.45795
-0.40272,1.82053,-0.15860,-0.37865,0.06419,0.29396,2.26246,-3.85732,1.57531,-3.81380,-2.50999,-3.82398,0.19692,-0.54914,-0.77151,0.25385,15.87903,-29.85404,12.26705
-0.41005,1.81976,-0.15741,-0.41370,0.03566,0.24396,2.39630,-4.01380,1.78813,-2.45740,-2.37674,-4.89536,0.23558,-0.53841,-0.77086,0.24575,10.73153,-19.34983,18.12305
-0.41690,1.81841,-0.15933,-0.43126,0.00429,0.15117,2.45432,-3.88713,2.19785,0.26653,-1.03685,-5.79384,0.27225,-0.52506,-0.76772,0.24658,-0.23190,-0.12044,21.94689
-0.42182,1.81816,-0.16099,-0.41169,-0.00096,0.08453,2.36901,-3.57983,2.46451,2.62115,-0.01530,-5.75198,0.30215,-0.51267,-0.76363,0.25047,-13.45705,17.48301,27.11282
-0.42459,1.81906,-0.16481,-0.35902,0.01573,-0.00376,2.19090,-3.21610,2.58382,4.35591,1.79372,-5.56557,0.32684,-0.50181,-0.75900,0.25550,-17.98339,22.70471,14.32793
-0.42706,1.82080,-0.16892,-0.31434,0.04281,-0.07554,2.08950,-3.16938,2.42141,3.87367,2.54501,-6.35541,0.35250,-0.49305,-0.75478,0.25090,-9.85908,10.55864,-10.01497
-0.42868,1.82371,-0.17577,-0.26670,0.08304,-0.17653,1.95020,-3.33566,2.23416,3.38357,3.27906,-8.18869,0.38063,-0.48720,-0.74780,0.24197,-4.02041,-6.77778,-17.42620
-0.42980,1.82783,-0.18557,-0.22186,0.13458,-0.30433,1.73403,-3.74281,2.11557,2.99758,4.13315,-10.40687,0.41391,-0.48485,-0.73535,0.22992,-5.61160,-24.23928,-17.49298
-0.42950,1.83322,-0.19846,-0.16251,0.19557,-0.45412,1.22874,-4.16848,2.43578,5.24814,4.68063,-11.48771,0.45259,-0.48600,-0.71211,0.22775,-25.67386,-37.88976,2.08537
-0.42612,1.83939,-0.21239,-0.06571,0.25437,-0.58338,0.72545,-4.45718,2.78768,11.03103,5.39298,-10.28836,0.49056,-0.48735,-0.68474,0.23014,-49.25947,-34.04199,23.48852
-0.41608,1.84803,-0.22878,0.11869,0.33992,-0.72127,0.46423,-4.78993,2.60148,16.50788,6.97742,-8.88887,0.52444,-0.49116,-0.65992,0.21961,-20.15059,-28.63921,-11.46289
-0.39710,1.86094,-0.24691,0.41420,0.47974,-0.85794,0.52966,-5.07383,1.67413,20.91288,10.36240,-7.79745,0.54882,-0.49875,-0.64360,0.18928,18.01149,-14.94709,-50.26290
-0.37619,1.87569,-0.26418,0.67131,0.61706,-0.94808,0.52303,-5.31196,0.95962,22.55694,12.65583,-7.70169,0.57190,-0.50729,-0.62483,0.15868,30.90138,-16.32535,-59.36151
-0.34939,1.89433,-0.28205,0.95703,0.78151,-1.02349,0.32518,-5.50633,0.31501,25.29451,14.86623,-5.65317,0.59129,-0.52113,-0.60198,0.12811,8.56633,-16.72333,-55.63898
-0.31285,1.91886,-0.29977,1.33141,1.00166,-1.07862,-0.00141,-5.65055,-0.48452,28.69760,16.64317,-2.75946,0.60346,-0.54256,-0.57673,0.09404,0.62264,-12.69765,-59.45648
-0.26112,1.95142,-0.31481,1.88638,1.31248,-1.07749,-0.71448,-5.54087,-1.54259,33.73164,18.04147,2.43101,0.60150,-0.57740,-0.54850,0.06295,-17.96594,3.88946,-66.53494
-0.21031,1.98259,-0.32698,2.30125,1.53012,-1.02920,-1.08770,-5.38603,-2.53934,36.81589,18.12655,5.78345,0.59476,-0.61017,-0.52267,0.02789,-11.53930,14.14551,-81.21531
-0.14628,2.01842,-0.33556,2.83306,1.77056,-0.93295,-1.26815,-5.32820,-3.99014,40.67332,15.94033,8.59333,0.57473,-0.65010,-0.49654,-0.02227,19.61979,-3.38921,-100.07840
-0.06645,2.05555,-0.33848,3.51544,1.97871,-0.76158,-1.51123,-5.37870,-5.68981,45.78720,9.61320,13.24249,0.54157,-0.69662,-0.46350,-0.08123,19.92982,-13.23394,-103.97060
0.01634,2.08749,-0.33785,4.08622,2.05123,-0.57152,-1.72637,-5.18067,-6.92282,49.61409,2.52765,18.53309,0.50235,-0.73845,-0.42974,-0.13289,16.07117,-7.31711,-106.44820
0.11599,2.11375,-0.32749,4.79442,2.01022,-0.26690,-1.69865,-4.81457,-8.20265,53.29452,-9.54096,24.68025,0.44891,-0.77740,-0.39886,-0.18719,34.71278,7.52043,-87.47559
0.22829,2.12769,-0.30762,5.54817,1.77398,0.12456,-1.38887,-4.04660,-9.54713,55.12598,-25.26221,31.42155,0.37665,-0.81214,-0.37609,-0.23899,48.38440,12.85652,-87.53405
0.35760,2.11971,-0.27485,6.39867,1.22045,0.65741,-0.55817,-3.07396,-11.04436,50.81414,-44.40771,35.37860,0.28305,-0.83728,-0.36421,-0.29360,94.59614,8.00451,-83.09297
0.48362,2.09917,-0.24167,6.97474,0.59873,1.07809,0.14904,-2.67085,-12.35531,44.79560,-60.96944,35.86540,0.18512,-0.85126,-0.34170,-0.35260,85.55413,-12.66028,-85.28017
0.61651,2.04666,-0.19829,7.51893,-0.38465,1.56190,0.93842,-2.47075,-14.12235,31.95486,-80.29814,34.70039,0.06313,-0.85133,-0.31003,-0.41848,68.28532,-42.27335,-114.26570
0.74181,1.96514,-0.14671,7.84163,-1.63704,2.05672,1.80528,-0.98246,-16.20418,12.43626,-101.80920,31.71823,-0.09671,-0.84125,-0.28053,-0.45193,88.67184,-13.84583,-136.32770
0.84875,1.84693,-0.08890,7.79002,-3.21104,2.53497,4.14550,3.29066,-17.60205,-20.71477,-121.97000,30.72548,-0.29939,-0.81202,-0.29977,-0.40140,289.82820,49.06783,-118.11280
0.93058,1.71001,-0.03242,7.34883,-4.69981,2.87531,8.11647,6.02098,-17.92025,-53.74128,-124.34820,25.23151,-0.48835,-0.71959,-0.35568,-0.34233,376.54410,-107.28810,-157.99220
0.96759,1.53680,0.02071,6.29512,-6.40836,3.07703,14.20936,7.68560,-16.88435,-94.84901,-114.63460,3.49042,-0.64804,-0.54821,-0.46566,-0.25035,273.25300,-220.16660,-234.64610
0.96041,1.35560,0.05752,4.77585,-7.85351,2.97250,20.64273,7.00660,-14.73652,-119.08160,-88.42244,-17.32414,-0.73054,-0.30936,-0.59083,-0.14672,240.47990,-288.15150,-349.23750
0.93077,1.19205,0.07690,3.26976,-8.68651,2.62716,23.30322,3.96081,-13.18468,-129.73110,-53.18948,-31.30091,-0.73823,-0.08942,-0.66112,-0.09972,68.72418,-190.20560,-364.42970
0.83385,1.04859,0.06775,1.01815,-9.01503,1.90515,18.96164,-1.72506,-12.53112,-117.03470,6.01866,-36.91896,-0.68390,0.01403,-0.69964,-0.20635,-330.59500,43.43541,-216.70480
0.76050,0.94698,0.06582,-0.40603,-8.61478,1.44846,10.89371,-2.91441,-13.33482,-90.87296,42.32536,-26.79227,-0.67670,0.01404,-0.64408,-0.35641,-427.35790,358.35980,-90.46518
0.68512,0.87435,0.06823,-1.55415,-7.82726,1.16335,3.03163,-0.69368,-12.94268,-57.55590,57.29486,-12.78444,-0.68960,-0.05821,-0.53453,-0.48512,-285.70180,496.55810,38.11434
0.61850,0.80772,0.07631,-2.30968,-7.11090,1.03032,0.33961,0.49700,-11.78325,-47.17962,53.56443,-8.89661,-0.69510,-0.06960,-0.46899,-0.54040,-103.19080,259.40660,97.99747
0.55361,0.74363,0.08447,-2.84964,-6.53113,0.93076,-0.06287,0.17601,-11.05170,-39.11882,48.99780,-8.36909,-0.69088,-0.03243,-0.43630,-0.57556,-48.34106,69.19985,74.63826
0.47922,0.69819,0.08960,-3.41981,-5.77565,0.80347,0.46434,-1.97007,-10.02778,-29.54565,49.38963,-8.77852,-0.66187,0.03593,-0.45209,-0.59687,-53.09916,-119.92130,55.01175
0.41288,0.65873,0.09256,-3.73460,-5.08861,0.66324,0.38562,-3.08866,-9.31128,-17.85792,48.30098,-10.98856,-0.63313,0.09249,-0.45271,-0.62100,-68.78949,-104.22480,53.66174
0.35446,0.62235,0.09407,-3.84154,-4.52009,0.53441,0.04996,-2.41657,-8.86683,-4.93941,46.20194,-10.20946,-0.62481,0.12353,-0.42039,-0.64624,-29.09807,21.84350,25.92009
0.30180,0.59690,0.09460,-3.82849,-3.91222,0.42193,-0.38702,-0.87868,-8.02896,4.05963,41.54868,-6.39026,-0.63012,0.12371,-0.37700,-0.66747,22.75660,110.71720,55.96941
0.25355,0.58037,0.09568,-3.74825,-3.28793,0.33716,-0.79882,0.22350,-6.97219,6.50284,37.33543,-5.06891,-0.63179,0.11562,-0.34257,-0.68565,11.19314,91.77693,60.75035
0.20531,0.56075,0.09681,-3.68520,-2.85621,0.27375,-1.00849,0.43344,-6.35293,5.39413,35.79594,-6.20633,-0.62391,0.12432,-0.31733,-0.70326,-2.98448,36.75409,60.87616
0.15938,0.55097,0.09471,-3.59985,-2.37079,0.17446,-1.00515,0.63489,-5.84801,6.96846,34.66696,-8.46028,-0.61884,0.13363,-0.29180,-0.71696,-0.12452,15.77721,36.15384
0.11627,0.54579,0.09006,-3.48506,-1.92076,0.05561,-0.62483,1.13153,-5.54375,8.80568,30.75810,-8.86193,-0.62414,0.14217,-0.25685,-0.72406,29.34249,20.33576,24.95631
0.07670,0.54346,0.08422,-3.33903,-1.52644,-0.05482,-0.10872,1.62532,-5.20338,12.46195,25.98990,-7.12775,-0.63505,0.14840,-0.22042,-0.72533,56.30792,28.47553,9.77944
0.04048,0.54581,0.07693,-3.16938,-1.13990,-0.16551,0.05531,1.05570,-4.19481,10.30690,22.74808,-7.54817,-0.63541,0.15708,-0.21926,-0.72353,8.11659,-26.48552,60.70962
0.00315,0.54856,0.06866,-3.05299,-0.82974,-0.26949,0.31463,0.21342,-3.67027,7.25954,23.13323,-7.87240,-0.63333,0.18023,-0.22046,-0.71959,-1.30247,-67.38728,50.69734
-0.03250,0.55601,0.05917,-2.93507,-0.51357,-0.36888,0.78768,-0.27769,-3.73241,8.58193,22.70012,-6.09597,-0.63557,0.21118,-0.20716,-0.71312,20.00379,-49.60403,3.55711
-0.06453,0.56692,0.05054,-2.78477,-0.21394,-0.42856,1.22629,-0.60048,-3.98457,12.95155,20.64796,-2.36271,-0.63810,0.24501,-0.18712,-0.70554,28.17991,-26.39096,-20.85921
-0.09109,0.58081,0.04469,-2.57530,0.06498,-0.42990,1.45880,-0.90448,-4.02719,16.76863,19.68060,2.07607,-0.63846,0.27587,-0.17176,-0.69769,16.77883,-26.71051,2.01406
-0.11331,0.59552,0.04202,-2.34728,0.28847,-0.37806,1.37020,-1.01534,-4.12723,21.04532,16.13133,7.88064,-0.63288,0.30369,-0.15360,-0.69545,-1.70143,-16.90594,-26.31002
-0.12465,0.61399,0.04756,-1.99359,0.52145,-0.20136,0.10013,-0.84344,-3.71999,23.83193,10.76182,14.94352,-0.60807,0.30936,-0.14935,-0.71571,-59.71358,19.95912,17.64529
-0.13212,0.62881,0.05753,-1.65178,0.64285,0.00811,-1.39553,0.12346,-3.06947,24.76495,6.99254,13.41098,-0.57858,0.28786,-0.14110,-0.74999,-113.51450,78.32985,42.66501
-0.13308,0.64132,0.06699,-1.28151,0.69851,0.15986,-2.00146,0.99471,-2.44156,28.24919,2.27561,8.19427,-0.56181,0.26414,-0.12902,-0.77327,-29.56689,82.61756,32.56239
-0.12638,0.65116,0.07492,-0.86002,0.69261,0.25000,-1.96634,1.89027,-1.75824,25.30847,-2.10372,2.66107,-0.55747,0.23459,-0.11442,-0.78810,0.10026,63.24652,40.54565
-0.12183,0.65827,0.07991,-0.57387,0.64288,0.27082,-1.53630,2.34604,-1.35183,23.64892,-5.18920,0.26638,-0.56009,0.21412,-0.09831,-0.79422,43.14379,47.30655,24.32376
-0.11168,0.66265,0.08362,-0.26759,0.56102,0.26626,-0.99691,2.65297,-0.93782,21.28908,-6.51426,-0.98071,-0.56801,0.19333,-0.08410,-0.79556,43.69157,23.44110,23.32481
-0.09821,0.66503,0.08646,0.01826,0.47026,0.25121,-0.55835,2.90027,-0.59319,20.18841,-6.49316,-1.07938,-0.57626,0.17163,-0.07026,-0.79595,40.29660,16.97474,18.01701
-0.08134,0.66671,0.08893,0.29433,0.38875,0.23376,-0.33964,3.17596,-0.29775,19.62211,-5.95361,-1.17167,-0.58161,0.14668,-0.05650,-0.79814,25.61239,19.58330,15.35808
-0.06126,0.66745,0.09091,0.55907,0.31095,0.21207,-0.35785,3.35564,0.12047,18.87700,-6.01573,-2.03743,-0.58298,0.11833,-0.04895,-0.80233,7.54348,16.50965,24.79464
-0.03656,0.66625,0.09128,0.84304,0.21760,0.16713,-0.42371,3.41911,0.75010,17.13983,-5.89088,-3.83108,-0.58378,0.08620,-0.05018,-0.80576,2.36753,6.67104,39.30478
-0.01167,0.66459,0.09011,1.06703,0.13763,0.10648,-0.35191,3.37608,1.27256,15.37090,-5.23889,-5.02897,-0.58663,0.05591,-0.05326,-0.80617,10.23344,0.04034,37.27884
0.01530,0.66311,0.08725,1.27015,0.07289,0.03121,-0.19212,3.32684,1.68241,13.76353,-3.96570,-5.87963,-0.59121,0.02603,-0.05659,-0.80411,16.47848,-2.92477,29.78769
0.04485,0.66452,0.08320,1.45284,0.02963,-0.05008,0.00383,3.28126,1.99973,12.10184,-2.88590,-5.86244,-0.59683,-0.00356,-0.05975,-0.80013,19.22734,0.15337,18.88630
0.07536,0.66673,0.07809,1.61153,0.01124,-0.12822,0.10115,3.17678,2.32628,10.25012,-0.65180,-5.42493,-0.60064,-0.03309,-0.06639,-0.79607,15.25949,-6.14983,22.86856
0.10608,0.66829,0.07193,1.74649,0.01652,-0.20352,0.14957,3.13461,2.49172,8.84067,1.09470,-5.16218,-0.60310,-0.06214,-0.07059,-0.79210,7.02188,-4.16792,14.18902
0.13748,0.66994,0.06487,1.86632,0.04102,-0.27512,0.13750,3.12204,2.63516,8.50203,2.35246,-5.00300,-0.60382,-0.09198,-0.07470,-0.78827,2.09767,0.48124,6.63863
0.16923,0.67275,0.05751,1.96208,0.07860,-0.33395,0.07959,3.09369,2.85537,7.78176,3.67952,-4.94425,-0.60256,-0.12346,-0.08182,-0.78421,-0.10320,-2.62416,17.67192
0.20266,0.67766,0.04837,2.06188,0.14143,-0.40757,0.05556,3.06943,3.09253,6.34980,5.57199,-5.70455,-0.60083,-0.15602,-0.09068,-0.77874,0.99680,-3.14477,19.65014
0.23651,0.68537,0.03708,2.14700,0.23729,-0.50017,0.09053,3.13202,3.11233,4.10661,6.81445,-5.75764,-0.60020,-0.18729,-0.09418,-0.77189,1.88417,3.38486,3.99299
0.26928,0.69460,0.02548,2.19572,0.33757,-0.57786,0.11911,3.22119,2.98747,2.77251,7.90028,-5.33919,-0.59968,-0.21677,-0.09352,-0.76462,0.39623,5.84260,-7.70607
0.30109,0.70393,0.01369,2.22246,0.43429,-0.63921,0.05815,3.31247,2.86375,1.90558,8.83585,-4.75623,-0.59691,-0.24626,-0.09134,-0.75810,-5.26833,6.68550,-9.95488
0.33237,0.71483,0.00079,2.23975,0.55853,-0.70316,-0.09716,3.40421,2.80651,1.21636,9.77485,-4.49227,-0.59086,-0.27695,-0.08889,-0.75252,-13.04066,5.90246,-5.16422
0.36331,0.72825,-0.01275,2.24340,0.69460,-0.76382,-0.30897,3.42016,2.93587,-0.17379,10.50591,-4.43283,-0.58084,-0.30944,-0.09091,-0.74740,-12.67155,-0.56788,10.34924
0.39364,0.74675,-0.02719,2.22832,0.84231,-0.82549,-0.50891,3.39628,3.10104,-1.84613,10.70691,-4.53836,-0.56866,-0.34207,-0.09462,-0.74206,-12.31877,-2.38190,13.69527
0.42195,0.76864,-0.04308,2.18362,1.01025,-0.89860,-0.67854,3.31126,3.32922,-3.75371,10.37760,-4.85248,-0.55448,-0.37443,-0.10142,-0.73626,-7.00692,-6.72990,16.46809
0.44801,0.79195,-0.06009,2.10907,1.16778,-0.97539,-0.75551,3.22334,3.52294,-5.80202,9.53772,-4.87316,-0.54061,-0.40597,-0.10904,-0.72872,-1.65931,-5.46857,13.78323
