posX, posY, posZ, velX, velY, velZ, angVelX, angVelY, angVelZ, accX, accY, accZ, rotX, rotY, rotZ, rotW, angAccX, angAccY, angAccZ
0.01487,1.61388,-0.56695,-1.05902,0.71023,0.00203,0.95683,1.34684,1.31079,0.72646,-1.65921,1.82533,-0.25770,-0.88124,-0.39214,-0.05686,0.60621,-0.97414,-0.21145
0.00100,1.62230,-0.56579,-1.04716,0.68584,0.02588,0.98283,1.37370,1.25227,0.82029,-1.87291,1.62668,-0.25554,-0.88076,-0.39636,-0.04310,0.72061,0.88669,-3.99046
-0.01247,1.62998,-0.56415,-1.03122,0.65488,0.05040,0.99330,1.40515,1.16980,1.02180,-2.05332,1.53077,-0.25439,-0.87994,-0.40014,-0.02950,1.05744,3.06219,-4.98138
-0.02578,1.63729,-0.56247,-1.01753,0.62572,0.06911,0.95142,1.39262,1.11122,0.81359,-2.01930,1.24073,-0.25259,-0.87952,-0.40294,-0.01708,-2.51244,-0.47719,-4.70524
-0.03876,1.64399,-0.56070,-1.00268,0.59302,0.08593,0.90675,1.43953,1.08240,0.67642,-1.54868,0.72477,-0.25089,-0.87923,-0.40496,-0.00346,-3.43420,1.13104,-1.74216
-0.06596,1.65920,-0.55745,-0.99339,0.57379,0.09713,0.90444,1.52548,1.08297,0.79822,-1.66670,1.08465,-0.24683,-0.87765,-0.41004,0.02597,-0.45675,8.12499,0.13589
-0.07886,1.66545,-0.55450,-0.98075,0.54770,0.11850,0.84329,1.45556,1.11292,0.92596,-1.62846,1.80993,-0.24262,-0.87769,-0.41155,0.03789,-3.18912,-1.34693,1.16159
-0.09180,1.67153,-0.55103,-0.97086,0.52424,0.14451,0.78439,1.27889,1.16042,0.75843,-1.72350,1.94476,-0.23604,-0.87803,-0.41376,0.04637,-2.93541,-12.50593,3.38145
-0.10433,1.67707,-0.54697,-0.95611,0.49667,0.17401,0.76102,1.10418,1.17693,0.96823,-1.80090,1.64700,-0.22957,-0.87785,-0.41688,0.05382,-0.60798,-11.99348,1.02893
-0.11639,1.68223,-0.54299,-0.93717,0.46868,0.19701,0.74577,1.01006,1.14415,1.17077,-1.73988,1.14358,-0.22497,-0.87717,-0.41967,0.06196,-0.84734,-7.24060,-1.86128
-0.12808,1.68714,-0.53917,-0.91561,0.44176,0.21391,0.74786,1.05760,1.07119,1.36975,-1.63226,0.91799,-0.22313,-0.87572,-0.42190,0.07299,-0.83228,2.05554,-3.98153
-0.13940,1.69198,-0.53537,-0.89380,0.41993,0.22753,0.74872,1.12264,0.99143,1.66356,-1.55446,1.13017,-0.22228,-0.87393,-0.42390,0.08449,0.24055,5.93690,-5.47608
-0.15070,1.69675,-0.53128,-0.87618,0.40218,0.24255,0.72321,1.09299,0.94577,1.45325,-1.47850,1.56578,-0.22005,-0.87265,-0.42574,0.09387,-1.90065,0.88357,-4.70176
-0.16165,1.70103,-0.52639,-0.85730,0.38081,0.26904,0.70755,0.98358,0.93706,1.04857,-1.12711,1.82303,-0.21596,-0.87164,-0.42821,0.10119,-1.36971,-7.58366,-1.62541
-0.17251,1.70531,-0.52107,-0.84131,0.36371,0.29946,0.75401,0.89052,0.95411,0.85804,-0.99642,1.91159,-0.21099,-0.86996,-0.43216,0.10904,2.74452,-6.83798,0.37393
-0.18335,1.70959,-0.51561,-0.82780,0.35035,0.32416,0.83082,0.88796,0.95277,0.96738,-0.86880,1.58181,-0.20708,-0.86738,-0.43666,0.11876,4.74290,-1.75861,0.43481
-0.19387,1.71394,-0.51064,-0.81236,0.34141,0.33986,0.89035,0.93721,0.93056,1.41036,-0.75576,1.28311,-0.20435,-0.86434,-0.44086,0.12960,5.66362,3.32954,-1.09529
-0.20355,1.71808,-0.50566,-0.78718,0.33058,0.35702,0.93100,0.95613,0.87229,1.72740,-0.83360,1.28950,-0.20250,-0.86104,-0.44514,0.13946,3.04633,3.92130,-3.52455
-0.21318,1.72209,-0.50030,-0.76576,0.32029,0.37102,0.89755,0.82940,0.82154,1.53243,-0.70210,1.06181,-0.19916,-0.85904,-0.44868,0.14514,-1.51140,-7.00481,-3.98802
-0.22270,1.72608,-0.49465,-0.74734,0.31188,0.38384,0.87346,0.71886,0.80141,1.09739,-0.56787,0.90557,-0.19512,-0.85716,-0.45223,0.15063,-1.90203,-9.01621,-2.83200
-0.23225,1.72998,-0.48893,-0.73339,0.30407,0.39469,0.87246,0.63638,0.80594,0.86889,-0.51867,0.63757,-0.19049,-0.85509,-0.45609,0.15654,0.28278,-6.70263,-0.09961
-0.24159,1.73384,-0.48328,-0.71900,0.29749,0.40051,0.87709,0.64510,0.81213,1.02074,-0.48455,0.18527,-0.18665,-0.85260,-0.45960,0.16431,0.64509,-2.09750,0.89141
-0.25054,1.73768,-0.47795,-0.70146,0.29189,0.40191,0.88279,0.72442,0.78211,1.29894,-0.41128,0.08486,-0.18465,-0.84948,-0.46281,0.17350,0.01997,4.84932,-1.30541
-0.25893,1.74141,-0.47265,-0.67789,0.28534,0.40305,0.90706,0.88175,0.73383,1.52465,-0.47336,0.19149,-0.18442,-0.84539,-0.46599,0.18485,0.36418,9.24274,-2.21658
-0.26704,1.74495,-0.46688,-0.65484,0.27754,0.40785,0.95781,1.01303,0.67019,1.82283,-0.68859,0.49504,-0.18483,-0.84050,-0.46997,0.19625,2.83204,10.45893,-4.03572
-0.27463,1.74824,-0.46096,-0.62851,0.26696,0.41407,0.98448,1.05137,0.59846,2.18043,-0.87592,0.55406,-0.18508,-0.83583,-0.47412,0.20579,2.39648,5.71780,-4.97075
-0.28163,1.75131,-0.45498,-0.59825,0.25526,0.41972,0.98005,0.98211,0.51696,2.37239,-0.84255,0.41636,-0.18475,-0.83184,-0.47833,0.21239,-0.40656,-3.00205,-5.27091
-0.28817,1.75424,-0.44913,-0.56679,0.24401,0.42360,0.96069,0.85605,0.44924,2.28578,-0.84322,0.20619,-0.18368,-0.82842,-0.48260,0.21700,-1.28364,-7.75938,-6.02188
-0.29431,1.75714,-0.44372,-0.53521,0.23465,0.42257,0.92314,0.76489,0.36765,2.15683,-0.58456,-0.22135,-0.18345,-0.82514,-0.48643,0.22110,-3.15398,-8.68573,-5.55352
-0.30023,1.76001,-0.43839,-0.50797,0.22731,0.41933,0.92618,0.82524,0.30385,2.11157,-0.60021,-0.31616,-0.18488,-0.82053,-0.49026,0.22847,-1.83523,0.82278,-5.37360
-0.30523,1.76258,-0.43320,-0.47168,0.21664,0.41274,0.95336,0.99320,0.21847,2.30910,-0.70031,-0.48272,-0.18874,-0.81444,-0.49418,0.23842,1.63738,10.35171,-4.84636
-0.31002,1.76508,-0.42812,-0.43947,0.20704,0.40620,0.98748,1.10415,0.14609,2.32551,-0.71803,-0.27218,-0.19241,-0.80811,-0.49850,0.24787,1.56016,9.75236,-4.85735
-0.31424,1.76723,-0.42294,-0.40477,0.19366,0.40238,1.05095,1.18157,0.06750,2.29718,-0.87980,-0.20578,-0.19622,-0.80101,-0.50382,0.25700,4.39522,6.43179,-4.58144
-0.31844,1.76938,-0.41765,-0.37935,0.18398,0.39825,1.07241,1.19460,0.00558,2.12528,-0.80026,-0.46839,-0.19958,-0.79450,-0.50875,0.26479,2.13244,1.83883,-5.61694
-0.32211,1.77135,-0.41273,-0.35112,0.17377,0.38905,1.06986,1.21374,-0.06187,1.85804,-0.73220,-0.82089,-0.20367,-0.78796,-0.51329,0.27234,-0.09086,0.63297,-4.58091
-0.32558,1.77324,-0.40814,-0.32637,0.16459,0.37605,1.05720,1.28148,-0.10213,1.67772,-0.62111,-1.01593,-0.20831,-0.78111,-0.51711,0.28118,-0.58504,4.80566,-3.10875
-0.32892,1.77507,-0.40392,-0.30516,0.15670,0.36017,1.01234,1.27330,-0.11316,1.60477,-0.62838,-1.16051,-0.21190,-0.77526,-0.52029,0.28875,-2.31102,1.81846,-0.70592
-0.33204,1.77684,-0.39982,-0.28484,0.14971,0.34636,0.95782,1.24973,-0.13208,1.34516,-0.38345,-0.66746,-0.21559,-0.76978,-0.52310,0.29551,-5.47829,-3.32887,-0.93364
-0.33531,1.77850,-0.39583,-0.26506,0.14092,0.34017,0.98221,1.24041,-0.15136,1.27927,-0.52862,-0.12488,-0.21900,-0.76307,-0.52732,0.30281,0.90975,0.55183,-1.22405
-0.34144,1.78073,-0.39410,-0.25701,0.13585,0.33587,1.01821,1.24520,-0.15403,0.95515,-0.35096,0.07405,-0.22210,-0.75602,-0.53168,0.31051,2.03003,-1.46808,-0.83837
-0.34764,1.78308,-0.39212,-0.25282,0.13323,0.33417,1.05673,1.23556,-0.11308,1.01897,-0.32776,0.10050,-0.22400,-0.74899,-0.53596,0.31872,4.68362,2.90418,2.25533
-0.35187,1.78517,-0.38850,-0.24586,0.13312,0.33245,0.99102,1.05910,-0.06042,0.77895,-0.08350,-0.06087,-0.22368,-0.74500,-0.53909,0.32300,-2.86664,-11.15825,3.50435
-0.35478,1.78704,-0.38386,-0.23623,0.13295,0.33150,0.90356,0.84043,-0.00586,0.80298,-0.04268,-0.14528,-0.22207,-0.74244,-0.54180,0.32545,-5.92695,-14.70699,3.87510
-0.35747,1.78897,-0.37931,-0.22514,0.13400,0.32946,0.75872,0.56772,0.02224,0.85422,0.06411,-0.11097,-0.21980,-0.74202,-0.54362,0.32490,-9.20315,-19.33635,1.91901
-0.35990,1.79082,-0.37466,-0.21258,0.13337,0.32984,0.67745,0.41204,0.03002,0.66928,-0.03465,0.11796,-0.21830,-0.74069,-0.54582,0.32527,-8.34223,-15.44940,-0.17191
-0.36214,1.79253,-0.36983,-0.19935,0.13035,0.33271,0.67088,0.39515,0.02749,0.97544,-0.19498,0.18337,-0.21802,-0.73750,-0.54859,0.32805,-1.47020,-2.52611,0.46565
-0.36420,1.79422,-0.36503,-0.18666,0.12789,0.33437,0.67028,0.42339,0.01706,0.99544,-0.21597,0.03854,-0.21852,-0.73376,-0.55126,0.33161,-0.13676,0.96570,-0.92532
-0.36579,1.79579,-0.36031,-0.16903,0.12399,0.33455,0.69057,0.56474,0.01811,1.17421,-0.34399,-0.09601,-0.22050,-0.72856,-0.55349,0.33799,1.45239,8.46393,0.56520
-0.36731,1.79728,-0.35571,-0.15428,0.11964,0.33271,0.66504,0.61382,-0.01407,1.49238,-0.51308,-0.23958,-0.22266,-0.72428,-0.55551,0.34242,-0.18753,7.70866,-0.64651
-0.36842,1.79854,-0.35114,-0.13657,0.11246,0.33082,0.62168,0.59659,-0.06975,1.19871,-0.59849,-0.05675,-0.22489,-0.72075,-0.55765,0.34492,-4.13138,-1.13288,-4.14891
-0.36922,1.79944,-0.34640,-0.11763,0.10086,0.33151,0.62439,0.61220,-0.12328,1.20702,-0.65543,0.17113,-0.22742,-0.71626,-0.56043,0.34809,-0.58713,1.00325,-3.25461
-0.37006,1.80032,-0.34141,-0.10406,0.09176,0.33583,0.65016,0.60932,-0.16522,1.12723,-0.78934,0.45031,-0.22952,-0.71146,-0.56380,0.35110,1.25253,1.66678,-3.28499
-0.37086,1.80102,-0.33624,-0.09341,0.08211,0.34205,0.69367,0.57075,-0.20107,0.75982,-0.74944,0.48964,-0.23083,-0.70657,-0.56801,0.35334,3.08944,-2.84144,-3.95372
-0.37135,1.80139,-0.33088,-0.08024,0.06893,0.34948,0.77680,0.55348,-0.21880,0.46306,-0.52172,0.27557,-0.23159,-0.70077,-0.57302,0.35629,3.96576,-1.21805,-1.21553
-0.37215,1.80199,-0.32570,-0.07518,0.06250,0.35236,0.83112,0.57137,-0.20039,0.34847,-0.56767,0.07699,-0.23229,-0.69498,-0.57724,0.36034,4.80922,0.85001,0.62971
-0.37284,1.80243,-0.32056,-0.06972,0.05510,0.35392,0.86346,0.56394,-0.18791,0.45195,-0.63942,0.07282,-0.23275,-0.68947,-0.58140,0.36391,3.13552,0.30287,1.23499
-0.37359,1.80263,-0.31541,-0.06606,0.04500,0.35647,0.88293,0.51749,-0.17965,0.17194,-0.76109,0.29549,-0.23265,-0.68443,-0.58570,0.36659,0.74421,-2.39533,-0.09731
-0.37446,1.80263,-0.31009,-0.06574,0.03408,0.36140,0.91004,0.43929,-0.15506,-0.02373,-0.80226,0.35707,-0.23131,-0.67971,-0.59034,0.36876,2.59278,-5.24388,1.25970
-0.37545,1.80248,-0.30467,-0.06735,0.02323,0.36742,0.95100,0.33775,-0.11904,-0.17503,-0.80033,0.44610,-0.22869,-0.67521,-0.59543,0.37049,2.17907,-6.95038,1.84614
-0.37636,1.80213,-0.29905,-0.06908,0.01184,0.37297,0.99228,0.22766,-0.07900,-0.04989,-0.74285,0.26022,-0.22511,-0.67089,-0.60080,0.37185,3.57862,-7.59313,2.41008
-0.37719,1.80182,-0.29351,-0.06901,0.00398,0.37578,1.01317,0.14943,-0.06428,-0.03013,-0.63190,0.09224,-0.22197,-0.66659,-0.60606,0.37293,2.04147,-7.78372,1.21158
-0.37790,1.80141,-0.28811,-0.06660,-0.00361,0.37581,1.02692,0.11849,-0.03492,0.11889,-0.37639,-0.09461,-0.21894,-0.66212,-0.61088,0.37483,0.75166,-3.80494,1.30106
-0.37838,1.80102,-0.28271,-0.06154,-0.00863,0.37583,1.05639,0.15932,-0.01038,0.36588,-0.28063,0.04557,-0.21680,-0.65658,-0.61554,0.37818,1.30786,2.29621,2.39231
-0.37870,1.80059,-0.27721,-0.05473,-0.01324,0.37830,1.11535,0.21975,0.00867,0.59105,-0.27613,0.26201,-0.21479,-0.65003,-0.62063,0.38229,3.82793,4.42820,1.68807
-0.37891,1.80009,-0.27161,-0.04664,-0.01807,0.38278,1.14979,0.19770,0.00662,0.72945,-0.45364,0.25521,-0.21201,-0.64418,-0.62610,0.38481,4.09200,1.47634,0.90662
-0.37912,1.79964,-0.26596,-0.04019,-0.02130,0.38730,1.15884,0.10861,-0.00796,0.45691,-0.22567,0.36670,-0.20834,-0.63937,-0.63185,0.38545,0.50583,-7.38063,-2.10112
-0.37912,1.79908,-0.25997,-0.03185,-0.02549,0.39637,1.19161,0.06048,0.01168,0.52954,-0.25973,0.84054,-0.20410,-0.63403,-0.63753,0.38717,1.32004,-3.39042,1.11296
-0.37905,1.79841,-0.25354,-0.02412,-0.03088,0.41127,1.26928,0.00040,0.00195,0.63722,-0.37793,1.28609,-0.19933,-0.62775,-0.64453,0.38831,4.41842,-3.86885,-0.52761
-0.37868,1.79766,-0.24654,-0.01477,-0.03623,0.43127,1.36344,-0.08421,-0.03913,0.67678,-0.28242,1.63347,-0.19403,-0.62094,-0.65271,0.38827,6.44317,-5.55179,-2.59018
-0.37828,1.79693,-0.23894,-0.00700,-0.03981,0.45705,1.50751,-0.18157,-0.05953,0.42720,-0.14749,1.99249,-0.18710,-0.61307,-0.66217,0.38816,9.85446,-5.75255,-2.70295
-0.37807,1.79622,-0.23073,-0.00378,-0.04218,0.48756,1.65050,-0.32328,-0.03779,-0.03096,-0.22053,2.38887,-0.17776,-0.60542,-0.67205,0.38757,9.69232,-10.26248,-0.31791
-0.37788,1.79519,-0.22168,-0.00425,-0.04838,0.52395,1.83150,-0.42630,0.03343,-0.22916,-0.62153,2.85452,-0.16663,-0.59645,-0.68237,0.38840,12.46854,-8.57115,3.56409
-0.37786,1.79366,-0.21169,-0.00716,-0.06151,0.56790,2.06824,-0.56902,0.07782,-0.19915,-1.10350,3.39657,-0.15323,-0.58596,-0.69454,0.38832,15.45952,-8.91806,4.17859
-0.37815,1.79176,-0.20100,-0.01176,-0.07905,0.61465,2.33025,-0.74898,0.07896,-0.36500,-1.30922,3.24679,-0.13796,-0.57408,-0.70853,0.38651,19.78094,-12.38764,-0.59687
-0.37860,1.78966,-0.18984,-0.01750,-0.09614,0.65833,2.55412,-0.93852,0.06109,-0.48805,-1.18169,3.02014,-0.12158,-0.56185,-0.72293,0.38329,16.51014,-13.46027,-1.90136
-0.37922,1.78757,-0.17854,-0.02456,-0.10875,0.69378,2.72027,-1.10494,0.05632,-0.83198,-1.03476,2.86443,-0.10450,-0.54965,-0.73682,0.37955,14.30773,-13.09201,-2.85795
-0.38041,1.78502,-0.16621,-0.04033,-0.12607,0.73779,2.94781,-1.23643,0.13730,-1.36183,-1.16934,2.72441,-0.08457,-0.53529,-0.75086,0.37753,13.71889,-10.34820,3.27523
-0.38201,1.78213,-0.15368,-0.05972,-0.14535,0.77506,3.15424,-1.32363,0.25952,-1.55874,-1.61736,2.55762,-0.06356,-0.51986,-0.76396,0.37692,14.31659,-7.18228,8.83262
-0.38381,1.77907,-0.14133,-0.07688,-0.16235,0.80003,3.28986,-1.41266,0.32800,-1.83152,-1.84288,2.43356,-0.04255,-0.50454,-0.77650,0.37507,13.66200,-8.46598,7.41199
-0.38932,1.77565,-0.12778,-0.11413,-0.19313,0.83879,3.53361,-1.57162,0.42750,-2.21309,-2.13157,2.28589,-0.01696,-0.48652,-0.79001,0.37269,14.19870,-10.73672,5.38089
-0.39684,1.77199,-0.11411,-0.15670,-0.22844,0.87243,3.84761,-1.65791,0.61201,-2.34778,-2.57101,1.64029,0.01079,-0.46482,-0.80295,0.37295,18.43020,-8.37495,9.86316
-0.40274,1.76760,-0.10105,-0.18669,-0.25916,0.88845,4.07206,-1.73509,0.73050,-1.82046,-2.87136,0.81329,0.03822,-0.44283,-0.81482,0.37216,19.31310,-7.20267,14.42799
-0.40676,1.76156,-0.08836,-0.20983,-0.29903,0.89353,4.32751,-1.74502,0.84336,-1.69607,-2.94717,-0.09645,0.06575,-0.41757,-0.82641,0.37197,16.83739,-5.46544,5.40872
-0.41082,1.75415,-0.07679,-0.22882,-0.35414,0.87793,4.66073,-1.58584,1.12051,-0.60810,-3.08550,-1.74247,0.09341,-0.38647,-0.83608,0.37800,17.44068,5.74091,22.66302
-0.41453,1.74724,-0.06599,-0.23793,-0.38817,0.85336,4.77972,-1.52859,1.18932,-0.71618,-2.87470,-2.54597,0.11872,-0.35894,-0.84459,0.37912,11.03405,3.53956,9.69896
-0.41861,1.73951,-0.05665,-0.25109,-0.42749,0.81004,4.88544,-1.48817,1.32126,-1.12212,-2.84908,-3.93256,0.14507,-0.33025,-0.85110,0.38146,8.41952,2.16115,10.54654
-0.42342,1.73091,-0.04948,-0.27384,-0.47315,0.73886,4.93769,-1.55765,1.43373,-1.81049,-3.05462,-5.15338,0.17330,-0.30281,-0.85563,0.38232,2.73089,-4.90232,5.61375
-0.42866,1.72215,-0.04318,-0.29847,-0.51063,0.67014,4.98742,-1.67784,1.55904,-2.30830,-3.17411,-6.39998,0.20338,-0.27523,-0.85816,0.38269,3.62613,-10.46909,6.22704
-0.43471,1.71242,-0.03970,-0.33050,-0.55470,0.57098,5.04596,-1.84661,1.76128,-2.55552,-3.23484,-7.82002,0.23639,-0.24700,-0.85766,0.38410,3.85391,-14.76294,8.42090
-0.44142,1.70187,-0.03872,-0.36610,-0.60256,0.45321,5.14765,-2.08136,2.07988,-2.87093,-3.62951,-9.15796,0.27357,-0.21710,-0.85314,0.38752,5.73306,-19.11480,16.76042
-0.44910,1.69050,-0.04069,-0.40986,-0.65279,0.31325,5.29513,-2.52380,2.29188,-3.14403,-3.53637,-10.89652,0.31696,-0.18769,-0.84554,0.38649,12.00020,-31.07892,11.46775
-0.45770,1.67863,-0.04603,-0.45866,-0.69954,0.14940,5.45216,-3.16577,2.36142,-3.48161,-3.14034,-12.83350,0.36657,-0.16042,-0.83432,0.37922,16.59022,-40.59254,-4.05286
-0.46683,1.66659,-0.05537,-0.50450,-0.73806,-0.04320,5.60094,-3.92637,2.29974,-2.73286,-2.38179,-15.10493,0.42102,-0.13565,-0.81893,0.36563,21.32678,-47.72320,-16.99344
-0.47537,1.65474,-0.06939,-0.52955,-0.76429,-0.26931,5.76189,-4.66331,2.20677,-0.73692,-1.25046,-17.45742,0.47776,-0.11130,-0.79881,0.34822,21.90194,-47.09620,-19.84797
-0.48251,1.64394,-0.08820,-0.52510,-0.76622,-0.52247,5.90010,-5.29424,1.96091,1.84212,1.31080,-18.98708,0.53326,-0.08858,-0.77599,0.32500,22.37042,-39.31775,-23.02681
-0.48763,1.63559,-0.11114,-0.48765,-0.72654,-0.78508,5.98569,-5.73830,1.45971,3.95917,4.51888,-18.78165,0.58396,-0.06941,-0.75359,0.29372,23.04450,-19.58385,-38.86765
-0.49034,1.63055,-0.13709,-0.41859,-0.64047,-1.03601,5.97129,-6.03724,1.01998,5.80916,8.00493,-17.66110,0.63067,-0.05254,-0.72876,0.26153,18.59225,-9.30003,-36.62806
-0.49033,1.62946,-0.16512,-0.32049,-0.50874,-1.26348,5.71535,-6.34621,0.77416,7.84849,11.04537,-15.83035,0.67509,-0.04114,-0.69833,0.23429,-0.24434,-10.42170,-30.98068
-0.48693,1.63251,-0.19460,-0.18839,-0.33864,-1.46176,5.19964,-6.66920,0.71822,10.71685,13.48317,-13.18117,0.71722,-0.03576,-0.66195,0.21481,-24.93226,-20.90970,-25.91739
-0.47838,1.64117,-0.22562,0.00234,-0.11087,-1.64166,4.39816,-6.90916,0.65235,13.00087,15.15174,-10.30053,0.75433,-0.03896,-0.62345,0.20195,-39.72728,-12.36050,-27.82856
-0.46707,1.65230,-0.25569,0.19751,0.10831,-1.76585,3.57346,-7.21805,0.59867,15.01706,16.73391,-7.86444,0.79003,-0.04664,-0.58009,0.19282,-50.17365,-20.08627,-29.41431
-0.45177,1.66781,-0.28563,0.41443,0.35024,-1.85758,2.79296,-7.44366,0.31364,16.54819,18.24162,-5.24043,0.82178,-0.06130,-0.53644,0.18208,-43.35360,-13.78669,-42.80459
-0.43212,1.68781,-0.31446,0.65379,0.61094,-1.90733,2.14043,-7.63405,-0.15433,18.55325,17.19898,2.21716,0.85035,-0.08172,-0.49186,0.16823,-36.52610,-8.91197,-48.47327
-0.40770,1.71343,-0.34160,0.91742,0.90536,-1.91686,1.47130,-7.63993,-0.64881,18.50425,20.89416,1.10036,0.87304,-0.10675,-0.44939,0.15637,-26.06119,7.06387,-54.94953
-0.37992,1.74372,-0.36600,1.17549,1.20984,-1.87654,1.00447,-7.47223,-1.54161,18.76863,22.83519,4.38438,0.88965,-0.14112,-0.41259,0.13556,-1.28879,20.73469,-64.48640
-0.34805,1.77954,-0.38705,1.44203,1.53634,-1.78835,0.51531,-7.28230,-2.64418,19.85854,24.36358,8.25183,0.90020,-0.18700,-0.37699,0.11208,0.26258,13.03328,-82.41152
-0.31181,1.82099,-0.40400,1.71968,1.88087,-1.65102,0.23207,-6.90705,-3.96706,20.82466,25.55088,12.07297,0.90239,-0.24162,-0.34750,0.08091,21.95354,24.44452,-91.31221
-0.27073,1.86824,-0.41602,2.01394,2.24248,-1.46214,0.23104,-6.24854,-5.49437,22.22619,26.80984,15.82495,0.89355,-0.30395,-0.32798,0.04010,44.95619,35.55192,-96.35941
-0.22466,1.91684,-0.42812,2.28841,2.55870,-1.27065,0.46482,-5.54389,-7.02502,24.10790,27.42297,18.15629,0.87399,-0.37104,-0.31365,-0.00955,78.84163,40.31328,-101.09770
-0.16884,1.97273,-0.43236,2.64947,2.92416,-0.99450,0.65899,-4.72666,-9.09754,28.05942,25.80039,22.08725,0.83280,-0.45737,-0.30436,-0.06795,87.82424,30.42744,-123.21890
-0.10343,2.03219,-0.42718,3.10059,3.25745,-0.64715,0.45834,-3.76812,-11.44269,38.17590,22.85984,27.68528,0.76522,-0.55971,-0.29451,-0.12012,67.88094,39.52985,-146.44070
-0.02349,2.09444,-0.41117,3.70294,3.52539,-0.22507,0.42876,-2.40482,-14.21012,48.89949,14.45649,32.82537,0.65884,-0.67123,-0.29140,-0.17455,95.97151,57.08709,-185.28260
0.07436,2.14983,-0.38572,4.46051,3.61944,0.25384,0.50738,-0.84592,-16.84067,61.14928,-2.08106,36.30232,0.51809,-0.77387,-0.28842,-0.22256,110.12700,45.31164,-184.94140
0.20884,2.18258,-0.34128,5.69103,3.29582,0.95495,1.26217,1.69219,-20.00124,74.54992,-37.40216,41.56724,0.31841,-0.85983,-0.30085,-0.26229,137.28630,40.56740,-182.24100
0.34077,2.19337,-0.29935,6.58851,2.66740,1.44587,2.61215,3.39795,-21.67518,73.25269,-69.13338,40.68976,0.12264,-0.89451,-0.30965,-0.29821,151.11960,-18.86687,-170.97180
0.48730,2.15799,-0.24752,7.49318,1.41585,1.97857,4.51171,5.31177,-23.01187,51.62392,-110.25430,33.88248,-0.09410,-0.88493,-0.32694,-0.31806,134.17370,-63.24810,-165.10760
0.62065,2.07273,-0.19480,7.96005,-0.38529,2.39173,6.90498,7.60156,-22.77501,11.75669,-142.05560,22.39696,-0.29150,-0.83057,-0.36719,-0.30058,170.52470,-102.31020,-97.44961
0.72733,1.94661,-0.14698,7.83679,-2.45309,2.59775,10.22656,9.23446,-21.64328,-30.39585,-149.68510,4.66650,-0.46577,-0.72731,-0.42778,-0.26663,172.35470,-200.88610,-96.77824
0.80552,1.80817,-0.11241,7.28000,-4.18083,2.54703,13.05029,9.81783,-20.69097,-63.78311,-138.45720,-13.90131,-0.61606,-0.58994,-0.47037,-0.22626,95.52930,-208.36000,-139.32710
0.82828,1.63404,-0.09726,5.93851,-6.09278,2.18969,16.78455,9.45094,-19.08721,-102.33710,-95.92115,-30.27150,-0.72446,-0.40708,-0.52961,-0.17016,45.45465,-172.71670,-157.19670
0.82096,1.48832,-0.09258,4.39930,-7.11031,1.73415,19.62565,7.34868,-16.76191,-112.14470,-49.26705,-32.00865,-0.76663,-0.22001,-0.59126,-0.11956,-0.96480,-248.40150,-192.70350
0.80489,1.36926,-0.09112,3.10588,-7.42816,1.34943,19.62959,4.23691,-14.63228,-100.93100,-9.39220,-27.29727,-0.76357,-0.07691,-0.63241,-0.10537,-182.95990,-181.21830,-149.97990
0.76520,1.27423,-0.09193,1.73403,-7.27591,1.02408,16.71817,0.90282,-11.52124,-72.45863,19.36883,-11.85001,-0.72496,-0.01925,-0.67780,-0.12102,-291.53130,-131.37010,-29.36864
0.74009,1.19149,-0.08022,0.90492,-6.96164,0.97860,11.70040,-0.67063,-9.31483,-51.75530,18.79913,4.55084,-0.70409,-0.02487,-0.68986,-0.16649,-367.65580,-26.47212,117.42170
0.71233,1.11089,-0.06014,0.22291,-6.68309,1.08351,5.86460,-1.35144,-8.19184,-49.97826,20.06348,8.74926,-0.68836,-0.06437,-0.67599,-0.25507,-430.59090,123.95280,66.74062
0.68020,1.03090,-0.03905,-0.36105,-6.46688,1.18351,1.42181,-0.94514,-7.85936,-50.08484,16.65713,5.75129,-0.68293,-0.09741,-0.63668,-0.34462,-333.40280,187.87730,40.22987
0.62974,0.95576,-0.02096,-1.11157,-6.21971,1.20967,-2.39361,0.93167,-8.89149,-43.68904,19.47321,-2.00040,-0.69739,-0.12070,-0.54257,-0.45243,-181.40000,246.66380,-84.60886
0.57568,0.88599,-0.00774,-1.76901,-5.92942,1.14777,-2.24603,1.41858,-9.18382,-35.91366,24.02332,-5.52638,-0.71054,-0.08565,-0.49220,-0.49551,7.22833,58.59208,-40.90396
0.52613,0.81967,0.00360,-2.19365,-5.64916,1.07021,-0.84756,0.48943,-8.82658,-31.54775,26.96882,-7.10586,-0.71142,-0.02643,-0.48328,-0.50953,58.82881,-91.53975,16.97788
0.47124,0.76467,0.01183,-2.60212,-5.25254,0.96160,0.70901,-1.05652,-7.96456,-26.46874,29.58976,-7.93919,-0.70197,0.03934,-0.50064,-0.50503,51.41139,-162.68930,56.40607
0.41542,0.71971,0.01791,-2.93539,-4.77512,0.84060,1.18446,-1.54961,-7.19795,-18.94742,28.29978,-6.81139,-0.69499,0.08312,-0.50123,-0.50877,11.02746,-75.56167,52.46677
0.36470,0.67393,0.02545,-3.10306,-4.42246,0.77245,0.83929,-0.71678,-6.86331,-12.99772,29.27166,-4.47515,-0.69916,0.10446,-0.47043,-0.52817,2.20768,46.20192,33.27351
0.31256,0.63705,0.03385,-3.25290,-4.00922,0.73682,0.26948,0.16527,-6.42981,-8.81214,29.55823,-0.36254,-0.70248,0.11283,-0.43589,-0.55117,-4.74144,88.57686,31.19012
0.25868,0.60922,0.04447,-3.39888,-3.53294,0.74528,-0.39961,0.41185,-6.00883,-8.33502,30.27484,1.18969,-0.69424,0.12198,-0.41187,-0.57751,-32.98183,31.75214,31.09841
0.20595,0.58135,0.05568,-3.48868,-3.17020,0.75965,-0.80783,0.54332,-5.88986,-6.36573,31.18066,1.19176,-0.68425,0.13779,-0.38536,-0.60358,-30.72865,25.01921,14.22371
0.15311,0.56366,0.06725,-3.55751,-2.72813,0.77664,-1.17126,0.54022,-5.75628,-3.26222,32.25629,1.32332,-0.67082,0.15341,-0.36134,-0.62920,-23.32305,15.03067,9.23443
0.10220,0.55553,0.07915,-3.57833,-2.22221,0.79503,-1.49910,0.31432,-5.59761,1.35034,31.49861,1.01868,-0.65278,0.17107,-0.34261,-0.65363,-24.18262,-3.86039,9.12574
0.05463,0.54643,0.09087,-3.53931,-1.85201,0.80606,-1.70167,0.28052,-5.41353,4.68171,30.98771,0.66719,-0.63649,0.18584,-0.32202,-0.67576,-22.56578,-5.16294,16.30981
0.01151,0.54580,0.10277,-3.43580,-1.43343,0.81728,-1.86264,0.76669,-5.23995,8.89975,29.63001,0.74819,-0.62527,0.19053,-0.29148,-0.69841,-2.30497,27.66271,10.41333
-0.02547,0.55270,0.11438,-3.25074,-0.98003,0.82080,-1.91993,1.58122,-5.11720,13.90711,27.38383,-0.49220,-0.61845,0.18748,-0.25133,-0.72056,11.25891,51.01356,0.79064
-0.05822,0.55973,0.12487,-3.03466,-0.62558,0.80425,-1.77888,2.23275,-4.96497,17.53059,23.99412,-2.16274,-0.61411,0.18415,-0.21087,-0.73790,22.27980,47.13952,1.28911
-0.08980,0.56479,0.13438,-2.85744,-0.39710,0.77609,-1.64304,2.35964,-4.77808,19.72398,21.76241,-3.71787,-0.60680,0.18632,-0.17862,-0.75178,27.79683,31.31276,6.01263
-0.11007,0.57966,0.14011,-2.53437,-0.06146,0.69088,-1.54282,1.40187,-3.78773,17.99859,15.75211,-6.21226,-0.59696,0.19420,-0.18473,-0.75618,-3.68560,-43.28009,60.45188
-0.13010,0.59144,0.14412,-2.26863,0.15780,0.59295,-1.24859,0.26454,-3.11554,15.76101,12.94386,-6.14128,-0.58798,0.21409,-0.19495,-0.75528,1.98316,-75.21428,57.27818
-0.15186,0.60056,0.14891,-2.10030,0.27628,0.53360,-0.98398,-0.18701,-2.96711,16.98259,11.52590,-5.54445,-0.58048,0.23254,-0.18941,-0.75703,12.70660,-59.05796,26.98221
-0.16681,0.61037,0.15149,-1.82043,0.43145,0.45989,-0.72533,-0.60005,-2.72182,18.59849,9.06998,-2.98877,-0.57473,0.25074,-0.18804,-0.75594,13.58593,-35.42295,17.07416
-0.18149,0.61671,0.15513,-1.56586,0.52945,0.42416,-0.61850,-0.56289,-2.54228,20.05246,6.77962,-1.36280,-0.56931,0.26049,-0.18054,-0.75857,10.35706,-2.25594,12.92769
-0.19514,0.62339,0.15984,-1.38080,0.57672,0.41177,-0.69777,-0.53868,-2.28599,20.07295,4.25978,-0.57785,-0.56108,0.26700,-0.17666,-0.76334,-0.13520,7.07901,15.01821
-0.19717,0.63040,0.16520,-1.06173,0.61427,0.40945,-1.01257,-0.65334,-1.54913,17.30772,1.19236,0.12504,-0.55040,0.26541,-0.18923,-0.76864,-19.62649,-2.80852,42.75839
-0.20021,0.63594,0.17080,-0.83336,0.61359,0.40877,-1.24349,-0.69260,-1.25996,16.76954,0.16228,-0.25541,-0.53806,0.26787,-0.19440,-0.77521,-18.91380,-1.46331,26.72500
-0.19938,0.64128,0.17616,-0.59851,0.59781,0.40321,-1.42350,-0.54210,-1.13216,17.62404,-1.26158,-0.55173,-0.52586,0.26798,-0.19443,-0.78349,-14.07463,7.51864,9.48466
-0.19269,0.64782,0.18100,-0.34273,0.56701,0.38998,-1.46987,-0.15309,-1.05997,18.77763,-2.94962,-1.36609,-0.51696,0.26302,-0.18855,-0.79248,-4.93286,24.75014,3.35458
-0.18177,0.65243,0.18492,-0.07582,0.51061,0.36402,-1.44601,0.31421,-0.91322,19.58374,-5.25826,-2.43721,-0.51105,0.25296,-0.18145,-0.80120,3.64876,35.10661,3.61720
-0.16912,0.65523,0.18793,0.15292,0.43838,0.32944,-1.46465,0.55728,-0.54999,19.65995,-7.29584,-3.53452,-0.50554,0.24101,-0.18228,-0.80815,2.76375,28.61890,17.54101
-0.14943,0.65360,0.18872,0.44541,0.30852,0.26576,-1.58348,0.58921,0.31823,18.09553,-9.48757,-4.59929,-0.50087,0.22263,-0.20020,-0.81209,-6.54804,9.44941,49.83815
-0.12944,0.64960,0.18858,0.67878,0.16754,0.20060,-1.51581,0.52575,1.25900,15.81462,-10.27632,-5.11479,-0.50078,0.20312,-0.22488,-0.81080,0.51995,0.18389,69.54049
-0.10892,0.64431,0.18773,0.86290,0.04064,0.13978,-1.16651,0.58673,1.89218,14.72240,-9.92219,-5.48737,-0.50761,0.18399,-0.24403,-0.80556,21.71612,7.80783,59.01586
-0.08117,0.63517,0.18371,1.12897,-0.12230,0.03854,-0.37324,0.93622,2.44135,14.60699,-7.47330,-6.03528,-0.52850,0.16018,-0.25661,-0.79321,42.96194,25.29912,29.20366
-0.05381,0.62844,0.17923,1.33245,-0.20940,-0.04921,0.25323,1.34763,2.65594,14.27472,-4.96699,-6.55283,-0.54852,0.13662,-0.26198,-0.78219,41.58737,35.02392,15.01637
-0.10910,0.63805,0.18075,-0.00811,0.00858,-0.00328,0.74527,1.75280,2.73762,13.69621,-2.81952,-6.89049,-0.56891,0.11209,-0.26372,-0.77086,37.66833,38.32277,7.25318
-0.10353,0.63965,0.18029,0.00108,0.00034,-0.00077,1.21978,2.29872,2.73468,12.45094,-0.58793,-6.73955,-0.59257,0.08342,-0.25915,-0.75812,29.70415,43.79487,0.36235
-0.09710,0.64184,0.18051,0.01458,-0.00670,-0.00127,1.58738,2.96337,2.59068,11.19480,2.27669,-6.73379,-0.61635,0.05159,-0.24711,-0.74591,17.03815,45.18447,-7.31684
-0.09053,0.64406,0.18193,0.02761,-0.00915,-0.00586,1.69228,3.56754,2.40434,9.97386,4.61315,-6.46703,-0.63558,0.01786,-0.23225,-0.73606,3.21256,45.72361,-9.52932
-0.08342,0.64620,0.18436,0.03748,-0.00790,-0.01262,1.60842,4.03492,2.25060,8.92418,6.11016,-6.28669,-0.65043,-0.01711,-0.21684,-0.72776,-10.35275,42.06451,-8.37671
-0.07157,0.64955,0.18939,0.04522,-0.00147,-0.02398,1.30026,4.50158,2.17653,7.90609,7.86000,-6.88877,-0.65950,-0.05670,-0.20028,-0.72231,-23.03944,28.63475,0.56307
0.19145,0.64679,0.10821,2.35455,0.08323,-0.72110,0.92960,4.84722,2.18913,6.49528,8.81876,-8.25560,-0.65656,-0.10601,-0.19293,-0.72143,-22.42388,17.86234,13.67198
0.22822,0.65425,0.09231,2.42256,0.19071,-0.82116,0.70569,5.02067,2.38503,5.17030,9.22110,-8.73282,-0.66126,-0.14780,-0.18326,-0.71225,-16.26534,12.15725,21.04458
0.26513,0.66375,0.07444,2.47479,0.30364,-0.92739,0.52475,5.16064,2.63313,3.73609,9.82838,-9.29107,-0.66411,-0.19160,-0.17506,-0.70114,-10.97009,9.80231,23.78615
0.30213,0.67922,0.05125,2.51597,0.49257,-1.09990,0.31969,5.39880,2.97733,0.58883,11.40604,-9.87840,-0.66393,-0.24095,-0.16692,-0.68795,-5.72898,10.43222,23.37173
0.33686,0.69418,0.02909,2.51057,0.63054,-1.21625,0.15846,5.56015,3.12783,-1.65322,11.77997,-9.50423,-0.66242,-0.28699,-0.15603,-0.67416,-8.69245,12.26654,18.51918
0.36937,0.71290,0.00446,2.46908,0.79687,-1.34488,-0.04362,5.68676,3.26022,-4.44642,12.36395,-9.14313,-0.65744,-0.33326,-0.14451,-0.66017,-12.28847,7.69746,15.22021
0.39893,0.73447,-0.02165,2.38787,0.97187,-1.46801,-0.29456,5.80086,3.28886,-7.47386,12.88988,-8.42617,-0.64944,-0.37816,-0.13008,-0.64676,-14.76606,5.29297,10.76686
0.42293,0.76102,-0.05001,2.22664,1.19604,-1.60366,-0.77053,5.85249,3.18592,-10.44422,12.08547,-6.78669,-0.63540,-0.42044,-0.11127,-0.63806,-27.44583,-1.10981,2.98305
0.44631,0.78560,-0.07650,2.09309,1.33500,-1.67655,-1.08029,5.75538,3.15302,-11.80195,11.28743,-5.72149,-0.62055,-0.45961,-0.09578,-0.62809,-26.09210,-9.74264,5.28339
0.46534,0.81295,-0.10393,1.91846,1.48549,-1.74650,-1.38993,5.52329,3.20176,-13.05818,10.40493,-4.69341,-0.60190,-0.49655,-0.08349,-0.61982,-18.29102,-18.21426,9.97327
0.48108,0.84166,-0.13164,1.72979,1.62354,-1.80491,-1.61314,5.23768,3.34196,-14.02396,9.43034,-3.96567,-0.58099,-0.53227,-0.07486,-0.61117,-9.45952,-21.53382,15.20036
0.49356,0.87134,-0.15969,1.53015,1.74470,-1.85499,-1.76557,4.98378,3.51520,-14.70495,8.00959,-3.27520,-0.55833,-0.56742,-0.06796,-0.60141,-3.12854,-18.90302,16.75325
0.50278,0.90150,-0.18789,1.32258,1.84524,-1.89557,-1.86180,4.76656,3.65926,-15.32743,6.55057,-2.57393,-0.53471,-0.60119,-0.06158,-0.59064,-0.26205,-15.55217,14.51821
0.50873,0.93192,-0.21590,1.10877,1.92609,-1.92310,-1.91353,4.54789,3.78101,-15.61033,5.21557,-1.40628,-0.51023,-0.63310,-0.05634,-0.57937,1.89168,-14.02977,11.30163
