posX, posY, posZ, velX, velY, velZ, angVelX, angVelY, angVelZ, accX, accY, accZ, rotX, rotY, rotZ, rotW, angAccX, angAccY, angAccZ
0.30591,1.18290,-0.33438,-0.45259,0.43367,-0.32488,0.36774,0.81565,0.61027,-0.51771,1.86966,-0.36923,-0.24108,-0.77462,-0.08565,-0.57837,20.06552,-0.58255,6.06339
0.29931,1.19039,-0.33890,-0.45764,0.45764,-0.32512,0.68942,0.74433,0.66142,-0.51790,2.12471,0.19094,-0.24406,-0.77700,-0.09735,-0.57204,25.87343,-3.53942,3.20642
0.29236,1.19900,-0.34315,-0.46729,0.49516,-0.32104,1.06330,0.56781,0.73269,-0.66474,2.62290,0.14643,-0.24819,-0.77696,-0.11338,-0.56734,23.70570,-10.31094,2.16482
0.28507,1.20845,-0.34765,-0.48071,0.53932,-0.32252,1.53282,0.48316,0.87191,-0.83052,2.83023,-0.52990,-0.25329,-0.77747,-0.13416,-0.55981,28.76504,-6.36911,6.53300
0.27769,1.21812,-0.35258,-0.49267,0.57714,-0.33106,1.94313,0.50208,0.99871,-0.75750,2.63331,-0.70965,-0.25880,-0.77888,-0.15580,-0.54963,31.05499,0.99965,9.04388
0.27028,1.22813,-0.35785,-0.50233,0.61173,-0.34340,2.23759,0.56635,1.08621,-0.74330,2.44821,-0.73065,-0.26427,-0.78062,-0.17662,-0.53814,25.06219,4.80722,6.97199
0.26282,1.23845,-0.36350,-0.51023,0.64311,-0.35926,2.23317,0.58787,1.08825,-0.55762,2.21812,-0.90744,-0.26742,-0.78223,-0.19173,-0.52900,6.13950,2.80467,2.39796
0.25545,1.24886,-0.36944,-0.51476,0.66825,-0.37616,2.04654,0.60284,1.04014,-0.33824,2.13812,-1.43075,-0.26872,-0.78426,-0.20182,-0.52154,-11.83982,0.49063,-2.26784
0.24801,1.25995,-0.37595,-0.51942,0.69922,-0.39796,1.83137,0.67111,1.01468,-0.32324,2.29110,-1.67351,-0.26880,-0.78756,-0.20979,-0.51331,-17.61784,3.10869,-1.97095
0.24039,1.27144,-0.38268,-0.52601,0.72937,-0.41838,1.65820,0.74590,1.01654,-0.50816,2.08321,-1.39018,-0.26839,-0.79132,-0.21769,-0.50438,-13.01428,4.72677,0.97415
0.23263,1.28320,-0.38953,-0.53333,0.75700,-0.43598,1.53196,0.80322,1.03812,-0.53029,1.90675,-1.27730,-0.26758,-0.79507,-0.22596,-0.49519,-10.48851,3.24078,2.16861
0.22477,1.29512,-0.39649,-0.54099,0.78204,-0.45105,1.53443,0.87917,1.08665,-0.52952,1.74790,-1.18007,-0.26762,-0.79873,-0.23663,-0.48416,-3.75342,4.11214,3.75145
0.21680,1.30711,-0.40339,-0.54860,0.80186,-0.46121,1.62608,0.95895,1.14996,-0.72389,1.59168,-0.81056,-0.26850,-0.80208,-0.24959,-0.47147,5.97263,6.69773,5.04969
0.20844,1.31956,-0.41044,-0.56102,0.82437,-0.47148,1.65855,1.01458,1.22035,-0.82986,1.31391,-0.24823,-0.26823,-0.80552,-0.26206,-0.45881,4.76067,4.87438,5.09279
0.19988,1.33205,-0.41728,-0.57343,0.84205,-0.47668,1.54488,0.99085,1.25837,-1.00245,1.23588,-0.11609,-0.26587,-0.80872,-0.27147,-0.44897,-5.97290,-1.50334,2.84814
0.19109,1.34463,-0.42395,-0.58674,0.85643,-0.47758,1.43783,0.94859,1.29574,-1.22689,1.11593,-0.02470,-0.26275,-0.81169,-0.28059,-0.43976,-9.30275,-4.21031,3.44987
0.18178,1.35738,-0.43049,-0.60565,0.87051,-0.47606,1.31929,0.92136,1.33004,-1.06162,0.66374,0.16473,-0.25894,-0.81492,-0.28882,-0.43063,-7.47673,-3.30368,2.84533
0.17258,1.36986,-0.43674,-0.61834,0.87794,-0.47021,1.28825,0.95496,1.32854,-0.92821,0.40448,0.48877,-0.25702,-0.81804,-0.29755,-0.41979,-3.84598,1.24416,0.56698
0.16328,1.38217,-0.44279,-0.62963,0.88037,-0.46216,1.26274,0.97626,1.31952,-0.95267,0.04409,0.89197,-0.25522,-0.82089,-0.30615,-0.40900,-1.00504,2.53642,-0.15714
0.15381,1.39430,-0.44832,-0.64104,0.87941,-0.44745,1.22214,0.95268,1.28325,-0.76871,-0.07761,1.25369,-0.25351,-0.82306,-0.31407,-0.39958,-3.69889,-1.23817,-2.25876
0.14389,1.40602,-0.45315,-0.65748,0.87525,-0.42269,1.22211,0.88657,1.26553,-0.95648,-0.33221,1.37117,-0.25150,-0.82432,-0.32319,-0.39090,-0.51137,-3.63305,-0.79013
0.13410,1.41768,-0.45815,-0.66818,0.86905,-0.40671,1.25318,0.84287,1.24871,-0.78620,-0.67278,1.18520,-0.24993,-0.82521,-0.33292,-0.38176,2.27438,-3.65012,-1.43647
0.12427,1.42897,-0.46291,-0.67697,0.85713,-0.39120,1.36253,0.84419,1.20837,-0.53539,-0.95462,0.84495,-0.25028,-0.82529,-0.34405,-0.37133,5.90026,-0.93880,-3.02333
0.11443,1.43984,-0.46771,-0.68371,0.84199,-0.37932,1.48329,0.87505,1.14072,-0.50925,-1.20211,0.84373,-0.25221,-0.82488,-0.35539,-0.36008,9.36364,3.70724,-3.97521
0.10455,1.45056,-0.47251,-0.68950,0.82775,-0.37052,1.54870,0.89195,1.06805,-0.51853,-1.14712,0.77043,-0.25426,-0.82430,-0.36582,-0.34936,6.04764,2.30924,-6.40287
0.09434,1.46086,-0.47697,-0.69958,0.81110,-0.35711,1.63243,0.89326,0.98989,-0.70612,-0.93533,1.00915,-0.25708,-0.82287,-0.37682,-0.33882,4.60372,1.65092,-5.23286
0.08399,1.47097,-0.48138,-0.70976,0.79728,-0.34415,1.60899,0.81674,0.92223,-0.66415,-1.02915,1.09129,-0.25824,-0.82138,-0.38624,-0.33086,1.95617,-3.01197,-4.48852
0.07364,1.48113,-0.48591,-0.71719,0.78632,-0.33652,1.49273,0.70823,0.84323,-0.58743,-0.73382,0.45983,-0.25845,-0.82018,-0.39327,-0.32533,-7.86614,-8.81037,-6.96432
0.06308,1.49133,-0.49064,-0.72663,0.77704,-0.33610,1.37912,0.67882,0.78073,-0.54087,-0.30949,-0.59286,-0.25896,-0.81974,-0.39915,-0.31881,-8.66853,-4.90694,-4.86387
0.05260,1.50177,-0.49580,-0.73236,0.77334,-0.34302,1.38125,0.80642,0.74648,-0.39181,-0.07529,-0.71490,-0.26167,-0.81973,-0.40619,-0.30753,-0.83399,7.29529,-1.79181
0.04206,1.51243,-0.50113,-0.73758,0.77367,-0.35086,1.33591,0.98462,0.73695,-0.37213,0.13332,-0.26582,-0.26443,-0.82101,-0.41159,-0.29431,-2.10163,13.16137,0.44935
0.03124,1.52333,-0.50610,-0.74661,0.77770,-0.35101,1.23865,1.07130,0.73836,-0.84018,0.43188,0.57169,-0.26584,-0.82250,-0.41586,-0.28263,-6.13218,9.06662,0.70873
0.01984,1.53448,-0.51055,-0.76279,0.78539,-0.34218,1.04638,0.99804,0.78123,-1.18878,0.75871,0.90959,-0.26350,-0.82443,-0.41872,-0.27489,-12.65936,-4.14209,2.33444
0.00817,1.54589,-0.51455,-0.77985,0.79514,-0.32808,0.93506,0.94968,0.86207,-1.15451,0.68338,0.98004,-0.26031,-0.82628,-0.42272,-0.26610,-9.81709,-5.44296,5.92225
-0.00347,1.55716,-0.51845,-0.79194,0.80046,-0.31519,0.86846,0.93230,0.91874,-0.87266,0.25062,1.06953,-0.25760,-0.82794,-0.42694,-0.25667,-5.26954,-2.70491,5.81677
-0.01532,1.56804,-0.52168,-0.80426,0.79961,-0.29218,0.86244,0.95086,0.96666,-0.55360,-0.32803,1.50786,-0.25555,-0.82922,-0.43194,-0.24598,-0.26247,1.39318,2.99330
-0.02698,1.57865,-0.52463,-0.81175,0.79217,-0.27153,0.87218,0.94424,0.97661,-0.51561,-0.67148,1.46902,-0.25405,-0.82982,-0.43722,-0.23601,0.40529,-0.86918,0.68857
-0.03864,1.58910,-0.52737,-0.81732,0.78273,-0.25376,0.90201,0.97039,0.98651,-0.46390,-0.90264,1.46072,-0.25300,-0.83026,-0.44275,-0.22503,2.28837,1.28782,1.05642
-0.05040,1.59898,-0.52974,-0.82295,0.76613,-0.23386,0.82774,0.93753,0.97684,-0.17724,-1.24381,1.13007,-0.25098,-0.83134,-0.44625,-0.21622,-3.13246,-1.71052,-0.04440
-0.06185,1.60864,-0.53223,-0.82261,0.74913,-0.22083,0.71542,0.93684,0.95523,0.13158,-1.28396,0.84630,-0.24921,-0.83314,-0.44802,-0.20747,-7.90630,-1.28064,-1.45032
-0.07321,1.61813,-0.53463,-0.82082,0.73343,-0.20995,0.63809,0.97833,0.94110,0.11265,-1.26137,0.85266,-0.24794,-0.83509,-0.44956,-0.19759,-8.99616,1.45785,-0.94567
-0.08443,1.62698,-0.53641,-0.81696,0.71038,-0.19105,0.66289,1.10110,0.93316,0.31154,-1.51729,1.23963,-0.24825,-0.83642,-0.45237,-0.18476,-0.63970,6.70618,0.64858
-0.09561,1.63538,-0.53866,-0.81176,0.68912,-0.16916,0.79497,1.26678,0.92480,0.39259,-1.53446,2.08639,-0.25022,-0.83642,-0.45729,-0.16933,7.19017,11.80403,-1.38210
-0.10712,1.64306,-0.54226,-0.81019,0.66932,-0.14692,0.90402,1.30932,0.89649,0.24297,-1.74636,2.82727,-0.25171,-0.83546,-0.46293,-0.15604,10.69602,9.61257,-1.54363
-0.11890,1.65015,-0.54537,-0.81185,0.64582,-0.11631,0.99683,1.27926,0.87093,-0.11893,-1.59177,2.72340,-0.25246,-0.83381,-0.46923,-0.14435,6.40591,-1.96284,-3.40135
-0.13054,1.65733,-0.54586,-0.81538,0.62058,-0.07862,1.05754,1.23118,0.87052,-0.17943,-1.51138,2.36746,-0.25229,-0.83219,-0.47551,-0.13304,4.94005,-2.42495,-0.84117
-0.14185,1.66491,-0.54549,-0.81608,0.60329,-0.05323,1.10486,1.25820,0.88023,-0.06031,-1.34482,1.86961,-0.25262,-0.83078,-0.48123,-0.12001,2.97972,-0.66247,0.74153
-0.15296,1.67216,-0.54479,-0.81339,0.58486,-0.02845,1.16687,1.34755,0.89160,0.25050,-1.28933,1.63250,-0.25384,-0.82910,-0.48697,-0.10494,4.12773,5.43818,1.00528
-0.16392,1.67915,-0.54355,-0.80843,0.56547,-0.00057,1.20299,1.44109,0.90906,0.28575,-1.33740,2.04483,-0.25514,-0.82750,-0.49215,-0.08909,3.65039,8.25734,1.19358
-0.17500,1.68603,-0.54203,-0.80665,0.54840,0.02575,1.14876,1.38476,0.92923,0.14835,-1.24094,1.95455,-0.25412,-0.82656,-0.49627,-0.07702,-3.11552,-3.32124,1.29085
-0.18605,1.69280,-0.54027,-0.80462,0.53365,0.04945,1.12512,1.34724,0.95519,0.14280,-1.19698,1.98911,-0.25289,-0.82535,-0.50067,-0.06457,-3.64667,-4.21008,1.99019
-0.19702,1.69893,-0.53762,-0.80074,0.51128,0.08179,1.13548,1.33710,0.99937,0.42639,-1.58302,1.96370,-0.25134,-0.82376,-0.50560,-0.05104,1.15227,-0.91071,2.84888
-0.20765,1.70479,-0.53482,-0.79169,0.48918,0.10934,1.13979,1.32859,0.99994,0.80766,-1.69063,2.04230,-0.25057,-0.82183,-0.51026,-0.03801,0.59178,-0.06470,0.42442
-0.21806,1.71012,-0.53151,-0.78123,0.46289,0.13942,1.02191,1.19243,0.97877,0.61987,-1.68699,1.82857,-0.24823,-0.82121,-0.51297,-0.02923,-6.06094,-7.73526,-1.25726
-0.22860,1.71551,-0.52830,-0.77522,0.44316,0.15965,0.92618,1.10878,0.99127,0.42549,-1.71826,1.49647,-0.24543,-0.82086,-0.51532,-0.01970,-7.90944,-9.22020,-0.45152
-0.23909,1.72027,-0.52478,-0.76985,0.41742,0.17926,0.76700,0.98677,1.01147,0.45359,-2.16960,1.36201,-0.24134,-0.82179,-0.51601,-0.01201,-9.26349,-7.21812,2.35314
-0.24961,1.72458,-0.52129,-0.76643,0.39108,0.19413,0.61908,0.84493,1.03487,0.19332,-2.33125,1.14292,-0.23623,-0.82316,-0.51630,-0.00572,-12.76446,-12.88559,1.57042
-0.26025,1.72774,-0.51706,-0.76593,0.35100,0.21355,0.54471,0.71982,1.13522,-0.08669,-2.53636,0.88527,-0.22890,-0.82443,-0.51761,0.00163,-5.73358,-9.22498,4.59554
-0.27065,1.73042,-0.51312,-0.76137,0.31157,0.22299,0.52523,0.69332,1.22119,0.79005,-3.08278,0.09746,-0.22234,-0.82506,-0.51934,0.01120,-0.03360,-5.22020,8.24609
-0.28021,1.73267,-0.50966,-0.74415,0.27558,0.22447,0.51744,0.79481,1.20278,1.62811,-3.24719,-0.20603,-0.21975,-0.82497,-0.52022,0.02256,-1.56875,4.86120,1.60728
-0.28861,1.73344,-0.50643,-0.71180,0.22341,0.22135,0.48652,0.97265,1.11381,2.28991,-3.45340,-0.38086,-0.22054,-0.82463,-0.51973,0.03513,-1.99930,11.48796,-4.47793
-0.29670,1.73388,-0.50340,-0.68175,0.17741,0.21586,0.40162,1.03935,1.00211,2.19286,-3.30601,-0.39643,-0.22136,-0.82487,-0.51824,0.04488,-6.67059,6.98318,-7.84797
-0.30470,1.73408,-0.50053,-0.65728,0.13930,0.21085,0.33830,1.06100,0.90845,2.03985,-3.03136,-0.54136,-0.22193,-0.82502,-0.51693,0.05369,-7.38861,0.97532,-7.21687
-0.31186,1.73320,-0.49765,-0.62454,0.09245,0.20549,0.34968,1.19319,0.80888,2.00553,-2.72212,-0.39918,-0.22490,-0.82381,-0.51623,0.06532,-1.19303,7.15715,-5.83752
-0.31853,1.73207,-0.49465,-0.59028,0.05097,0.20380,0.47247,1.41740,0.72507,2.21081,-2.36459,-0.06146,-0.22960,-0.82044,-0.51738,0.08049,5.54655,13.26030,-5.48937
-0.32516,1.73112,-0.49167,-0.56328,0.02281,0.20546,0.60119,1.60112,0.66214,2.33411,-2.27035,0.29093,-0.23437,-0.81623,-0.51920,0.09629,9.10609,17.22751,-5.42423
-0.33119,1.72968,-0.48841,-0.53314,-0.00677,0.20934,0.67444,1.65104,0.58542,2.30206,-2.15929,0.35346,-0.23857,-0.81214,-0.52110,0.10944,7.48618,9.43843,-5.88965
-0.33707,1.72812,-0.48525,-0.50764,-0.03106,0.21077,0.62281,1.52979,0.54214,1.79411,-1.61884,-0.00208,-0.24012,-0.81022,-0.52148,0.11807,-1.87457,-6.64023,-4.20330
-0.34305,1.72665,-0.48254,-0.48639,-0.04884,0.20743,0.50489,1.33786,0.54667,1.50870,-0.94710,-0.43038,-0.23934,-0.81012,-0.52056,0.12426,-8.03338,-14.28669,0.04171
-0.34926,1.72547,-0.48037,-0.46631,-0.05902,0.20071,0.38436,1.23260,0.58596,1.57087,-0.62883,-0.49151,-0.23842,-0.81056,-0.51844,0.13178,-8.01410,-9.24012,2.55572
-0.35521,1.72435,-0.47820,-0.44661,-0.06565,0.19526,0.25892,1.11667,0.62885,1.55863,-0.38249,-0.21056,-0.23676,-0.81169,-0.51569,0.13844,-8.41479,-8.09782,3.51463
-0.36039,1.72320,-0.47556,-0.42681,-0.07004,0.19514,0.16861,0.99285,0.67993,1.34751,-0.21906,0.25147,-0.23407,-0.81298,-0.51322,0.14453,-7.14411,-10.18164,4.34722
-0.36523,1.72200,-0.47237,-0.40855,-0.07367,0.20308,0.15045,0.87814,0.74350,1.33341,-0.06427,0.83441,-0.23033,-0.81365,-0.51200,0.15093,-1.63256,-7.30124,4.53632
-0.36996,1.72101,-0.46886,-0.39282,-0.07297,0.21433,0.19037,0.80761,0.78735,1.23112,0.30514,0.89915,-0.22671,-0.81335,-0.51197,0.15798,1.85994,-8.68167,3.51780
-0.37397,1.72038,-0.46493,-0.36895,-0.06658,0.22989,0.26918,0.80284,0.82671,1.58370,0.57118,1.03661,-0.22350,-0.81204,-0.51269,0.16669,4.73607,-0.69211,2.79004
-0.37757,1.72002,-0.46078,-0.34336,-0.05714,0.24561,0.36338,0.84094,0.83304,2.06077,0.75244,1.22572,-0.22136,-0.80979,-0.51397,0.17628,6.47769,2.44238,0.90686
-0.38044,1.71994,-0.45621,-0.31153,-0.04527,0.26487,0.42897,0.83103,0.79004,2.57664,0.85508,1.64487,-0.21984,-0.80746,-0.51553,0.18415,4.86494,1.80996,-2.50115
-0.38277,1.72013,-0.45092,-0.27834,-0.03160,0.29157,0.49536,0.72718,0.72918,2.31441,1.18024,2.32768,-0.21744,-0.80515,-0.51828,0.18930,3.82744,-5.33920,-5.16022
-0.38486,1.72079,-0.44477,-0.24884,-0.01328,0.32622,0.61344,0.59374,0.69458,2.04870,1.61257,2.56802,-0.21352,-0.80212,-0.52296,0.19375,8.48660,-8.97067,-3.55467
-0.38640,1.72235,-0.43769,-0.21653,0.01620,0.36906,0.81228,0.49613,0.67824,2.01594,2.15762,2.84468,-0.20882,-0.79738,-0.53001,0.19918,12.20284,-5.18439,-1.12206
-0.38782,1.72448,-0.43015,-0.18931,0.04893,0.41014,1.03762,0.44710,0.70245,1.91660,2.55685,3.02757,-0.20322,-0.79152,-0.53822,0.20619,14.38964,-4.50910,0.33506
-0.38887,1.72723,-0.42202,-0.16227,0.08422,0.45148,1.21978,0.32876,0.73508,2.07111,2.43609,2.98274,-0.19595,-0.78584,-0.54705,0.21165,15.33271,-4.59323,1.35631
-0.38967,1.73038,-0.41346,-0.13733,0.11792,0.49015,1.34517,0.09080,0.76335,1.82895,2.30138,2.65176,-0.18631,-0.78111,-0.55637,0.21358,11.01909,-14.46409,0.81169
-0.39025,1.73399,-0.40471,-0.11475,0.15146,0.52284,1.40567,-0.22298,0.78674,1.63873,2.46453,2.11200,-0.17465,-0.77760,-0.56551,0.21219,6.62680,-20.95275,0.09762
-0.39057,1.73830,-0.39585,-0.09298,0.18897,0.54960,1.45911,-0.48539,0.81471,1.26310,2.91479,1.72485,-0.16221,-0.77407,-0.57470,0.21030,3.35428,-22.74976,-0.41572
-0.39071,1.74326,-0.38669,-0.07351,0.22856,0.57524,1.56385,-0.56772,0.86545,1.17737,2.83204,1.81235,-0.15054,-0.76873,-0.58434,0.21199,7.94563,-7.44934,2.81439
-0.39082,1.74872,-0.37708,-0.05794,0.26718,0.60263,1.66376,-0.57721,0.93571,0.71261,2.79037,2.29520,-0.13885,-0.76270,-0.59380,0.21543,6.51886,-3.97144,3.68784
-0.39110,1.75434,-0.36617,-0.04930,0.29924,0.64573,1.90292,-0.41168,1.06767,0.43297,2.09783,3.79584,-0.12723,-0.75289,-0.60529,0.22492,13.53958,11.58605,10.99278
-0.39168,1.75975,-0.35423,-0.04760,0.31993,0.69515,2.14029,-0.41186,1.15476,0.16533,1.49531,4.64535,-0.11335,-0.74229,-0.61851,0.23152,18.97306,6.15491,9.76226
-0.39278,1.76523,-0.33995,-0.05514,0.33676,0.77173,2.46367,-0.59381,1.27378,-0.55841,0.61069,5.00661,-0.09408,-0.72987,-0.63487,0.23533,21.16382,-7.67218,6.84934
-0.39433,1.77026,-0.32582,-0.06831,0.34243,0.82813,2.65668,-0.92115,1.33572,-1.16345,0.23209,4.55369,-0.07231,-0.71904,-0.65044,0.23386,19.47978,-21.13091,3.88092
-0.39673,1.77519,-0.31083,-0.09201,0.34480,0.88438,2.81673,-1.38317,1.44872,-2.07309,-0.14138,3.60751,-0.04475,-0.70881,-0.66588,0.22845,15.27830,-32.56919,1.50743
-0.40008,1.77947,-0.29539,-0.12653,0.33601,0.93621,3.01050,-1.75443,1.62371,-2.58770,-0.86559,2.74273,-0.01438,-0.69674,-0.68120,0.22432,13.43098,-27.43168,6.75577
-0.40354,1.78335,-0.28058,-0.15476,0.32279,0.96549,3.15560,-1.85086,1.81704,-2.54674,-1.30832,1.93009,0.01367,-0.68283,-0.69479,0.22544,13.56072,-13.33840,12.87980
-0.40762,1.78652,-0.26557,-0.18637,0.30076,0.99126,3.31036,-1.85696,2.05879,-1.71675,-1.40997,1.23478,0.04273,-0.66686,-0.70762,0.22965,8.23540,-4.83304,15.63327
-0.41104,1.78947,-0.25102,-0.19990,0.27984,1.00361,3.43461,-1.75648,2.24972,-0.21030,-1.72665,0.35310,0.06964,-0.64927,-0.71968,0.23594,7.52343,3.56001,16.91005
-0.41317,1.79182,-0.23707,-0.18818,0.25345,1.00304,3.50039,-1.65628,2.30656,1.68383,-1.74283,-0.40233,0.09387,-0.63145,-0.73108,0.24078,2.74401,6.73599,8.13059
-0.41442,1.79423,-0.22363,-0.16450,0.23428,0.99396,3.50735,-1.68373,2.19869,2.81985,-1.74956,-1.09087,0.11674,-0.61476,-0.74211,0.24023,2.20722,3.04979,-3.17023
-0.41425,1.79632,-0.21112,-0.12303,0.21470,0.97139,3.48446,-1.79937,1.89304,3.23663,-1.25709,-2.03252,0.13693,-0.59928,-0.75358,0.23288,1.92484,-4.16921,-21.78586
-0.41299,1.79835,-0.19982,-0.07230,0.19862,0.93327,3.43808,-1.81024,1.65492,2.76431,-0.60165,-2.89722,0.15526,-0.58364,-0.76413,0.22666,-0.29195,0.76971,-18.46399
-0.41204,1.80084,-0.18889,-0.03913,0.19402,0.89794,3.35965,-1.62054,1.74816,1.86347,0.05603,-3.39065,0.17411,-0.56654,-0.77191,0.22993,-4.93799,8.89490,-2.50763
-0.41077,1.80360,-0.17912,-0.00879,0.19509,0.85209,3.18373,-1.33099,2.13094,1.99754,0.16398,-3.36785,0.19448,-0.54952,-0.77529,0.24317,-16.45407,15.31925,28.36889
-0.40951,1.80635,-0.17008,0.01408,0.19555,0.80498,3.03181,-1.27953,2.39675,1.77696,-0.27375,-3.14964,0.21764,-0.53352,-0.77723,0.25279,-15.95301,3.38918,23.60537
-0.40834,1.80859,-0.16186,0.03033,0.18720,0.75481,2.98183,-1.43438,2.54773,1.13317,-0.77566,-3.68879,0.24438,-0.51690,-0.77906,0.25720,-4.54221,-11.07601,9.24431
-0.40711,1.81053,-0.15479,0.04373,0.17604,0.69730,2.96328,-1.72090,2.61890,0.64041,-1.00279,-4.44513,0.27405,-0.50061,-0.77978,0.25735,1.93280,-20.37547,1.20943
-0.40596,1.81181,-0.14978,0.05289,0.15617,0.61711,2.98540,-2.18858,2.79116,0.96330,-1.26430,-5.58544,0.31088,-0.48360,-0.77720,0.25582,3.96052,-26.92565,9.66390
-0.40467,1.81329,-0.14548,0.06227,0.14457,0.54410,3.04356,-2.69294,2.73826,1.10556,-0.85737,-6.44965,0.34801,-0.46722,-0.77428,0.24715,10.40118,-37.29995,-6.23534
-0.40303,1.81462,-0.14376,0.07528,0.13303,0.44630,3.17714,-3.38810,2.60077,1.04897,-0.94767,-7.49895,0.39077,-0.45074,-0.76889,0.23009,17.64817,-42.88612,-15.72299
-0.40074,1.81541,-0.14440,0.09615,0.11521,0.33208,3.30268,-3.99891,2.68715,1.39992,-1.44465,-9.10966,0.43733,-0.43138,-0.75915,0.21530,22.02004,-43.46408,-9.52284
-0.39652,1.81520,-0.14874,0.14567,0.08439,0.18002,3.28888,-4.52771,3.20585,4.11860,-2.23676,-10.50324,0.48929,-0.40894,-0.74096,0.21057,1.47062,-39.54216,21.97109
-0.38988,1.81432,-0.15489,0.22566,0.04899,0.03105,3.20327,-4.91409,3.76956,7.24452,-2.70143,-10.98560,0.54055,-0.38452,-0.71813,0.21033,-11.35459,-37.37343,33.64526
-0.38002,1.81291,-0.16369,0.34172,0.01311,-0.12749,3.21823,-5.33947,4.10492,9.93888,-2.39279,-11.61057,0.59168,-0.35832,-0.69252,0.20479,-1.12125,-34.72833,22.13511
-0.36642,1.81161,-0.17508,0.49390,-0.01200,-0.29243,3.31076,-5.81098,4.19171,12.73195,-1.15650,-12.01421,0.64191,-0.33181,-0.66405,0.19205,10.03098,-33.88619,8.53597
-0.35006,1.81130,-0.18758,0.65409,-0.01387,-0.43431,3.44380,-6.20714,4.06616,14.82874,0.98172,-11.63738,0.68866,-0.30577,-0.63427,0.17309,21.15269,-28.72227,-5.90338
-0.32621,1.81381,-0.20402,0.90281,0.03284,-0.60875,3.49791,-6.64286,3.67614,16.68801,4.98828,-10.74961,0.73201,-0.28519,-0.60107,0.14676,22.27702,-18.89730,-21.77655
-0.29943,1.81952,-0.22023,1.14635,0.12358,-0.74049,3.04421,-7.06600,3.40859,18.38408,8.28351,-9.41205,0.77221,-0.27378,-0.55874,0.12862,-0.46670,-25.55782,-32.31837
-0.27196,1.82689,-0.23504,1.33661,0.21728,-0.81457,2.42337,-7.39812,3.18218,20.00347,10.87283,-6.72604,0.80852,-0.26790,-0.51102,0.11572,-30.23699,-36.02465,-41.69512
-0.23127,1.84371,-0.25097,1.70161,0.44659,-0.88815,1.63654,-7.93038,2.12245,21.97005,14.88546,-0.83132,0.83734,-0.28636,-0.45675,0.09077,-15.98622,-30.87714,-73.76513
-0.19020,1.86326,-0.26306,1.99792,0.67464,-0.88245,1.78391,-8.01771,0.79353,21.49589,17.91391,2.68738,0.85680,-0.29952,-0.41727,0.04555,46.10110,0.13941,-79.68964
-0.14968,1.88392,-0.27308,2.20732,0.86040,-0.84476,1.81236,-8.05355,-0.33143,21.67415,19.67638,4.12135,0.87078,-0.31670,-0.37609,0.00060,66.38142,10.22011,-77.86000
-0.09468,1.91694,-0.27675,2.60787,1.20661,-0.70930,1.39831,-8.26694,-2.45516,23.95288,19.01659,10.48148,0.86837,-0.36939,-0.32632,-0.05477,35.44777,-4.57314,-116.01820
-0.03788,1.94859,-0.27582,2.95692,1.45852,-0.52397,1.31535,-8.18563,-4.12539,26.51517,17.06695,16.69716,0.85779,-0.41638,-0.28057,-0.11005,47.35135,4.22745,-110.57720
0.02573,1.98162,-0.26718,3.33864,1.67382,-0.25165,1.46293,-7.75442,-5.72627,28.34300,13.80019,22.76363,0.83377,-0.46629,-0.24300,-0.16839,70.23317,19.66615,-94.92586
0.09269,2.01366,-0.25261,3.68040,1.81902,0.05086,1.67276,-7.15960,-7.09773,29.36714,10.61511,27.92309,0.79869,-0.51691,-0.21021,-0.22517,78.74564,32.09781,-84.81393
0.17535,2.04690,-0.21909,4.21391,1.94989,0.60989,2.22580,-5.89290,-9.31078,31.42099,3.36041,34.55093,0.73049,-0.58747,-0.19437,-0.28893,101.94430,45.28898,-88.82024
0.25936,2.07362,-0.18142,4.65868,1.94015,1.12252,3.00691,-4.86610,-11.08003,33.34525,-5.40421,39.45501,0.64955,-0.64934,-0.17833,-0.35303,120.48580,37.99239,-87.88985
0.34772,2.09325,-0.13711,5.06342,1.81078,1.61687,3.91590,-4.03079,-12.61210,34.54228,-17.16879,43.56686,0.55113,-0.70396,-0.16238,-0.41751,136.87220,8.92688,-93.09055
0.44632,2.09768,-0.07633,5.53723,1.45479,2.26486,5.25492,-2.83146,-14.07736,32.84666,-34.45420,49.07295,0.42563,-0.75089,-0.16152,-0.47845,143.51970,4.75555,-78.77005
0.55323,2.07710,0.00035,6.01959,0.73359,3.04778,7.47664,-1.68796,-15.23760,26.00187,-57.13903,48.44186,0.27481,-0.77365,-0.17855,-0.54228,162.51820,-43.64085,-51.46140
0.65759,2.04202,0.07388,6.27992,-0.06595,3.59677,9.10307,-1.12246,-15.79111,14.87191,-76.83635,43.13860,0.12561,-0.77341,-0.18733,-0.59242,138.36980,-66.86212,-51.65604
0.75647,1.96803,0.15390,6.37380,-1.29052,4.11717,10.83486,-0.98417,-15.74492,-4.56093,-96.85789,31.15362,-0.02227,-0.74407,-0.20332,-0.63602,93.57537,-85.63573,-29.03467
0.83225,1.85263,0.23050,6.10720,-2.94936,4.44609,12.16106,-1.16736,-15.30070,-29.61335,-109.73420,7.83559,-0.15928,-0.69424,-0.21778,-0.66725,25.19478,-91.70186,-16.45252
0.88890,1.73425,0.29265,5.61239,-4.26976,4.44033,13.11807,-0.08978,-14.99796,-51.25754,-110.12980,-12.71377,-0.30182,-0.65112,-0.23508,-0.65550,68.37705,-50.00157,14.79906
0.91338,1.58666,0.33674,4.70094,-5.74284,4.13093,15.11645,2.02853,-13.79478,-76.62865,-98.82864,-35.06783,-0.44780,-0.60157,-0.29060,-0.59426,163.14250,-77.10688,80.64476
0.90875,1.43456,0.35991,3.51924,-6.94312,3.54618,17.87372,3.03465,-12.09013,-91.04488,-74.22570,-46.40780,-0.58177,-0.51331,-0.36776,-0.51266,183.12230,-172.41000,50.78489
0.87870,1.28885,0.36689,2.18606,-7.74743,2.82159,23.25203,3.48744,-9.39734,-96.44119,-34.07130,-63.03398,-0.70700,-0.35591,-0.49238,-0.36200,235.86910,-169.45900,-133.05840
0.83492,1.16757,0.36505,0.96311,-7.95206,2.14113,27.11674,1.44800,-4.45212,-98.21352,-1.18269,-41.72752,-0.71757,-0.17503,-0.64473,-0.19691,390.10110,-431.00060,-195.93150
0.76495,1.07108,0.35098,-0.40080,-7.70593,1.42334,22.89742,-5.14998,-3.11627,-76.96088,23.41284,-34.45106,-0.63307,-0.03551,-0.73238,-0.24817,-188.09900,-135.74540,-451.41370
0.70717,0.99352,0.34173,-1.26793,-7.20753,0.93886,15.41231,-7.20937,-4.79121,-53.36722,41.89645,-31.74362,-0.58763,0.00839,-0.72224,-0.36469,-392.49210,190.77230,-398.13670
0.65313,0.92825,0.33347,-1.87252,-6.62299,0.58318,9.05587,-5.81684,-6.05835,-38.16595,45.72315,-24.20559,-0.57776,-0.00371,-0.67361,-0.46090,-377.84740,324.57720,-163.44580
0.59465,0.87210,0.32428,-2.41279,-6.01918,0.29456,4.73320,-3.97050,-6.85985,-39.88063,43.63198,-20.62173,-0.57565,-0.01710,-0.61791,-0.53528,-226.28790,269.46460,-57.11476
0.52641,0.82622,0.30975,-2.99508,-5.37363,-0.02034,1.38973,-1.28750,-10.18367,-31.32212,41.13879,-20.48774,-0.59281,-0.00012,-0.48997,-0.63915,-77.86671,280.33800,-198.77260
0.46358,0.78342,0.29364,-3.35217,-4.81761,-0.29197,0.82815,0.04085,-11.57732,-15.68580,43.15351,-20.56959,-0.60768,0.04603,-0.39518,-0.68735,27.83180,161.73190,-142.28830
0.40794,0.74464,0.27602,-3.50257,-4.34053,-0.52157,1.50584,0.20383,-11.49198,-3.97191,40.33343,-18.45336,-0.61984,0.10366,-0.33864,-0.70027,49.68601,7.33971,-25.79555
0.35926,0.71543,0.25574,-3.49779,-3.82202,-0.73718,2.51103,-0.69655,-9.63787,8.78788,35.44992,-12.51696,-0.62756,0.15463,-0.33679,-0.68472,28.61998,-93.12570,80.43692
0.31981,0.69284,0.23671,-3.33950,-3.30637,-0.88334,2.87645,-2.23265,-6.62058,10.68833,29.31366,-5.59036,-0.62171,0.18622,-0.38262,-0.65757,-42.36787,-140.25550,183.39770
0.28250,0.66714,0.22170,-3.18584,-2.96384,-0.92969,2.60674,-2.67188,-5.11440,11.43434,27.57780,-1.96001,-0.61443,0.21061,-0.39794,-0.64789,-59.03297,-73.72493,128.84800
0.24905,0.64841,0.20862,-3.00685,-2.59052,-0.93288,2.18028,-2.02123,-4.24221,10.27009,26.06287,1.26980,-0.61630,0.21793,-0.39121,-0.64779,-39.97352,17.29683,81.51180
0.21802,0.63604,0.19877,-2.82670,-2.19198,-0.88070,1.67415,-0.42505,-4.16005,10.49843,24.47338,4.41539,-0.62664,0.21286,-0.35265,-0.66156,-6.11915,102.98970,18.23039
0.18602,0.62266,0.18991,-2.70519,-1.90354,-0.82508,1.32213,0.56528,-4.20105,10.49455,23.82219,4.79507,-0.63235,0.21422,-0.31504,-0.67453,-2.13130,100.51970,6.32833
0.15684,0.61547,0.18237,-2.56710,-1.58445,-0.76179,0.99701,1.40462,-4.30128,10.23070,22.12998,4.13859,-0.63581,0.21398,-0.27412,-0.68907,-9.49320,68.05619,0.82589
0.13149,0.61323,0.17534,-2.39314,-1.25153,-0.70316,0.74755,1.92161,-4.28954,12.98185,19.89046,2.99922,-0.63710,0.21469,-0.23680,-0.70139,-2.70217,44.32143,-1.44729
0.10729,0.60914,0.16728,-2.23913,-1.02827,-0.67428,0.50543,1.91837,-4.05017,14.23908,17.09110,1.82405,-0.63420,0.21878,-0.21238,-0.71051,-14.81877,12.28977,16.29002
0.08793,0.60748,0.15902,-2.04367,-0.82082,-0.65609,0.24738,1.52803,-3.38860,15.25923,12.71403,0.61888,-0.62973,0.22137,-0.20603,-0.71553,-16.84268,-13.73374,38.65967
0.07389,0.60749,0.14974,-1.79839,-0.62798,-0.65913,-0.16825,0.30642,-2.01097,12.81419,9.23684,-1.09184,-0.61977,0.22536,-0.23592,-0.71375,-31.76427,-64.95479,81.56664
0.05736,0.60435,0.13968,-1.65064,-0.53162,-0.67395,-0.12317,-0.24584,-1.35720,10.87518,8.37283,-1.45651,-0.61707,0.23201,-0.24839,-0.70971,-17.01984,-62.54492,68.77106
0.04395,0.60327,0.12939,-1.48721,-0.42443,-0.68864,0.31504,-0.25661,-1.06030,10.89782,8.75163,-0.55122,-0.62458,0.23716,-0.24707,-0.70186,23.20277,-16.71551,29.50536
0.03331,0.60475,0.11976,-1.31530,-0.29896,-0.68807,1.05745,0.53401,-1.21303,11.47177,10.01335,0.89518,-0.64372,0.23575,-0.22039,-0.69388,49.62924,35.82353,0.17838
0.02506,0.60824,0.11147,-1.14319,-0.17069,-0.66302,1.85891,1.73621,-1.61680,12.23372,8.31858,2.95322,-0.66879,0.22835,-0.17385,-0.68583,68.03741,84.15788,-27.42019
0.01724,0.61180,0.10463,-1.00700,-0.07291,-0.62092,2.22970,2.43850,-1.81207,11.85452,7.02637,4.31424,-0.68706,0.22091,-0.13434,-0.67904,49.07306,72.52631,-19.09165
0.01304,0.61775,0.10095,-0.84287,0.04171,-0.53525,2.03826,2.50579,-1.72642,10.89224,5.99639,6.39454,-0.69453,0.21569,-0.11171,-0.67722,0.18648,15.80623,3.23809
0.00934,0.62392,0.09901,-0.70581,0.13500,-0.43892,1.31352,1.98613,-1.46890,10.18097,6.24987,7.36248,-0.68909,0.21578,-0.10871,-0.68321,-45.92088,-29.53246,20.73849
0.00652,0.63045,0.09795,-0.58757,0.21078,-0.35208,0.56663,1.48421,-1.32046,9.77915,6.05409,7.41567,-0.67859,0.21825,-0.10851,-0.69289,-61.97778,-38.53829,22.03132
0.00810,0.63829,0.09973,-0.42452,0.29069,-0.23978,-0.36297,1.06101,-1.18164,10.50939,4.13301,6.62183,-0.66033,0.21966,-0.11206,-0.70933,-62.23337,-24.74028,11.77321
0.01008,0.64458,0.10057,-0.29319,0.32717,-0.16970,-0.87111,0.90465,-1.01301,11.15554,2.37037,5.30722,-0.64729,0.21727,-0.11207,-0.72198,-48.35449,-14.30871,16.20808
0.01452,0.65000,0.10144,-0.15555,0.33994,-0.11673,-1.17396,0.92025,-0.79008,11.48428,0.36214,3.61535,-0.63685,0.21032,-0.11086,-0.73341,-33.35231,-0.42853,18.80217
0.02383,0.64976,0.10163,0.04213,0.30580,-0.07335,-1.24436,1.05085,-0.40634,10.90912,-2.86029,1.69094,-0.63167,0.19724,-0.11079,-0.74149,-4.52260,9.28047,19.86427
0.03170,0.64629,0.10031,0.18047,0.24440,-0.06110,-1.05241,1.19297,-0.03611,9.79487,-4.15359,0.71914,-0.63241,0.18294,-0.10997,-0.74465,12.40886,11.65213,25.18517
0.03980,0.64280,0.09902,0.28499,0.18410,-0.05717,-0.83497,1.27927,0.23675,8.83238,-4.43809,0.48090,-0.63460,0.16948,-0.10897,-0.74611,20.78421,10.60137,22.01439
0.05254,0.64122,0.09900,0.43208,0.11500,-0.04390,-0.70511,1.24691,0.64245,7.94425,-3.38883,0.92715,-0.63671,0.15447,-0.11407,-0.74681,10.55330,0.11711,22.43687
0.06472,0.64068,0.09905,0.53871,0.07806,-0.03250,-0.77661,1.10923,0.97023,7.50175,-2.38116,0.78820,-0.63443,0.14111,-0.12239,-0.75007,-0.38157,-6.14277,22.81750
0.07704,0.64034,0.09914,0.62092,0.05383,-0.02316,-0.88382,0.96064,1.21514,6.32616,-1.84060,0.86206,-0.63055,0.12857,-0.13198,-0.75396,-6.53658,-12.92468,24.85903
0.09068,0.63962,0.09940,0.70442,0.02934,-0.01352,-0.92019,0.87176,1.35455,5.42709,-1.31269,0.58211,-0.62728,0.11650,-0.13999,-0.75720,-3.59499,-7.99021,14.29102
0.10545,0.63874,0.09972,0.78874,0.00754,-0.00493,-0.87205,0.86625,1.32817,5.12597,-1.14418,0.41739,-0.62527,0.10587,-0.14342,-0.75978,2.40008,-0.29016,-1.22343
0.12014,0.63797,0.09991,0.85192,-0.00739,-0.00056,-0.76052,0.95407,1.24699,5.24827,-1.11706,0.25429,-0.62492,0.09467,-0.14351,-0.76153,5.17150,2.73992,-4.29714
0.13660,0.63685,0.10009,0.92857,-0.02428,0.00251,-0.57066,1.18461,1.09165,5.54771,-1.16333,0.21637,-0.62720,0.08194,-0.13792,-0.76216,11.18447,14.75037,-12.31700
0.15476,0.63577,0.10038,1.01739,-0.03661,0.00694,-0.42552,1.42234,0.98377,5.79866,-0.65797,0.21695,-0.62966,0.06763,-0.13136,-0.76269,8.83974,17.19179,-10.48565
0.17308,0.63667,0.10083,1.08571,-0.03892,0.00966,-0.35864,1.54777,0.99246,5.84288,-0.55362,0.09276,-0.63106,0.05269,-0.12809,-0.76327,5.07398,11.49186,-2.42855
0.19357,0.64191,0.10164,1.16835,-0.03117,0.01056,-0.29159,1.62134,1.13523,6.08245,0.00217,-0.15213,-0.63302,0.03570,-0.12807,-0.76263,6.20605,9.07101,6.07319
0.21518,0.64782,0.10214,1.25294,-0.01170,0.00756,-0.25445,1.64935,1.35421,5.94463,0.88301,-0.40285,-0.63455,0.01723,-0.13121,-0.76147,4.37305,1.14272,15.02931
0.23771,0.65013,0.10204,1.33684,0.00918,0.00199,-0.22748,1.64564,1.64880,6.14485,1.76786,-0.48360,-0.63577,-0.00311,-0.13771,-0.75949,3.62083,1.51701,18.35490
0.26144,0.65229,0.10173,1.42180,0.04336,-0.00403,-0.21099,1.73582,1.94976,5.87715,3.21385,-0.30751,-0.63681,-0.02704,-0.14430,-0.75691,2.87390,2.82822,23.97386
0.28622,0.65599,0.10135,1.50448,0.09495,-0.00957,-0.22428,1.97224,2.15261,5.63201,4.23827,-0.23627,-0.63734,-0.05434,-0.14689,-0.75450,-0.25450,15.41551,15.02210
0.31271,0.66249,0.10088,1.59887,0.18447,-0.01575,-0.31700,2.39278,2.33146,4.59734,5.79390,-0.26442,-0.63626,-0.08740,-0.14552,-0.75257,-5.72435,22.00658,11.72300
0.33795,0.66927,0.10036,1.65050,0.25809,-0.02114,-0.43867,2.73657,2.36389,3.81592,6.62553,-0.53847,-0.63365,-0.11906,-0.14120,-0.75125,-11.78170,26.27192,5.51372
0.36335,0.67782,0.09951,1.69097,0.34174,-0.03075,-0.59555,3.08074,2.34807,2.84725,7.44445,-0.98552,-0.62924,-0.15220,-0.13395,-0.75030,-15.80170,26.63053,1.60998
0.38906,0.69076,0.09763,1.72700,0.48169,-0.05567,-0.89386,3.52958,2.25437,1.15916,8.14015,-1.89002,-0.62090,-0.18843,-0.12087,-0.75124,-21.09312,23.38180,-2.28874
0.41347,0.70309,0.09538,1.73301,0.57949,-0.08115,-1.10310,3.73272,2.19973,0.00981,8.31623,-2.58061,-0.61193,-0.22146,-0.11058,-0.75118,-20.97759,17.37423,-2.71032
0.43682,0.71876,0.09166,1.71912,0.71128,-0.12575,-1.36382,3.88163,2.14028,-1.57404,8.13845,-3.08087,-0.60008,-0.25414,-0.09938,-0.75196,-17.70353,8.21149,-0.52557
0.45904,0.73492,0.08730,1.68849,0.82129,-0.17112,-1.57297,3.91096,2.13591,-2.68063,7.68300,-3.64582,-0.58697,-0.28542,-0.09023,-0.75224,-16.21016,1.83457,1.16972
0.47991,0.75226,0.08183,1.64156,0.92488,-0.22444,-1.73063,3.86471,2.16903,-3.88658,7.21566,-4.18831,-0.57283,-0.31556,-0.08286,-0.75195,-11.34482,-3.22345,5.17246
0.49974,0.76996,0.07577,1.58928,1.00828,-0.27461,-1.82564,3.75842,2.25147,-4.73310,6.77583,-4.42811,-0.55802,-0.34469,-0.07796,-0.75082,-6.90303,-6.95169,7.27410
0.51750,0.78934,0.06826,1.51477,1.09854,-0.33630,-1.87567,3.58262,2.39270,-5.88638,6.15049,-4.58079,-0.54222,-0.37269,-0.07656,-0.74916,-0.81162,-11.13705,12.25022
0.53332,0.80937,0.05991,1.42543,1.17879,-0.39738,-1.82982,3.35554,2.56475,-6.90340,5.44723,-4.32066,-0.52703,-0.39911,-0.07866,-0.74616,5.96562,-12.83590,11.37615
0.54701,0.83005,0.05115,1.32108,1.25099,-0.45130,-1.75644,3.10390,2.72772,-8.15915,4.97274,-3.42703,-0.51172,-0.42387,-0.08314,-0.74267,12.09878,-15.53901,13.69482
