posX, posY, posZ, velX, velY, velZ, angVelX, angVelY, angVelZ, accX, accY, accZ, rotX, rotY, rotZ, rotW, angAccX, angAccY, angAccZ
0.32763,1.10666,-0.30426,-0.37604,0.18621,-0.55113,0.31041,0.69871,0.49732,0.59821,-0.40355,1.34332,-0.19981,-0.72283,0.04465,-0.66000,20.18155,2.21651,-2.04397
0.32282,1.10896,-0.31109,-0.36778,0.18008,-0.53738,0.15071,0.58835,0.41565,0.35939,-0.01683,1.24738,-0.19734,-0.72402,0.04596,-0.65935,-5.58691,-6.81171,-5.01720
0.31788,1.11159,-0.31760,-0.36217,0.17979,-0.52207,-0.18775,0.40334,0.32482,0.49528,0.11667,0.82779,-0.19137,-0.72277,0.05182,-0.66204,-22.57099,-12.24249,-6.04457
0.31302,1.11436,-0.32430,-0.35763,0.18286,-0.51332,-0.30905,0.32595,0.30814,0.67501,0.24712,0.55987,-0.18679,-0.72317,0.05427,-0.66271,-17.84094,-10.63789,-3.07808
0.30853,1.11752,-0.33071,-0.34763,0.19177,-0.50180,-0.29489,0.24208,0.35725,0.52755,0.33913,0.40746,-0.18299,-0.72360,0.05323,-0.66338,1.41076,-3.94036,3.15548
0.29935,1.12326,-0.34415,-0.33949,0.19664,-0.49517,-0.17355,0.19673,0.42317,0.84511,0.28487,0.29056,-0.17770,-0.72613,0.04876,-0.66241,6.08972,-3.26663,3.47138
0.29540,1.12652,-0.35057,-0.32710,0.20355,-0.48890,0.24430,0.21299,0.53034,0.74350,0.25957,0.08967,-0.18129,-0.72915,0.03569,-0.65894,21.92328,1.05799,5.56273
0.29149,1.12963,-0.35721,-0.31581,0.20677,-0.48645,0.66527,0.25839,0.60426,0.75291,0.10959,0.23964,-0.18679,-0.73275,0.02107,-0.65402,28.77058,3.41747,5.87213
0.28783,1.13245,-0.36390,-0.30382,0.20529,-0.48550,0.83215,0.26445,0.57138,1.00903,-0.09936,0.24356,-0.19099,-0.73487,0.01206,-0.65065,18.60278,2.17086,-0.53400
0.28474,1.13505,-0.37061,-0.28565,0.20087,-0.48491,0.91853,0.24513,0.45677,1.17069,-0.19288,0.07730,-0.19635,-0.73587,0.00578,-0.64800,6.45976,-0.70266,-6.95069
0.28174,1.13785,-0.37733,-0.27004,0.20074,-0.48476,0.95998,0.24979,0.36406,1.06649,0.28040,-0.02305,-0.20115,-0.73718,0.00036,-0.64506,2.97110,0.40264,-7.25341
0.27857,1.14105,-0.38414,-0.26063,0.20661,-0.48594,0.96635,0.26007,0.33873,0.63093,0.73814,-0.04875,-0.20435,-0.73886,-0.00543,-0.64210,2.70723,1.34477,-4.00966
0.27546,1.14475,-0.39104,-0.25223,0.21927,-0.48821,0.77871,0.22961,0.31469,0.43093,0.77688,0.12031,-0.20380,-0.73973,-0.00699,-0.64126,-8.91435,-1.23119,-1.60089
0.27230,1.14830,-0.39776,-0.24610,0.22680,-0.48704,0.56689,0.19711,0.29806,0.49249,0.34262,0.10349,-0.20183,-0.74043,-0.00715,-0.64108,-16.11703,-3.51189,-0.70201
0.26920,1.15178,-0.40422,-0.24054,0.23162,-0.48200,0.47514,0.20652,0.30134,0.31504,0.16692,0.40908,-0.20091,-0.74190,-0.00900,-0.63964,-9.21448,-0.18646,-0.22779
0.26602,1.15513,-0.41031,-0.23770,0.23359,-0.47180,0.46334,0.20644,0.33075,0.19955,0.01687,0.84444,-0.20058,-0.74337,-0.01279,-0.63797,-2.22685,0.34404,1.18950
0.26283,1.15831,-0.41599,-0.23557,0.23237,-0.45746,0.60014,0.22801,0.39740,0.27009,-0.42868,0.84254,-0.20207,-0.74544,-0.02060,-0.63487,6.03993,0.13972,4.11222
0.25981,1.16118,-0.42145,-0.23133,0.22630,-0.44290,0.89860,0.32007,0.47092,0.42311,-0.60993,0.86956,-0.20684,-0.74892,-0.03281,-0.62870,18.84036,5.89552,5.14563
0.25691,1.16367,-0.42691,-0.22608,0.21586,-0.43158,1.10280,0.43324,0.50564,0.27960,-0.77414,0.97306,-0.21168,-0.75299,-0.04388,-0.62151,20.00258,9.37950,3.69316
0.25413,1.16576,-0.43232,-0.22014,0.20117,-0.42185,1.08213,0.48617,0.46398,0.34561,-1.08644,0.95568,-0.21456,-0.75607,-0.04967,-0.61633,1.78773,5.31035,-1.14462
0.25159,1.16733,-0.43733,-0.21166,0.18118,-0.40765,0.91608,0.48676,0.37147,0.55213,-1.25175,1.16047,-0.21589,-0.75818,-0.05112,-0.61314,-9.51387,0.90949,-5.05499
0.24917,1.16863,-0.44209,-0.20306,0.16115,-0.39242,0.68437,0.43199,0.27556,0.63267,-1.53096,1.01567,-0.21581,-0.75923,-0.05013,-0.61195,-16.29620,-3.56409,-6.81626
0.24695,1.16966,-0.44670,-0.19323,0.14143,-0.37820,0.60960,0.44932,0.21267,0.91415,-1.40798,0.76226,-0.21743,-0.76124,-0.05122,-0.60878,-9.42155,-0.87932,-5.65939
0.24489,1.17063,-0.45114,-0.18302,0.12523,-0.36438,0.65908,0.52353,0.20793,0.68914,-1.07009,0.97972,-0.22015,-0.76448,-0.05519,-0.60337,1.95220,5.37209,-1.12747
0.24291,1.17150,-0.45524,-0.17416,0.11121,-0.34814,0.73813,0.58945,0.22985,0.66317,-1.02596,1.33997,-0.22304,-0.76794,-0.06053,-0.59737,5.50008,5.39428,1.56265
0.24116,1.17209,-0.45881,-0.16328,0.09564,-0.32685,0.77994,0.61200,0.23862,0.77995,-1.21651,1.76058,-0.22571,-0.77083,-0.06552,-0.59210,3.99367,2.55269,1.45067
0.23979,1.17209,-0.46165,-0.14839,0.07328,-0.29795,0.75532,0.57019,0.20357,0.99823,-1.52211,2.03653,-0.22822,-0.77247,-0.06889,-0.58860,-0.15573,-1.75315,-1.51736
0.23858,1.17194,-0.46444,-0.13447,0.05378,-0.27511,0.67118,0.52430,0.13908,1.14341,-1.67324,1.96715,-0.23040,-0.77372,-0.07015,-0.58596,-5.24204,-3.65833,-4.24347
0.23760,1.17143,-0.46690,-0.12051,0.03345,-0.25295,0.53554,0.47146,0.06094,1.11303,-1.64160,1.89430,-0.23192,-0.77457,-0.06923,-0.58436,-10.32420,-3.87037,-6.31920
0.23697,1.17049,-0.46871,-0.10362,0.01106,-0.22505,0.37147,0.42576,-0.02083,1.03597,-1.09337,1.61114,-0.23283,-0.77526,-0.06648,-0.58338,-11.67646,-3.46331,-5.45445
0.23620,1.16998,-0.47037,-0.09270,0.00067,-0.20056,0.25840,0.39664,-0.03053,0.59582,-0.39476,1.90732,-0.23283,-0.77645,-0.06511,-0.58196,-7.15058,-1.22755,-1.26069
0.23525,1.16972,-0.47155,-0.08740,-0.00342,-0.17397,0.12362,0.33041,-0.00576,0.26998,-0.24847,1.91693,-0.23111,-0.77717,-0.06349,-0.58186,-9.78916,-4.43861,1.78794
0.23437,1.16942,-0.47208,-0.08241,-0.00711,-0.14220,0.13189,0.29460,0.03416,0.40154,-0.34902,1.83714,-0.23085,-0.77806,-0.06464,-0.58064,-2.17950,-2.73796,2.23854
0.23353,1.16909,-0.47260,-0.07787,-0.01055,-0.11766,0.22728,0.29403,0.05325,0.28023,-0.29014,2.03828,-0.23255,-0.77918,-0.06755,-0.57813,7.09725,-0.07941,1.68966
0.23267,1.16859,-0.47252,-0.07475,-0.01591,-0.08936,0.28362,0.25252,0.05998,0.14129,-0.44991,2.11207,-0.23409,-0.77956,-0.07031,-0.57666,6.31896,-1.73388,1.12400
0.23186,1.16785,-0.47216,-0.07134,-0.02388,-0.06283,0.29070,0.19285,0.02918,0.19239,-0.67217,1.87955,-0.23577,-0.77927,-0.07175,-0.57620,1.14605,-3.71754,-1.58943
0.23108,1.16689,-0.47140,-0.06862,-0.03344,-0.03538,0.28811,0.12075,-0.01911,0.09506,-0.49337,1.56849,-0.23782,-0.77836,-0.07269,-0.57647,-0.89354,-4.83415,-3.96058
0.23014,1.16606,-0.47069,-0.06874,-0.03902,-0.01490,0.33273,0.06299,-0.02772,0.00385,-0.37133,1.23489,-0.23998,-0.77751,-0.07523,-0.57639,2.43978,-4.31993,-0.88347
0.22925,1.16529,-0.47008,-0.06784,-0.04234,-0.00108,0.39755,0.04275,-0.03981,0.17809,-0.16462,1.04492,-0.24286,-0.77695,-0.07827,-0.57554,4.93322,-2.39683,-0.74201
0.22843,1.16470,-0.46932,-0.06624,-0.04171,0.01195,0.38525,0.00427,-0.05109,-0.00998,0.29091,0.67027,-0.24469,-0.77612,-0.08002,-0.57564,0.47293,-2.43709,-0.89890
0.22748,1.16442,-0.46880,-0.06682,-0.03652,0.01800,0.36345,-0.01572,-0.04675,0.01065,0.57377,0.41328,-0.24598,-0.77556,-0.08160,-0.57562,-2.53837,-2.46649,0.04165
0.22657,1.16443,-0.46816,-0.06657,-0.02755,0.02471,0.37706,-0.05057,-0.03032,0.06326,0.66327,0.45240,-0.24743,-0.77469,-0.08427,-0.57579,0.25715,-2.04092,1.17981
0.22580,1.16469,-0.46747,-0.06395,-0.01608,0.03098,0.44651,-0.10836,-0.01453,0.25771,0.76721,0.17632,-0.24974,-0.77313,-0.08853,-0.57625,3.08450,-4.31824,0.51448
0.22512,1.16508,-0.46693,-0.06049,-0.00564,0.03294,0.58457,-0.13439,0.00314,0.37356,0.90377,-0.08034,-0.25343,-0.77168,-0.09475,-0.57560,8.48903,-2.61903,1.29924
0.22466,1.16586,-0.46651,-0.05402,0.00917,0.03243,0.82858,-0.17142,0.02096,0.20225,0.82643,-0.06203,-0.25935,-0.76953,-0.10443,-0.57415,16.06696,-1.27582,1.83545
0.22381,1.16630,-0.46618,-0.05571,0.01464,0.03040,0.97552,-0.29987,-0.15177,-0.45503,0.62447,-0.04624,-0.26858,-0.76425,-0.11070,-0.57579,13.90050,-7.78729,-7.09435
0.22386,1.16789,-0.46598,-0.04168,0.03806,0.02716,1.09554,-0.33525,-0.08483,2.22960,2.57945,-0.40564,-0.27360,-0.76137,-0.11996,-0.57539,6.99488,-3.49193,-4.20935
0.22432,1.17063,-0.46612,-0.02530,0.07567,0.01925,1.35064,-0.27489,0.04611,0.01167,2.31940,-0.73914,-0.27956,-0.76010,-0.13378,-0.57114,15.13798,4.56152,10.79257
0.22397,1.17321,-0.46639,-0.02539,0.10113,0.01093,1.50791,-0.28203,0.10597,-0.01788,2.79150,-0.84272,-0.28570,-0.75748,-0.14643,-0.56847,17.07197,-0.04805,5.84618
0.22359,1.17752,-0.46742,-0.02564,0.14821,-0.00760,1.68269,-0.25180,0.21008,-0.00761,3.13747,-1.32449,-0.29149,-0.75555,-0.16120,-0.56409,12.80700,0.72443,7.72650
0.22330,1.18268,-0.46923,-0.02395,0.19996,-0.03521,1.75295,-0.15455,0.31136,0.30789,3.43410,-1.89793,-0.29593,-0.75516,-0.17399,-0.55846,5.10002,4.52549,6.54401
0.22320,1.18788,-0.47121,-0.01966,0.24029,-0.05935,1.68972,-0.05251,0.36652,0.36458,3.38651,-1.80932,-0.29900,-0.75559,-0.18342,-0.55322,-1.07182,8.07351,6.95938
0.22337,1.19439,-0.47399,-0.01242,0.29272,-0.09113,1.45690,0.04933,0.40604,0.43654,3.22492,-1.83391,-0.29914,-0.75731,-0.18837,-0.54910,-13.48488,5.89257,3.61918
0.22363,1.20102,-0.47681,-0.00560,0.33607,-0.11631,1.19687,0.12652,0.42240,0.46773,3.06066,-1.70248,-0.29833,-0.75929,-0.19124,-0.54580,-18.62792,5.39844,1.77334
0.22381,1.20752,-0.47944,-0.00153,0.36597,-0.13212,1.01671,0.17598,0.43815,0.33197,2.99906,-1.48638,-0.29764,-0.76108,-0.19453,-0.54252,-17.98870,5.07905,1.55921
0.22409,1.21574,-0.48292,0.00326,0.41699,-0.15819,0.59936,0.22117,0.43741,0.18348,2.81188,-1.42357,-0.29255,-0.76448,-0.19104,-0.54175,-24.50532,1.53724,0.06355
0.22415,1.22358,-0.48594,0.00371,0.45100,-0.17140,0.46315,0.28451,0.45447,-0.06701,2.88648,-1.20479,-0.29041,-0.76737,-0.19194,-0.53848,-17.62038,3.11936,0.60074
0.22384,1.23260,-0.48893,-0.00228,0.49661,-0.18081,0.44961,0.38199,0.50834,-0.54621,2.84010,-0.41572,-0.28909,-0.77090,-0.19517,-0.53296,-3.24835,5.64957,3.66848
0.22315,1.24181,-0.49136,-0.01334,0.53637,-0.17862,0.63608,0.47452,0.59269,-0.97767,2.89468,0.31034,-0.29008,-0.77382,-0.20345,-0.52504,9.67516,6.59933,4.94656
0.22211,1.25121,-0.49332,-0.02740,0.56960,-0.16942,0.81258,0.52025,0.67054,-1.35978,2.73290,1.29107,-0.29119,-0.77614,-0.21309,-0.51712,17.35176,6.32112,7.14853
0.22033,1.26151,-0.49435,-0.05051,0.60976,-0.14713,0.84468,0.44404,0.69474,-1.68534,2.42374,1.82682,-0.29080,-0.77694,-0.22072,-0.51292,3.64011,-3.78644,1.30533
0.21816,1.27177,-0.49492,-0.07496,0.64235,-0.12143,0.85663,0.33684,0.69582,-1.83068,2.31076,1.83616,-0.29024,-0.77686,-0.22806,-0.51014,-0.41199,-7.80123,-0.45177
0.21576,1.28216,-0.49530,-0.09717,0.66858,-0.09903,0.90398,0.26233,0.69292,-1.92804,2.14598,1.77744,-0.29040,-0.77653,-0.23622,-0.50682,4.38792,-6.78853,0.01570
0.21243,1.29345,-0.49504,-0.12954,0.70350,-0.07121,1.05934,0.21731,0.70709,-2.09353,2.30708,1.48445,-0.29204,-0.77562,-0.24719,-0.50202,6.88729,-3.41441,-0.83878
0.20873,1.30498,-0.49471,-0.16077,0.73552,-0.04787,1.34640,0.23299,0.75869,-2.22219,2.40452,1.52277,-0.29555,-0.77446,-0.26217,-0.49409,18.48587,0.48233,2.78993
0.20451,1.31710,-0.49406,-0.19375,0.76987,-0.02468,1.70207,0.26131,0.83881,-2.44724,2.59835,1.67304,-0.30020,-0.77254,-0.28073,-0.48400,26.27351,3.19572,5.14759
0.19980,1.32991,-0.49337,-0.22683,0.80599,-0.00683,1.87901,0.25454,0.90025,-2.33131,2.66494,1.26415,-0.30305,-0.77065,-0.29727,-0.47527,16.20528,0.28464,5.44724
0.19468,1.34331,-0.49276,-0.25900,0.84482,0.00565,1.92613,0.24561,0.94317,-2.35390,2.95324,0.86049,-0.30457,-0.76921,-0.31162,-0.46739,6.26683,-0.05942,2.85613
0.18905,1.35747,-0.49226,-0.29216,0.88707,0.01344,1.91109,0.23385,0.99135,-2.31786,3.21546,0.34502,-0.30484,-0.76811,-0.32489,-0.45992,-1.76924,-1.69007,2.87953
0.18278,1.37271,-0.49205,-0.32912,0.93863,0.01515,1.90524,0.24517,1.04179,-2.33503,3.27964,-0.20364,-0.30499,-0.76719,-0.33830,-0.45162,1.36154,0.73941,4.23811
0.17665,1.38787,-0.49245,-0.35554,0.97792,0.00691,1.88253,0.27446,1.07303,-2.15542,3.43248,-1.20852,-0.30515,-0.76649,-0.35084,-0.44305,-3.63913,-0.17807,2.14795
0.17031,1.40380,-0.49353,-0.37858,1.01917,-0.01006,1.87470,0.41519,1.10452,-1.77340,3.64449,-1.81639,-0.30630,-0.76726,-0.36253,-0.43134,-0.12343,7.05231,3.54298
0.16325,1.42151,-0.49567,-0.40810,1.08081,-0.03949,1.94589,0.74674,1.21447,-2.01497,4.26145,-1.87671,-0.30855,-0.77078,-0.37484,-0.41254,1.34558,20.25418,7.90910
0.15566,1.43987,-0.49776,-0.44016,1.14006,-0.06139,1.95530,0.96690,1.35225,-2.42139,4.43294,-1.06854,-0.30859,-0.77429,-0.38709,-0.39422,2.42377,17.84522,12.60510
0.14804,1.45836,-0.49933,-0.46425,1.18505,-0.07034,1.95548,1.09979,1.47223,-2.47808,4.78731,-0.77424,-0.30765,-0.77720,-0.39946,-0.37647,-2.39011,10.16823,11.72703
0.13864,1.47969,-0.50071,-0.51137,1.26657,-0.07232,2.04526,1.29151,1.72513,-3.00633,4.16886,0.41104,-0.30471,-0.78112,-0.41490,-0.35335,5.94346,10.59114,17.02498
0.12900,1.50025,-0.50164,-0.55293,1.32135,-0.06493,2.10470,1.36574,1.85633,-3.00932,3.73056,0.89148,-0.30235,-0.78304,-0.42964,-0.33293,4.71904,5.03310,10.30743
0.11946,1.52058,-0.50223,-0.58238,1.35651,-0.05564,2.13629,1.40171,1.91979,-3.02183,3.42787,1.05063,-0.30031,-0.78414,-0.44354,-0.31338,3.23977,3.43613,7.64501
0.10798,1.54270,-0.50197,-0.63530,1.41108,-0.03567,2.26003,1.52371,2.00939,-2.82270,2.84614,1.20098,-0.29925,-0.78470,-0.45899,-0.28986,5.58357,5.72394,5.52599
0.09640,1.56453,-0.50114,-0.68017,1.45078,-0.01018,2.50264,1.70833,2.09608,-2.85940,2.24532,1.82071,-0.30013,-0.78353,-0.47661,-0.26240,13.59103,12.49118,6.03778
0.08459,1.58631,-0.49978,-0.71937,1.47930,0.01729,2.71694,1.89809,2.17248,-2.78024,1.95755,2.12978,-0.30129,-0.78155,-0.49396,-0.23327,13.97376,13.65163,5.07919
0.07221,1.60823,-0.49752,-0.75802,1.50205,0.05114,2.94359,2.10993,2.22562,-2.77029,1.23161,2.77469,-0.30359,-0.77815,-0.51150,-0.20171,16.06565,16.80175,6.38734
0.05929,1.63007,-0.49434,-0.79645,1.51812,0.09235,3.08995,2.26375,2.22033,-2.83489,1.09272,3.27188,-0.30630,-0.77372,-0.52753,-0.17105,8.64885,12.82450,0.35862
0.04566,1.65192,-0.48999,-0.83873,1.53065,0.14391,3.32740,2.45967,2.26702,-3.21054,1.03485,4.01704,-0.30932,-0.76709,-0.54522,-0.13649,13.37278,14.00712,2.90538
0.03109,1.67399,-0.48415,-0.88748,1.54349,0.20850,3.62788,2.66124,2.41893,-3.69554,0.91977,5.30612,-0.31059,-0.75828,-0.56483,-0.09756,21.42307,17.64188,8.70145
0.01540,1.69609,-0.47669,-0.94345,1.55365,0.28530,3.74336,2.70842,2.60724,-3.96834,0.20884,6.16315,-0.30741,-0.75006,-0.58242,-0.06081,14.72487,6.94637,13.22017
-0.00073,1.71788,-0.46836,-0.99281,1.55620,0.35717,3.65274,2.60811,2.74822,-4.03990,-0.14006,6.42153,-0.30088,-0.74348,-0.59655,-0.02897,0.60119,-8.48846,10.95418
-0.01780,1.73816,-0.45955,-1.05529,1.54958,0.45376,3.45064,2.42962,2.95750,-3.94885,-0.88537,6.59940,-0.28962,-0.73897,-0.60831,0.00103,-5.73932,-13.87505,11.65223
-0.03526,1.75821,-0.45001,-1.10786,1.53462,0.53763,3.09280,2.15020,3.13208,-3.67198,-1.42173,6.36516,-0.27510,-0.73739,-0.61634,0.02628,-17.92677,-25.18337,10.94160
-0.05304,1.77812,-0.43897,-1.14862,1.51374,0.61087,2.79995,1.92625,3.28773,-3.32031,-2.11359,6.30223,-0.25958,-0.73588,-0.62325,0.05151,-19.72420,-27.29235,11.16013
-0.07172,1.79639,-0.42635,-1.19427,1.46952,0.70629,2.49320,1.66520,3.45851,-2.62251,-3.42439,6.09502,-0.24109,-0.73574,-0.62846,0.07480,-15.78659,-23.74377,9.56609
-0.08983,1.81395,-0.41340,-1.21855,1.42185,0.77744,2.47530,1.63064,3.59935,-1.80506,-4.28415,6.03076,-0.22525,-0.73069,-0.63603,0.10401,-5.44482,-12.68339,9.92814
-0.10784,1.82874,-0.39722,-1.23547,1.33744,0.87342,2.56839,1.69974,3.74065,-0.62539,-6.31621,6.15893,-0.21004,-0.72265,-0.64413,0.13696,5.86503,4.36178,10.67900
-0.12529,1.84249,-0.38041,-1.23957,1.25459,0.94821,2.74080,1.79029,3.79204,-0.18333,-7.44450,6.24838,-0.19641,-0.71114,-0.65326,0.17017,7.77516,5.60668,4.59433
-0.14197,1.85203,-0.36110,-1.22989,1.12097,1.04585,3.07994,1.93259,3.82911,1.55545,-9.40178,5.91889,-0.18332,-0.69382,-0.66514,0.20637,20.76530,17.28508,4.89097
-0.15779,1.85908,-0.34206,-1.20420,0.97112,1.12542,3.11914,1.64953,3.63710,2.67340,-10.12811,4.41094,-0.16817,-0.68059,-0.67556,0.22834,7.97952,-7.98103,-11.54938
-0.17307,1.86629,-0.32419,-1.17476,0.85938,1.16720,3.01620,1.27565,3.40097,2.80921,-9.26567,2.84237,-0.15218,-0.67015,-0.68430,0.24389,-2.68244,-28.31841,-25.02336
-0.18755,1.87222,-0.30664,-1.13959,0.75618,1.19240,2.91590,0.98535,3.22939,2.97226,-8.35864,1.41721,-0.13575,-0.66000,-0.69207,0.25888,-4.39628,-25.98592,-21.92798
-0.19975,1.87429,-0.28941,-1.07802,0.61584,1.20265,2.80441,0.79272,3.11244,3.53793,-7.37888,-0.40861,-0.11962,-0.65007,-0.69837,0.27455,-3.18798,-11.46307,-8.56153
-0.21201,1.87782,-0.27323,-1.03177,0.53098,1.19295,2.74096,0.80621,3.10069,3.85506,-6.82258,-1.34984,-0.10487,-0.63848,-0.70300,0.29518,-5.99074,-3.95153,-3.66305
-0.22261,1.87965,-0.25798,-0.96922,0.43915,1.17024,2.66748,0.91697,3.12391,4.96120,-6.49800,-1.82982,-0.09164,-0.62628,-0.70577,0.31824,-5.67482,6.26623,4.03064
-0.23116,1.87969,-0.24344,-0.88590,0.33705,1.14069,2.56342,0.90670,3.01256,5.99956,-6.39759,-1.83024,-0.07942,-0.61492,-0.70870,0.33662,-7.17821,2.74606,-3.26535
-0.23935,1.88018,-0.22883,-0.81620,0.26663,1.11952,2.45630,0.74446,2.78018,6.14286,-5.64419,-1.50665,-0.06711,-0.60482,-0.71285,0.34861,-7.65861,-9.48860,-17.51711
-0.24573,1.87926,-0.21443,-0.73401,0.19026,1.09998,2.41190,0.53478,2.48496,5.81862,-5.27186,-1.38666,-0.05490,-0.59427,-0.71891,0.35637,-3.45383,-12.84286,-22.84621
-0.25114,1.87776,-0.20043,-0.65482,0.12212,1.07825,2.38083,0.35128,2.20872,5.32025,-4.52546,-1.78956,-0.04302,-0.58362,-0.72535,0.36250,-0.32075,-11.52432,-23.18258
-0.25575,1.87594,-0.18715,-0.58065,0.06431,1.04966,2.31404,0.26713,2.02579,5.08843,-3.75653,-2.42944,-0.03210,-0.57327,-0.73030,0.37014,-2.21806,-5.46166,-15.10655
-0.25979,1.87402,-0.17451,-0.51435,0.01816,1.01718,2.20114,0.32715,2.00825,3.89655,-2.95494,-2.23067,-0.02220,-0.56314,-0.73228,0.38228,-8.53150,-0.68995,-7.18738
-0.26363,1.87184,-0.16195,-0.45993,-0.02186,0.99101,2.15943,0.53403,2.21444,3.21864,-2.71592,-1.55142,-0.01133,-0.55021,-0.73180,0.40201,-5.85766,10.61986,13.07610
-0.26746,1.86899,-0.14926,-0.41782,-0.06363,0.97262,2.20048,0.85747,2.62193,2.49017,-3.11598,-0.94750,0.00111,-0.53331,-0.72863,0.42974,-0.77888,19.41635,28.55220
-0.27141,1.86481,-0.13655,-0.38709,-0.11883,0.95923,2.30542,1.00522,3.02157,1.63905,-3.71452,-0.70993,0.01786,-0.51516,-0.72487,0.45702,5.59836,9.36902,27.52209
-0.27601,1.85966,-0.12394,-0.37397,-0.17916,0.94620,2.42306,0.85681,3.33370,0.75085,-3.97500,-1.02851,0.04037,-0.49852,-0.72103,0.47954,10.67840,-3.38067,22.40538
-0.28163,1.85424,-0.11161,-0.38137,-0.22965,0.93165,2.52423,0.39035,3.37663,-1.08336,-4.53064,-1.34114,0.06733,-0.48581,-0.71935,0.49192,12.00513,-28.86539,1.49170
-0.28846,1.84716,-0.10020,-0.40740,-0.29539,0.90491,2.74944,-0.39098,3.38786,-1.69222,-4.70150,-2.63765,0.10507,-0.47485,-0.71893,0.49661,25.42124,-43.85801,-1.37231
-0.29639,1.83929,-0.09037,-0.44582,-0.35885,0.85766,2.94311,-1.51930,3.14412,-3.03514,-4.55636,-4.29751,0.15053,-0.47041,-0.72034,0.48700,30.38259,-69.75359,-28.67569
-0.30451,1.83111,-0.08214,-0.47744,-0.41162,0.79571,3.14733,-2.39473,3.05469,-2.44386,-4.23531,-6.20694,0.19866,-0.46412,-0.71891,0.47781,34.18182,-69.87688,-23.30807
-0.31249,1.82172,-0.07806,-0.49885,-0.47213,0.67878,3.39686,-3.43148,2.93946,-0.63542,-3.52288,-8.55797,0.25476,-0.45963,-0.71547,0.46037,30.33423,-59.22147,-17.25706
-0.31905,1.81260,-0.07632,-0.49190,-0.51489,0.54834,3.61885,-4.22222,2.81805,1.51628,-2.68977,-10.30517,0.30959,-0.45325,-0.70989,0.44133,28.40551,-51.69328,-12.99205
-0.32425,1.80379,-0.07647,-0.46422,-0.54185,0.41931,3.79105,-4.79292,2.72934,2.70098,-1.95098,-11.48077,0.36304,-0.44517,-0.70182,0.42128,29.30070,-45.66805,-17.41472
-0.32637,1.79514,-0.08188,-0.39146,-0.55962,0.23304,3.86079,-5.23585,3.06309,5.77150,-0.46874,-12.10204,0.42012,-0.43421,-0.68417,0.40849,7.45714,-32.95793,12.42041
-0.32564,1.78762,-0.08872,-0.28675,-0.55472,0.06347,3.88724,-5.56976,3.25715,9.93809,1.59167,-12.26653,0.47415,-0.42247,-0.66446,0.39395,-1.48600,-27.04059,16.74040
-0.32322,1.78155,-0.09526,-0.18221,-0.52745,-0.05722,3.96208,-5.82683,3.01391,12.46425,4.14439,-11.85210,0.52229,-0.41210,-0.64880,0.36938,11.86712,-23.34152,-6.48007
-0.31111,1.78050,-0.10836,0.05672,-0.42402,-0.25631,3.96942,-6.04109,2.45877,14.24350,7.01448,-10.62345,0.56386,-0.40638,-0.63552,0.33620,17.88899,-3.48406,-33.81325
-0.29754,1.78112,-0.11976,0.27129,-0.31435,-0.38701,3.62309,-6.01944,2.47086,15.40275,8.16769,-9.05841,0.60224,-0.39979,-0.61302,0.31887,-10.17838,-0.20392,-14.91990
-0.28181,1.78291,-0.13062,0.46834,-0.21273,-0.47674,3.06836,-5.98291,2.72626,17.08651,8.62446,-6.68307,0.63890,-0.39461,-0.58265,0.31083,-47.97041,-5.63771,2.70889
-0.25684,1.78866,-0.14358,0.77687,-0.06741,-0.58156,2.57143,-6.12537,2.67922,17.96211,7.76586,-4.78038,0.67342,-0.39472,-0.55013,0.29674,-26.01009,-9.67626,-13.55301
-0.23340,1.79293,-0.15511,0.99076,0.02088,-0.63931,2.48352,-6.34046,2.46190,18.41248,7.31898,-4.53658,0.70886,-0.39158,-0.51963,0.27235,-2.34942,-13.64440,-20.09042
-0.20406,1.79933,-0.16750,1.25020,0.12288,-0.69732,2.30053,-6.73064,2.24977,19.02806,7.38565,-4.01427,0.74396,-0.39222,-0.48215,0.24541,3.15463,-22.34339,-22.12751
-0.17248,1.80671,-0.17952,1.48277,0.21589,-0.73493,2.11481,-7.16674,2.01186,20.43145,8.40648,-2.25264,0.77721,-0.39496,-0.43977,0.21575,-4.86237,-32.60245,-24.11694
-0.13153,1.81878,-0.19075,1.81830,0.36582,-0.75109,2.33167,-7.68273,1.20767,22.91965,11.33286,1.65963,0.80522,-0.40391,-0.40105,0.16620,25.48086,-28.65309,-39.27942
-0.08741,1.83409,-0.19902,2.13152,0.53657,-0.71366,2.99070,-7.94824,0.19192,22.69662,13.33987,4.16448,0.82628,-0.41075,-0.37186,0.10131,80.85422,-6.21196,-43.58878
-0.03845,1.85376,-0.20334,2.45252,0.74009,-0.61910,3.31182,-8.15681,-0.78099,23.99276,16.07425,8.50373,0.83938,-0.42347,-0.33868,0.03745,59.61087,-10.99473,-45.11604
0.01582,1.87813,-0.20240,2.78744,0.97425,-0.45894,3.03234,-8.25451,-1.96669,25.04622,17.31854,13.06509,0.83965,-0.45181,-0.30080,-0.01919,37.89954,7.39677,-71.52093
0.07590,1.90639,-0.19437,3.14093,1.21847,-0.21776,2.40958,-8.17818,-3.44860,26.71247,17.74029,20.80657,0.82517,-0.49635,-0.26042,-0.07007,9.48393,17.78055,-106.00540
0.14242,1.93784,-0.17726,3.51968,1.45850,0.11810,2.04971,-7.61740,-5.28768,28.63446,16.63577,27.86155,0.79135,-0.55201,-0.23202,-0.12336,41.74257,45.91473,-118.73690
0.21545,1.97092,-0.15019,3.91797,1.66918,0.54093,2.21595,-6.71720,-7.30002,29.84855,13.29980,33.61794,0.73742,-0.61240,-0.21729,-0.18428,87.07041,56.87101,-116.44700
0.29636,2.00259,-0.11260,4.35604,1.80695,1.04054,2.83733,-5.76083,-9.72845,34.84385,5.25035,39.03547,0.65457,-0.67951,-0.20910,-0.25706,124.40280,31.01616,-122.09820
0.38745,2.02706,-0.06292,4.86061,1.79186,1.62409,3.74573,-4.71028,-12.25272,38.01891,-8.41868,45.08464,0.54090,-0.74462,-0.20582,-0.33257,154.05540,33.36467,-135.72150
0.48337,2.03996,-0.00605,5.32022,1.59278,2.18209,4.77327,-3.96113,-14.20335,37.98609,-25.60188,48.60625,0.41151,-0.79073,-0.19944,-0.40698,162.77680,-6.66261,-125.56800
0.59215,2.02577,0.07642,5.89364,0.96208,3.00955,6.54352,-3.03351,-15.87396,31.89347,-54.29801,55.72909,0.25613,-0.81219,-0.20882,-0.48077,134.51980,-26.18668,-88.26318
0.69808,1.98015,0.17382,6.30097,-0.11511,3.87467,9.31724,-2.63708,-16.45385,17.54913,-83.00938,52.00696,0.09955,-0.78670,-0.23883,-0.56050,129.78190,-116.57570,-36.95985
0.79171,1.91521,0.26447,6.38813,-1.22358,4.42998,10.91125,-2.39629,-16.98340,-4.20421,-103.86190,37.77827,-0.05835,-0.74608,-0.24833,-0.61505,97.35802,-124.60420,-71.71552
0.86176,1.78817,0.35625,6.02983,-3.07524,4.89850,13.20356,-1.22416,-16.33813,-39.71888,-125.44320,16.66856,-0.21315,-0.68349,-0.29670,-0.63196,116.79610,-99.02452,33.43648
0.90454,1.63965,0.42838,5.28141,-4.85267,4.92415,15.91494,0.36747,-15.25637,-66.28019,-129.21810,-18.19973,-0.37061,-0.59969,-0.36302,-0.60930,140.97030,-160.92360,25.66788
0.93316,1.49424,0.48086,4.52257,-6.10446,4.64209,18.27938,1.82465,-14.25989,-85.52205,-121.44190,-42.51692,-0.52245,-0.49629,-0.42156,-0.55048,203.74980,-182.21690,27.41510
0.88890,1.29159,0.48179,2.73590,-7.99030,3.53942,23.84266,2.45602,-12.15496,-113.55020,-82.28214,-84.23286,-0.66867,-0.30136,-0.52957,-0.42617,202.11160,-192.73220,-111.19350
0.82546,1.13215,0.45454,1.00989,-8.74538,2.19918,29.57818,1.23131,-6.99001,-121.08940,-15.82400,-102.62050,-0.70914,-0.06693,-0.66192,-0.23347,315.93740,-320.89460,-246.78930
0.75633,1.01454,0.41440,-0.36363,-8.62676,1.02050,30.60077,-3.61311,-2.59797,-103.83320,27.59333,-81.35002,-0.62615,0.14646,-0.75799,-0.10924,207.08260,-381.71100,-454.19730
0.67647,0.94663,0.35947,-1.59099,-7.73975,-0.12810,23.76793,-8.62291,-2.79780,-56.50703,67.23549,-51.65250,-0.51683,0.24729,-0.80079,-0.17458,-231.72440,131.79740,-484.59730
0.62401,0.89307,0.33220,-2.09329,-6.81453,-0.55493,15.38771,-7.83168,-3.51932,-26.37809,60.54451,-17.22458,-0.48431,0.22377,-0.80416,-0.26209,-491.89370,269.09140,-213.26930
0.57936,0.83620,0.31774,-2.34825,-6.17745,-0.66462,9.41682,-5.49905,-4.37512,-21.69874,52.03360,-7.31647,-0.48650,0.18855,-0.78197,-0.34101,-459.58500,372.84280,-88.67209
0.52107,0.79420,0.30243,-2.76927,-5.43998,-0.76730,4.03651,-2.73809,-5.53324,-30.56702,43.17397,-8.50466,-0.49551,0.12996,-0.73708,-0.44078,-268.76110,294.29090,-37.15251
0.45746,0.75205,0.28215,-3.18419,-4.86759,-0.92948,1.84522,0.16826,-8.83914,-26.37968,41.92877,-13.92468,-0.52404,0.14343,-0.63237,-0.55219,-69.89999,294.34210,-203.11740
0.39695,0.71189,0.25907,-3.44790,-4.40849,-1.09718,1.60259,1.85814,-10.41193,-13.91267,40.79919,-12.78513,-0.54818,0.17841,-0.53745,-0.61548,54.25567,226.30920,-160.25480
0.33917,0.68168,0.23248,-3.60111,-3.89921,-1.27992,2.36222,1.86765,-10.46617,-3.06686,36.99017,-10.77608,-0.55811,0.23210,-0.47802,-0.63729,56.66269,5.11709,-36.26605
0.29024,0.66407,0.20462,-3.57060,-3.28235,-1.44525,2.97537,0.29248,-8.66961,8.41475,32.21648,-5.52505,-0.54971,0.28224,-0.47751,-0.62462,-4.48891,-104.65130,78.05588
0.24736,0.63927,0.18148,-3.45257,-2.92638,-1.49584,2.80594,-0.80171,-7.19453,10.73912,27.15359,-2.96254,-0.53491,0.31684,-0.47960,-0.61925,-64.11681,-119.83340,105.77190
0.21018,0.61946,0.15993,-3.27158,-2.57619,-1.50562,2.47913,-1.09080,-5.85327,12.17911,23.50913,0.37956,-0.52852,0.33564,-0.47876,-0.61547,-47.68598,-44.05724,95.48521
0.17579,0.60272,0.14079,-3.08770,-2.25579,-1.47338,2.14299,-0.68281,-4.94490,12.31016,22.73788,3.37214,-0.53099,0.34389,-0.46585,-0.61868,-19.44202,17.91054,74.05017
0.14337,0.59029,0.12379,-2.91289,-1.93793,-1.41284,1.77469,-0.00004,-4.34673,11.68467,22.40804,5.07531,-0.53646,0.34515,-0.44577,-0.62799,-14.69284,43.71920,53.94086
0.11300,0.58129,0.10873,-2.74739,-1.63721,-1.33295,1.55541,1.10383,-4.06622,10.84626,20.80132,5.93588,-0.54919,0.33923,-0.41200,-0.64310,-1.61112,69.07031,33.70358
0.08326,0.57284,0.09476,-2.61103,-1.40114,-1.25525,1.51247,2.14948,-4.00103,11.63592,19.05827,6.99935,-0.56431,0.33263,-0.36946,-0.65910,20.45452,87.60593,15.87323
0.05885,0.57109,0.08377,-2.41668,-1.10919,-1.14755,1.54873,3.31361,-3.91972,13.34292,17.78472,6.54428,-0.58367,0.31833,-0.31957,-0.67518,19.35719,73.01920,10.62691
0.03694,0.56954,0.07289,-2.22202,-0.87673,-1.06184,1.64121,3.94558,-3.73841,15.77454,15.71231,6.01156,-0.60000,0.30748,-0.27524,-0.68535,23.84767,50.51201,9.74611
0.01755,0.56810,0.06201,-2.03376,-0.69962,-0.99716,1.63194,4.08172,-3.38619,17.02293,13.72300,5.24075,-0.61206,0.29846,-0.24201,-0.69118,12.47663,17.92427,24.05617
0.00607,0.57005,0.05278,-1.75765,-0.50895,-0.92097,1.63491,4.05090,-2.73631,18.24549,10.27702,4.40467,-0.62613,0.28558,-0.21880,-0.69176,8.36015,-5.38888,36.17977
-0.00332,0.57040,0.04344,-1.50668,-0.38592,-0.86309,1.75251,3.98408,-2.00967,17.81297,7.76870,4.04737,-0.64351,0.27039,-0.19972,-0.68767,17.67927,-11.70406,46.57116
-0.01017,0.57082,0.03491,-1.27215,-0.28982,-0.80505,1.84793,3.87037,-1.31158,15.99656,6.20205,4.36155,-0.66124,0.25339,-0.18449,-0.68155,20.40691,-12.05581,46.85614
-0.01579,0.57207,0.02734,-1.07202,-0.20212,-0.74459,1.70823,3.41407,-0.73711,13.54731,5.74023,4.49216,-0.67232,0.24120,-0.17884,-0.67663,5.26591,-27.67880,40.77605
-0.02110,0.57435,0.02086,-0.91311,-0.11764,-0.68003,1.25366,2.47440,-0.26249,10.34172,5.88605,4.97160,-0.67298,0.23801,-0.18842,-0.67449,-22.65139,-61.94937,35.79899
-0.02582,0.57895,0.01634,-0.77920,-0.01215,-0.59612,0.61318,1.22809,-0.13051,7.16201,7.13350,6.01894,-0.66282,0.24775,-0.20573,-0.67599,-37.42960,-79.13828,13.66083
-0.03099,0.58443,0.01304,-0.68222,0.08463,-0.51034,0.11495,0.38138,-0.39754,6.16766,6.88680,6.87363,-0.65006,0.26211,-0.21336,-0.68058,-39.67041,-67.68627,-12.80000
-0.03173,0.58964,0.01417,-0.52898,0.15218,-0.36662,-0.44230,0.42988,-0.63396,15.39895,2.32625,14.94100,-0.63742,0.26282,-0.20862,-0.69361,-45.82585,-27.24489,-22.72024
-0.02478,0.59123,0.02123,-0.28481,0.14168,-0.15950,-0.46406,0.89998,-0.57925,18.68210,-2.56947,12.29810,-0.63749,0.25169,-0.19641,-0.70120,-12.13456,59.74769,0.26733
-0.01432,0.58759,0.02895,-0.01357,0.03641,-0.00874,-1.57594,-0.47777,0.45640,16.51378,-2.26328,10.55396,-0.61233,0.25016,-0.24440,-0.70904,-46.20772,-65.26861,56.79726
-0.02395,0.59071,0.03539,-0.04052,0.05433,-0.00971,-2.26164,-1.48898,1.10779,8.48177,1.39903,7.08224,-0.58654,0.25099,-0.28989,-0.71340,-80.62284,-97.35600,81.26614
-0.03011,0.59267,0.04070,-0.04178,0.05176,-0.01140,-2.18461,-1.51908,1.11089,7.90589,0.34418,5.49609,-0.57553,0.25048,-0.30564,-0.71597,4.63730,-10.77233,3.12173
-0.03475,0.59455,0.04552,-0.03402,0.04519,-0.01297,-1.95443,-1.20188,0.93971,6.51972,0.70624,4.10314,-0.56970,0.24740,-0.31037,-0.71966,12.25081,14.29827,-8.26179
-0.03725,0.59612,0.04877,-0.01763,0.03490,-0.01312,-1.54546,-0.53299,0.65884,6.66038,-0.29604,4.18845,-0.57160,0.24001,-0.30225,-0.72409,26.05167,40.34177,-25.51039
-0.03877,0.59764,0.05211,0.00897,0.01984,-0.01204,-0.90492,0.58855,0.29566,7.36041,-1.32040,3.63517,-0.58472,0.22475,-0.27742,-0.72844,38.44400,69.50470,-28.25707
-0.03836,0.59876,0.05437,0.03013,0.00786,-0.01108,-0.38046,1.49632,0.02675,8.46919,-1.71904,2.81957,-0.59824,0.20832,-0.25198,-0.73158,37.17413,68.27856,-25.76523
-0.03658,0.59974,0.05609,0.04201,0.00191,-0.01172,-0.10030,2.06753,-0.02343,9.23121,-2.30804,2.47471,-0.60902,0.19045,-0.23257,-0.73399,28.49865,55.86203,-16.55519
-0.03298,0.60067,0.05799,0.04636,0.00103,-0.01394,-0.00984,2.39279,0.14424,9.07620,-2.43157,1.72707,-0.61732,0.16994,-0.22045,-0.73582,12.01514,31.41104,5.93895
-0.02805,0.60163,0.05974,0.04213,0.00527,-0.01645,-0.11014,2.38747,0.48213,8.76216,-1.57734,0.59021,-0.62103,0.14996,-0.21907,-0.73746,-1.30668,4.79562,21.90310
-0.02271,0.60273,0.06108,0.03407,0.01102,-0.01815,-0.26436,2.20893,0.84541,7.95960,-1.24087,-0.29622,-0.62206,0.13140,-0.22380,-0.73870,-6.42828,-10.01719,27.44189
-0.01666,0.60400,0.06234,0.02034,0.01908,-0.01871,-0.48019,1.82368,1.33773,7.27809,-0.64249,-0.97227,-0.62012,0.11376,-0.23822,-0.73875,-7.66768,-22.46368,31.46192
-0.01015,0.60533,0.06358,0.00797,0.02526,-0.01828,-0.63547,1.46780,1.75139,6.94329,0.97881,-1.99189,-0.61763,0.09683,-0.25411,-0.73796,-7.18741,-27.17779,33.77472
-0.00310,0.60667,0.06507,-0.00041,0.02763,-0.01715,-0.65372,1.25034,2.03036,6.29221,1.83094,-3.00735,-0.61716,0.08007,-0.26757,-0.73560,0.33397,-17.98030,24.42450
0.00452,0.60786,0.06705,-0.00642,0.02720,-0.01521,-0.56619,1.10968,2.22362,5.62757,1.58723,-3.00258,-0.61873,0.06387,-0.27947,-0.73143,7.19933,-9.74161,14.12132
0.01258,0.60911,0.06980,-0.01024,0.02624,-0.01378,-0.46506,1.07830,2.39968,5.19284,2.25421,-2.88494,-0.62138,0.04573,-0.29050,-0.72623,9.27702,-3.78160,12.96009
0.02119,0.61057,0.07342,-0.01058,0.02505,-0.01354,-0.37863,1.19866,2.51368,4.94363,3.08891,-2.83384,-0.62490,0.02486,-0.29805,-0.72114,6.63517,7.00898,8.30550
0.03004,0.61200,0.07816,-0.00704,0.02339,-0.01440,-0.28997,1.48731,2.55774,4.39705,4.14250,-3.53693,-0.62996,0.00066,-0.30083,-0.71600,3.35105,16.64317,4.84103
0.04042,0.61362,0.08503,0.00061,0.02061,-0.01591,-0.17073,1.92758,2.49025,3.63944,3.78020,-3.62063,-0.63745,-0.02603,-0.29705,-0.71045,3.05856,31.16250,-4.61378
