posX, posY, posZ, velX, velY, velZ, angVelX, angVelY, angVelZ, accX, accY, accZ, rotX, rotY, rotZ, rotW, angAccX, angAccY, angAccZ
0.07371,1.17936,-0.50340,-0.37179,0.50874,-0.30118,0.85981,0.57927,0.69185,0.99753,-0.19189,2.43010,-0.28880,-0.87470,-0.05182,-0.38576,12.69033,-2.53037,1.34185
0.06948,1.18588,-0.50601,-0.35786,0.50352,-0.26990,0.98032,0.54307,0.72270,0.94915,-0.50059,2.21553,-0.28763,-0.87696,-0.06134,-0.38008,9.47312,-2.42477,2.34081
0.06546,1.19209,-0.50839,-0.34357,0.49509,-0.24143,1.07899,0.52656,0.73818,1.00088,-0.65078,2.02408,-0.28673,-0.87914,-0.07089,-0.37400,8.19148,-1.11546,0.54638
0.06175,1.19786,-0.51048,-0.32730,0.48119,-0.21381,1.07262,0.50850,0.73755,0.99996,-1.01786,1.81150,-0.28520,-0.88122,-0.07843,-0.36873,1.28608,-1.19135,0.61719
0.05815,1.20360,-0.51225,-0.31113,0.46637,-0.18951,0.96718,0.47302,0.71146,1.20597,-1.04753,2.03894,-0.28323,-0.88305,-0.08343,-0.36476,-5.21554,-1.37500,-2.42438
0.05470,1.20921,-0.51379,-0.29726,0.45472,-0.16690,0.81187,0.39494,0.69797,1.07579,-0.77874,2.00587,-0.28019,-0.88452,-0.08697,-0.36272,-11.71669,-6.15406,-1.12574
0.05151,1.21479,-0.51463,-0.28267,0.44652,-0.13632,0.63602,0.28579,0.73478,0.78058,-0.20971,1.81721,-0.27524,-0.88593,-0.08983,-0.36235,-12.46761,-7.87389,1.63048
0.04808,1.22082,-0.51541,-0.27506,0.44598,-0.11399,0.58643,0.22455,0.77604,0.49963,0.09620,1.68605,-0.27083,-0.88744,-0.09472,-0.36072,-5.84020,-6.05801,3.24280
0.04474,1.22671,-0.51619,-0.26931,0.44757,-0.09410,0.56889,0.19533,0.82951,0.25427,0.10129,1.11248,-0.26604,-0.88919,-0.10022,-0.35851,-1.66623,-4.14817,4.33750
0.04135,1.23262,-0.51712,-0.26560,0.44772,-0.08271,0.57993,0.21472,0.84198,0.23753,-0.09990,0.83848,-0.26227,-0.89105,-0.10570,-0.35506,0.19988,0.86450,2.53615
0.03791,1.23833,-0.51769,-0.26307,0.44339,-0.06838,0.70580,0.23856,0.71811,0.05919,-0.14878,0.72008,-0.26305,-0.89166,-0.11265,-0.35079,5.57652,1.65353,-6.17317
0.03464,1.24441,-0.51828,-0.25737,0.44646,-0.05824,0.81765,0.30657,0.67814,0.78302,0.63350,0.60041,-0.26288,-0.89301,-0.12023,-0.34491,9.65484,6.43452,-5.83485
0.03143,1.25078,-0.51894,-0.25223,0.45281,-0.05251,0.84341,0.33286,0.67232,-0.07365,0.36910,0.68777,-0.26133,-0.89443,-0.12679,-0.34003,3.68370,4.42943,2.16361
0.02780,1.25735,-0.51939,-0.25524,0.45969,-0.04555,0.89236,0.34367,0.60443,-0.33536,0.69976,0.35553,-0.26174,-0.89509,-0.13352,-0.33538,3.16659,-0.40398,-4.91482
0.02402,1.26424,-0.52003,-0.26043,0.47112,-0.04310,0.82326,0.33271,0.58361,-0.40005,1.00573,0.33382,-0.26026,-0.89614,-0.13801,-0.33190,-0.67958,1.26033,-2.55481
0.02006,1.27141,-0.52075,-0.26708,0.48382,-0.04283,0.68284,0.28212,0.60523,-0.64338,1.25237,0.03576,-0.25667,-0.89737,-0.14078,-0.33019,-10.72117,-4.43608,0.82945
0.01560,1.27935,-0.52142,-0.28037,0.50621,-0.04234,0.52568,0.23294,0.67627,-0.96134,1.58522,0.06650,-0.25106,-0.89910,-0.14278,-0.32895,-10.34854,-3.33315,4.13136
0.01091,1.28767,-0.52194,-0.29445,0.52995,-0.03959,0.47933,0.21203,0.75191,-1.09294,1.88618,0.09905,-0.24567,-0.90081,-0.14682,-0.32656,-6.30839,-3.13642,5.64217
0.00602,1.29629,-0.52229,-0.30815,0.55220,-0.03479,0.50921,0.22268,0.81482,-1.18637,1.88487,0.53111,-0.24088,-0.90249,-0.15251,-0.32284,1.87270,1.13919,4.96485
0.00059,1.30562,-0.52223,-0.32767,0.58109,-0.02455,0.57050,0.17934,0.86805,-1.02959,1.26413,0.45245,-0.23605,-0.90350,-0.15959,-0.32016,2.86434,-2.90971,3.93361
-0.00449,1.31443,-0.52235,-0.33697,0.59502,-0.01960,0.68354,0.20673,0.83977,-0.72890,1.00829,0.14816,-0.23394,-0.90422,-0.16727,-0.31572,6.56015,0.04317,-0.90075
-0.00956,1.32325,-0.52256,-0.34362,0.60521,-0.01743,0.80513,0.25232,0.77863,-0.53438,0.65573,0.13877,-0.23344,-0.90463,-0.17544,-0.31044,10.59745,4.75221,-4.15457
-0.01481,1.33221,-0.52279,-0.35158,0.61613,-0.01563,1.01266,0.36018,0.64266,-0.50363,0.53909,0.07476,-0.23663,-0.90443,-0.18521,-0.30284,11.31890,7.00870,-7.72607
-0.02004,1.34098,-0.52302,-0.35744,0.62140,-0.01427,1.16536,0.43427,0.55576,-0.42663,0.40432,0.19184,-0.23922,-0.90415,-0.19502,-0.29539,12.34785,7.74840,-7.55933
-0.02538,1.34989,-0.52312,-0.36378,0.62792,-0.01085,1.36578,0.52507,0.43995,-0.42816,0.46236,0.26699,-0.24401,-0.90317,-0.20629,-0.28668,11.80048,6.00449,-7.44015
-0.03082,1.35881,-0.52316,-0.37089,0.63439,-0.00660,1.51964,0.58179,0.39031,-0.45790,0.55437,0.49199,-0.24768,-0.90213,-0.21801,-0.27802,12.99189,6.84829,-5.13590
-0.03637,1.36781,-0.52331,-0.37812,0.64037,-0.00507,1.54163,0.58487,0.40914,-0.62718,0.53813,0.12110,-0.24878,-0.90155,-0.22804,-0.27077,5.28645,0.79244,0.06080
-0.04224,1.37691,-0.52367,-0.38880,0.64628,-0.00768,1.49100,0.58878,0.46486,-0.82188,0.38538,-0.22355,-0.24814,-0.90162,-0.23660,-0.26369,-2.28831,0.41193,3.87758
-0.04849,1.38598,-0.52436,-0.40318,0.65188,-0.01377,1.35436,0.57326,0.57592,-0.94383,0.34370,-0.33614,-0.24478,-0.90260,-0.24324,-0.25736,-8.30738,-1.60077,6.65373
-0.05483,1.39493,-0.52504,-0.41584,0.65318,-0.01854,1.25396,0.57104,0.66733,-1.13621,-0.07732,-0.43968,-0.24128,-0.90360,-0.24990,-0.25069,-8.38030,-2.11842,8.11935
-0.06145,1.40358,-0.52582,-0.42978,0.64821,-0.02470,1.16318,0.61215,0.72628,-0.96774,-0.60800,-0.52148,-0.23815,-0.90489,-0.25572,-0.24304,-7.13577,0.33651,6.26292
-0.06816,1.41147,-0.52711,-0.44161,0.63865,-0.02949,1.14103,0.72516,0.72589,-0.93180,-0.70764,-0.14196,-0.23720,-0.90602,-0.26178,-0.23308,-3.32606,7.01376,0.96503
-0.07525,1.41900,-0.52826,-0.45726,0.62562,-0.02951,1.12420,0.87911,0.69869,-0.98906,-0.73374,0.12181,-0.23742,-0.90730,-0.26715,-0.22151,-1.91130,8.81167,-0.98840
-0.08222,1.42700,-0.52876,-0.46730,0.61716,-0.02649,1.11633,1.00681,0.66265,-0.74373,-0.70834,0.52202,-0.23818,-0.90834,-0.27246,-0.20967,-0.71803,11.60070,-1.76690
-0.08945,1.43488,-0.52854,-0.47886,0.60672,-0.01406,1.05656,1.08296,0.60734,-0.71803,-0.62167,1.24052,-0.23918,-0.90934,-0.27629,-0.19890,-3.40962,6.32862,-3.31334
-0.09682,1.44278,-0.52773,-0.49018,0.59851,0.00558,1.00303,1.07048,0.56890,-0.80084,-0.55840,1.64335,-0.23944,-0.90988,-0.28044,-0.19011,-4.67753,-0.43650,-2.21225
-0.10430,1.45059,-0.52625,-0.50150,0.59098,0.03084,0.99217,1.04723,0.53701,-0.83298,-0.49542,1.89284,-0.23983,-0.90999,-0.28539,-0.18151,-2.08949,-1.80256,-2.51900
-0.11201,1.45815,-0.52440,-0.51424,0.58257,0.05768,0.99927,1.02341,0.52090,-0.96902,-0.63601,1.90280,-0.24006,-0.90989,-0.29086,-0.17285,0.88158,-1.11507,-1.97366
-0.11982,1.46562,-0.52245,-0.52533,0.57405,0.07909,0.99919,1.01298,0.50875,-0.91976,-0.75838,1.67303,-0.24026,-0.90978,-0.29609,-0.16402,-0.20534,-1.85809,-0.63501
-0.12816,1.47103,-0.52224,-0.54120,0.55665,0.10182,1.00519,1.04651,0.48480,-0.74988,-0.99684,1.28946,-0.24116,-0.90961,-0.30113,-0.15417,0.85421,1.90541,-1.19836
-0.13639,1.47582,-0.52363,-0.55009,0.54334,0.10965,0.99028,1.09120,0.46300,-0.58617,-0.88508,1.11969,-0.24217,-0.90958,-0.30544,-0.14397,-1.51287,2.89094,-1.30471
-0.14473,1.48057,-0.52479,-0.55776,0.53109,0.11869,1.02120,1.15477,0.44545,-0.52956,-0.76793,1.36007,-0.24370,-0.90916,-0.31060,-0.13259,0.62189,5.78514,-1.92540
-0.15331,1.48657,-0.52282,-0.56852,0.51657,0.13864,0.97643,1.13051,0.47042,-0.45639,-1.03081,1.47564,-0.24328,-0.90919,-0.31465,-0.12320,-0.82512,0.75956,1.47903
-0.16169,1.49298,-0.51983,-0.57374,0.50251,0.15570,0.88905,1.05524,0.47810,-0.19528,-1.04761,1.06134,-0.24233,-0.90939,-0.31756,-0.11597,-7.27903,-6.98074,1.48879
-0.16989,1.49914,-0.51662,-0.57499,0.48737,0.17244,0.89930,1.04197,0.44356,-0.06386,-1.15186,1.05217,-0.24315,-0.90868,-0.32195,-0.10737,-1.70392,-2.17401,-1.94385
-0.17792,1.50489,-0.51329,-0.57387,0.46903,0.18672,0.96123,1.07144,0.38231,0.25701,-1.47998,0.77978,-0.24546,-0.90722,-0.32738,-0.09759,4.31572,1.74213,-3.92068
-0.18569,1.51041,-0.51015,-0.56843,0.45135,0.19403,1.04277,1.14365,0.27725,0.50509,-1.54857,0.21027,-0.24989,-0.90503,-0.33310,-0.08675,4.72408,4.34470,-6.61828
-0.19315,1.51520,-0.50734,-0.55914,0.42572,0.19375,1.16922,1.35776,0.10686,0.64687,-1.72224,-0.42374,-0.25838,-0.90173,-0.33903,-0.07196,7.74445,13.30221,-10.25130
-0.20043,1.52003,-0.50498,-0.54956,0.40635,0.18669,1.19695,1.53758,-0.03337,0.94505,-1.67713,-0.63650,-0.26705,-0.89880,-0.34286,-0.05730,3.60952,16.34394,-10.92420
-0.20735,1.52438,-0.50284,-0.53616,0.38349,0.17708,1.15462,1.67796,-0.20093,0.86072,-1.32845,-0.33244,-0.27721,-0.89578,-0.34471,-0.04359,-2.49743,11.75821,-10.16932
-0.21440,1.52876,-0.50062,-0.52846,0.36626,0.17162,1.03854,1.67199,-0.27126,0.34730,-0.76286,-0.19853,-0.28438,-0.89369,-0.34547,-0.03305,-7.54451,0.48189,-4.37041
-0.22168,1.53360,-0.49811,-0.52686,0.36067,0.17365,0.99976,1.69959,-0.27899,-0.08694,0.00881,0.37960,-0.29070,-0.89133,-0.34726,-0.02096,-5.04515,0.75261,-1.18187
-0.22924,1.53873,-0.49521,-0.53044,0.36157,0.18145,0.99234,1.68125,-0.22932,-0.23027,0.22007,0.83060,-0.29521,-0.88897,-0.35001,-0.00909,0.77398,1.26932,2.10740
-0.23688,1.54423,-0.49208,-0.53464,0.36887,0.19144,0.93668,1.62261,-0.13773,-0.29187,0.72243,0.69644,-0.29773,-0.88744,-0.35185,0.00171,-2.87292,-4.68942,6.15046
-0.24469,1.55010,-0.48865,-0.54111,0.38210,0.20240,0.83813,1.54578,-0.00328,-0.43824,0.93991,0.65903,-0.29822,-0.88693,-0.35254,0.01188,-4.61263,-5.12238,8.52054
-0.25245,1.55617,-0.48526,-0.54519,0.39537,0.21076,0.75902,1.50647,0.07509,-0.35192,1.28393,0.72701,-0.29947,-0.88619,-0.35284,0.02226,-6.46420,-4.47532,8.14857
-0.26025,1.56279,-0.48149,-0.54891,0.41443,0.22340,0.70852,1.47688,0.12040,-0.22724,1.54133,0.94163,-0.30102,-0.88516,-0.35329,0.03257,-4.14649,-2.80356,4.81649
-0.26763,1.57021,-0.47695,-0.54601,0.44323,0.24439,0.82096,1.58684,0.05474,0.24508,2.34186,1.38420,-0.30639,-0.88150,-0.35628,0.04641,2.61735,4.12354,-3.05959
-0.27467,1.57801,-0.47203,-0.53757,0.47142,0.26789,1.05775,1.73816,-0.01047,0.99284,2.63443,2.21011,-0.31277,-0.87563,-0.36256,0.06332,16.72284,13.33954,-7.08574
-0.28122,1.58651,-0.46614,-0.52267,0.50470,0.30383,1.31742,1.71532,-0.00123,1.64776,2.03284,3.12708,-0.31612,-0.86917,-0.37215,0.07816,21.16681,6.11033,-3.75476
-0.28729,1.59514,-0.45955,-0.50235,0.53325,0.34562,1.33952,1.27486,0.11877,1.50276,1.34434,2.52789,-0.31236,-0.86639,-0.38095,0.08176,5.15001,-24.92512,4.29763
-0.29343,1.60341,-0.45348,-0.48809,0.54846,0.36829,1.23485,0.88986,0.23058,0.99188,0.98969,1.51528,-0.30753,-0.86533,-0.38695,0.08302,-6.19190,-34.86467,7.05631
-0.29925,1.61164,-0.44749,-0.47182,0.55835,0.38309,1.11079,0.59612,0.26882,0.96434,0.43648,0.58194,-0.30376,-0.86444,-0.39185,0.08320,-9.22983,-25.90032,4.34277
-0.30439,1.61959,-0.44178,-0.44731,0.56095,0.39073,1.10329,0.56087,0.12149,0.97986,-0.04427,0.01114,-0.30625,-0.86062,-0.39745,0.08708,-2.16275,-3.68833,-7.32994
-0.30997,1.62733,-0.43640,-0.43612,0.55950,0.39021,1.20721,0.72102,-0.01351,0.68683,0.08428,-0.50806,-0.31127,-0.85466,-0.40417,0.09649,4.87966,8.12285,-12.75503
-0.31533,1.63512,-0.43191,-0.42231,0.55996,0.37886,1.39793,1.14912,-0.20394,0.83887,-0.01868,-0.88882,-0.32171,-0.84535,-0.41105,0.11372,12.89441,28.68558,-11.16362
-0.32093,1.64289,-0.42804,-0.41415,0.56009,0.36267,1.42577,1.40850,-0.28531,0.76593,-0.16569,-0.97237,-0.32993,-0.83790,-0.41532,0.12877,4.61144,22.52282,-5.77917
-0.32651,1.65048,-0.42433,-0.40769,0.55687,0.34714,1.36126,1.51178,-0.31293,0.62215,-0.58960,-0.78151,-0.33644,-0.83189,-0.41819,0.14105,-2.31641,10.90580,-1.92283
-0.33190,1.65771,-0.41992,-0.40186,0.54664,0.33900,1.23674,1.49315,-0.32159,0.58811,-1.01981,-0.25296,-0.34175,-0.82715,-0.42000,0.15045,-8.21757,1.60491,0.00604
-0.33729,1.66458,-0.41520,-0.39704,0.53241,0.33786,1.07435,1.36079,-0.31945,0.29643,-1.06743,0.12433,-0.34569,-0.82378,-0.42125,0.15634,-11.67789,-8.32902,0.50660
-0.34285,1.67118,-0.41012,-0.39696,0.51748,0.34327,0.95733,1.23075,-0.26329,-0.14443,-1.01177,0.53381,-0.34798,-0.82091,-0.42273,0.16221,-8.86651,-8.17989,1.96515
-0.34891,1.67782,-0.40471,-0.40513,0.50534,0.35181,0.83571,1.05392,-0.11135,-0.87645,-0.73932,0.51129,-0.34681,-0.81989,-0.42377,0.16712,-8.82024,-13.75653,9.01574
-0.35544,1.68441,-0.39931,-0.41919,0.49504,0.35771,0.76318,0.97375,0.08242,-1.12907,-0.78727,0.16231,-0.34425,-0.81912,-0.42439,0.17447,-4.86075,-8.36065,13.61928
-0.36199,1.69084,-0.39420,-0.43039,0.48551,0.35799,0.68540,0.93258,0.22505,-0.75000,-0.97990,-0.19578,-0.34204,-0.81847,-0.42421,0.18208,-4.08336,-4.47791,14.14263
-0.36840,1.69671,-0.38940,-0.43657,0.46862,0.35283,0.60403,0.95481,0.32395,-0.22260,-1.30544,-0.41424,-0.34078,-0.81772,-0.42293,0.19061,-5.30256,-0.15786,7.72898
-0.37450,1.70216,-0.38458,-0.43642,0.44847,0.34925,0.53166,0.95285,0.36080,0.29737,-1.64631,-0.13470,-0.34039,-0.81669,-0.42177,0.19817,-4.39843,1.83338,2.85434
-0.38052,1.70708,-0.37961,-0.43526,0.42463,0.34955,0.44109,0.85596,0.40870,0.05966,-1.77265,0.15523,-0.33857,-0.81680,-0.42059,0.20326,-6.75728,-6.46807,3.20643
-0.38657,1.71184,-0.37435,-0.43545,0.40292,0.35283,0.40276,0.77674,0.46697,-0.00964,-1.87810,0.14447,-0.33592,-0.81677,-0.42008,0.20876,-3.52433,-7.80339,4.57007
-0.39218,1.71565,-0.36919,-0.42817,0.36868,0.35204,0.33591,0.77952,0.47665,0.53751,-2.13662,-0.29911,-0.33500,-0.81649,-0.41823,0.21495,-3.52328,-0.63116,1.48351
-0.39761,1.71932,-0.36441,-0.41909,0.34255,0.34861,0.27962,0.86882,0.41924,0.69371,-2.17917,-0.27750,-0.33676,-0.81507,-0.41570,0.22238,-5.57048,4.55341,-2.69596
-0.40264,1.72240,-0.35945,-0.40602,0.31196,0.34782,0.27090,1.05061,0.30085,0.92431,-2.13269,0.04933,-0.34152,-0.81168,-0.41321,0.23194,-2.42735,12.12077,-7.51051
-0.40754,1.72513,-0.35418,-0.39390,0.28296,0.35281,0.28254,1.18289,0.19731,0.90478,-2.00058,0.63652,-0.34645,-0.80781,-0.41126,0.24142,-0.05592,12.46950,-8.24342
-0.41242,1.72761,-0.34841,-0.38450,0.25702,0.36518,0.33374,1.24156,0.15988,0.77330,-1.69684,0.97679,-0.34954,-0.80403,-0.41047,0.25074,2.52195,5.00901,-4.03552
-0.41705,1.73013,-0.34228,-0.37432,0.23769,0.37886,0.38668,1.27305,0.13878,0.90880,-1.60613,1.24406,-0.35213,-0.80014,-0.41010,0.25998,4.07531,2.79507,-1.68854
-0.42131,1.73217,-0.33545,-0.36077,0.21495,0.40031,0.45680,1.29248,0.11192,1.15981,-1.72822,1.64937,-0.35470,-0.79568,-0.41055,0.26931,5.46235,3.51771,-2.32941
-0.42536,1.73396,-0.32821,-0.34598,0.19445,0.42595,0.47806,1.20521,0.11071,1.04274,-1.26776,2.09125,-0.35575,-0.79262,-0.41113,0.27600,0.71947,-5.19180,-1.51794
-0.42923,1.73568,-0.32007,-0.33089,0.17740,0.46181,0.57457,1.13354,0.11815,0.81681,-0.75514,2.23316,-0.35589,-0.78865,-0.41356,0.28345,5.47223,-5.57520,0.00241
-0.43331,1.73771,-0.31228,-0.32276,0.16972,0.48347,0.67182,1.09757,0.15725,0.86399,-0.75720,2.05691,-0.35519,-0.78446,-0.41611,0.29208,8.87518,-2.75904,0.95442
-0.43668,1.73934,-0.30342,-0.30564,0.15725,0.51609,0.75283,0.97084,0.25458,1.09590,-0.81687,1.58069,-0.35155,-0.78167,-0.41932,0.29928,5.39979,-7.05002,4.56494
-0.43997,1.74095,-0.29507,-0.29224,0.14728,0.53224,0.77342,0.86501,0.31015,1.10362,-0.99170,1.01760,-0.34862,-0.77928,-0.42170,0.30554,3.42430,-9.46163,4.18149
-0.44312,1.74242,-0.28699,-0.27966,0.13774,0.54024,0.74526,0.79327,0.34151,1.28709,-1.11358,0.54487,-0.34637,-0.77729,-0.42299,0.31135,0.04587,-7.67942,3.81574
-0.44516,1.74318,-0.27895,-0.25255,0.11939,0.54552,0.68312,0.72552,0.33313,1.51017,-0.98839,-0.03606,-0.34501,-0.77568,-0.42367,0.31589,-3.76410,-5.75137,0.84873
-0.44689,1.74395,-0.27140,-0.22505,0.10498,0.54277,0.66462,0.82390,0.23373,2.08371,-0.91754,-0.35608,-0.34758,-0.77115,-0.42425,0.32329,-1.89579,5.35034,-5.23451
-0.44828,1.74475,-0.26406,-0.19863,0.09456,0.53782,0.64705,0.90814,0.11436,2.21017,-0.83686,-0.49932,-0.35143,-0.76598,-0.42506,0.33030,-1.54508,8.68329,-9.82677
-0.44870,1.74536,-0.25674,-0.16276,0.08389,0.53328,0.61450,0.94882,-0.00721,1.82560,-0.36586,0.07510,-0.35582,-0.76095,-0.42589,0.33612,-3.05323,2.88839,-6.97524
-0.44950,1.74623,-0.24880,-0.14103,0.07981,0.53937,0.68971,0.96922,-0.06379,1.30286,0.01292,0.59166,-0.35808,-0.75512,-0.42878,0.34311,2.81675,0.93960,-4.70474
-0.45033,1.74728,-0.24057,-0.12435,0.07963,0.54954,0.81733,0.99151,-0.10014,1.11129,0.08221,0.73645,-0.35952,-0.74826,-0.43311,0.35109,8.96798,2.28136,-3.17880
-0.45117,1.74847,-0.23232,-0.11081,0.08177,0.55851,0.93358,0.99689,-0.12744,0.86333,0.13905,0.41224,-0.36055,-0.74118,-0.43795,0.35897,9.24298,1.09283,-2.66621
-0.45200,1.74980,-0.22443,-0.10053,0.08584,0.55942,0.98649,0.97544,-0.11335,0.64677,0.36486,-0.21255,-0.36074,-0.73514,-0.44187,0.36631,4.89880,-1.72689,0.16577
-0.45290,1.75127,-0.21698,-0.09335,0.09091,0.55323,0.99198,0.95887,-0.09015,0.59865,0.32683,-0.87978,-0.36098,-0.72965,-0.44483,0.37340,2.55812,-1.49299,0.94247
-0.45374,1.75287,-0.21033,-0.08601,0.09684,0.53611,0.91916,0.87686,-0.03301,0.57175,0.35001,-1.51240,-0.36023,-0.72640,-0.44637,0.37859,-3.99131,-5.06718,3.65001
-0.45439,1.75450,-0.20444,-0.07722,0.10198,0.51033,0.83037,0.81330,0.02332,0.46697,0.20776,-1.60969,-0.35956,-0.72373,-0.44701,0.38356,-6.07777,-5.01183,3.87198
-0.45503,1.75591,-0.19864,-0.07024,0.10223,0.48840,0.77567,0.76709,0.06989,0.53845,-0.02673,-1.59213,-0.35874,-0.72077,-0.44787,0.38885,-3.84692,-2.24515,3.46406
-0.45565,1.75728,-0.19309,-0.06492,0.10227,0.46721,0.71907,0.69936,0.13357,0.21902,0.12659,-1.40301,-0.35703,-0.71870,-0.44845,0.39356,-4.73246,-6.34396,3.94777
-0.45628,1.75865,-0.18763,-0.06084,0.10222,0.44937,0.72490,0.70196,0.19852,0.33107,0.00209,-1.23355,-0.35512,-0.71544,-0.44930,0.40021,0.20149,-0.43386,4.59303
-0.45667,1.76007,-0.18230,-0.05339,0.10249,0.43405,0.73850,0.67467,0.25751,0.80613,0.09657,-0.91496,-0.35247,-0.71246,-0.45050,0.40645,0.67950,-1.86857,4.89282
-0.45672,1.76147,-0.17690,-0.04201,0.10228,0.42384,0.76646,0.62370,0.27657,1.11561,-0.07488,-0.82530,-0.34977,-0.70929,-0.45272,0.41184,2.13725,-3.55504,1.97461
-0.45631,1.76276,-0.17173,-0.02588,0.10022,0.41254,0.75261,0.50341,0.30419,1.40790,-0.25638,-0.75661,-0.34609,-0.70772,-0.45489,0.41525,0.67414,-6.68754,1.33620
-0.45507,1.76382,-0.16651,0.00118,0.09469,0.40476,0.77771,0.33865,0.29481,1.56392,-0.40694,-0.15319,-0.34166,-0.70625,-0.45886,0.41703,0.37636,-9.93004,-0.55222
-0.45377,1.76468,-0.16108,0.02402,0.08697,0.40218,0.83163,0.23912,0.25498,1.64693,-0.56668,-0.19631,-0.33793,-0.70352,-0.46361,0.41944,4.52738,-6.44862,-3.39590
-0.45240,1.76552,-0.15567,0.04197,0.08071,0.39964,0.88776,0.15784,0.23778,1.35532,-0.52270,-0.19693,-0.33361,-0.70074,-0.46860,0.42200,4.32633,-6.80991,-2.97799
-0.45069,1.76614,-0.15045,0.06095,0.07233,0.39384,0.93761,0.04978,0.25732,1.12789,-0.55199,-0.59728,-0.32786,-0.69868,-0.47380,0.42410,4.71136,-6.27607,0.37168
-0.44891,1.76689,-0.14554,0.07683,0.06802,0.38399,0.94299,-0.05401,0.28378,1.18011,-0.13535,-0.73765,-0.32196,-0.69747,-0.47830,0.42557,0.12469,-8.49102,1.71918
-0.44704,1.76774,-0.14063,0.09023,0.06639,0.37678,0.96058,-0.09048,0.28745,1.38214,-0.13684,-0.70337,-0.31678,-0.69536,-0.48283,0.42780,0.99581,-5.26206,1.04830
-0.44399,1.76850,-0.13610,0.12000,0.06371,0.36495,0.99147,-0.16672,0.23025,1.97950,-0.01774,-0.59257,-0.31191,-0.69297,-0.48889,0.42835,1.64906,-3.23576,-2.46832
-0.44077,1.76937,-0.13149,0.14653,0.06353,0.35703,1.02065,-0.29544,0.15004,1.93512,-0.04009,-0.56148,-0.30676,-0.69095,-0.49614,0.42701,2.31963,-7.84481,-6.20776
-0.43741,1.77026,-0.12679,0.16865,0.06347,0.35252,1.04325,-0.43687,0.08004,1.84725,0.08548,-0.16417,-0.30110,-0.68937,-0.50389,0.42451,1.72821,-11.25294,-6.29488
-0.43354,1.77124,-0.12192,0.19369,0.06527,0.35193,1.15289,-0.50345,-0.02347,1.46992,0.44646,0.05824,-0.29583,-0.68536,-0.51378,0.42284,5.75823,-7.68553,-7.93293
-0.42929,1.77265,-0.11697,0.21963,0.07380,0.35286,1.34651,-0.30124,-0.12582,1.31610,0.88253,0.29366,-0.29325,-0.67633,-0.52372,0.42697,10.93130,9.02828,-4.96279
-0.42494,1.77456,-0.11179,0.24159,0.08898,0.35753,1.55109,-0.05986,-0.20031,1.71494,1.31654,0.48175,-0.29121,-0.66513,-0.53379,0.43343,15.70796,20.97583,-4.11622
-0.42064,1.77690,-0.10614,0.25714,0.10740,0.36883,1.68307,-0.03098,-0.23169,1.50943,1.71429,1.35514,-0.28662,-0.65627,-0.54438,0.43682,11.84474,9.65099,-2.78377
-0.41620,1.78029,-0.09917,0.27135,0.13922,0.39982,1.84742,-0.27156,-0.23306,0.74866,2.20649,2.37308,-0.27664,-0.64975,-0.55813,0.43565,10.34776,-13.39729,-2.00949
-0.41202,1.78418,-0.09138,0.27808,0.17236,0.43777,1.99570,-0.58218,-0.19235,0.41155,2.57256,3.10258,-0.26344,-0.64462,-0.57257,0.43270,10.27716,-20.93191,0.70513
-0.40810,1.78874,-0.08243,0.27890,0.20903,0.48642,2.17537,-0.95048,-0.14291,-0.17904,2.80015,3.92926,-0.24671,-0.63990,-0.58881,0.42775,10.93010,-26.68832,0.08862
-0.40441,1.79388,-0.07214,0.27559,0.24678,0.54616,2.44922,-1.23113,-0.10623,-0.47807,2.84916,4.80781,-0.22798,-0.63244,-0.60715,0.42357,16.66742,-23.26899,1.00948
-0.40096,1.79944,-0.05982,0.26873,0.28301,0.62758,2.91288,-1.42745,-0.17035,-0.19495,2.22036,5.66214,-0.20784,-0.61908,-0.63033,0.41979,26.84910,-12.10437,-1.61747
-0.39790,1.80470,-0.04707,0.25692,0.30566,0.69679,3.32640,-1.67470,-0.10225,-1.32870,1.98778,6.02367,-0.18301,-0.60571,-0.65317,0.41592,33.35076,-14.02314,-4.58022
-0.39588,1.81029,-0.03238,0.23034,0.32796,0.78084,3.79208,-2.14565,0.09412,-1.99329,0.91806,5.84195,-0.14776,-0.59275,-0.67754,0.40958,33.16619,-33.36382,16.19061
-0.39550,1.81507,-0.01635,0.18131,0.33117,0.86922,4.24667,-3.01100,0.12570,-3.67963,-0.62943,5.03380,-0.10413,-0.58127,-0.70584,0.39123,29.44931,-51.15841,-5.99114
-0.39606,1.81886,-0.00118,0.12831,0.31683,0.92148,4.57241,-3.70863,0.13599,-5.20351,-1.86746,3.57918,-0.05962,-0.56880,-0.73181,0.37062,29.18072,-58.29396,-10.16868
-0.39818,1.82154,0.01346,0.06340,0.28784,0.95091,4.88043,-4.30199,0.18721,-5.90615,-3.00992,1.17572,-0.01142,-0.55398,-0.75600,0.34848,27.94882,-52.49343,-6.01481
-0.40321,1.82207,0.02595,-0.03579,0.22912,0.93664,5.14437,-4.95186,0.22505,-5.43611,-3.77444,-2.86741,0.04120,-0.53826,-0.77789,0.32167,17.30039,-37.40897,-4.46215
-0.40715,1.82267,0.03637,-0.09448,0.18475,0.89139,5.18787,-5.23251,0.19147,-4.69975,-3.90191,-4.90857,0.08615,-0.52207,-0.79503,0.29657,8.45710,-27.09208,-7.54002
-0.41136,1.82255,0.04468,-0.14216,0.14037,0.82344,5.19978,-5.24187,0.23633,-4.21605,-3.51398,-6.60966,0.12754,-0.50323,-0.80899,0.27574,2.84270,-11.06045,-5.89062
-0.41636,1.82116,0.04850,-0.19225,0.08465,0.69457,5.15280,-4.84522,0.67111,-2.21789,-2.90876,-7.94973,0.16567,-0.48114,-0.81728,0.27039,-10.01956,14.42620,28.93386
-0.42036,1.82048,0.05252,-0.21454,0.05300,0.59832,5.03507,-4.67063,0.85723,-1.03402,-2.58094,-8.24958,0.20297,-0.46094,-0.82409,0.25927,-16.61206,12.00353,25.30130
-0.42438,1.81926,0.05371,-0.23190,0.02022,0.47857,4.86353,-4.61877,0.80413,-0.98233,-2.50056,-8.89339,0.23789,-0.44289,-0.82983,0.24216,-12.73085,5.15799,-1.50350
-0.42878,1.81740,0.05284,-0.25150,-0.01557,0.35239,4.79461,-4.63442,0.66567,-1.57406,-2.57561,-9.29999,0.27265,-0.42321,-0.83527,0.22108,-4.78860,3.26759,-10.83056
-0.43386,1.81473,0.04831,-0.27830,-0.05728,0.19142,4.77480,-4.57496,0.76168,-2.59622,-2.31142,-11.03630,0.30829,-0.40046,-0.83823,0.20484,-0.11714,2.18501,-3.11740
-0.43913,1.81213,0.04165,-0.30250,-0.08816,0.03000,4.64734,-4.44989,1.43651,-1.95653,-1.78993,-12.56029,0.34873,-0.37548,-0.83404,0.20439,-17.38170,-2.19837,39.04913
-0.44427,1.80975,0.03134,-0.31820,-0.10786,-0.15545,4.36749,-4.48279,2.24084,-0.49162,-1.09816,-14.43975,0.39358,-0.35228,-0.82268,0.21022,-30.67542,-16.34874,49.49295
-0.44851,1.80730,0.01688,-0.31438,-0.12430,-0.36793,3.96383,-4.72920,3.05258,1.35186,-1.36397,-16.22206,0.44324,-0.33180,-0.80338,0.21918,-39.26172,-31.61530,43.02397
-0.45076,1.80449,-0.00239,-0.27707,-0.14282,-0.61214,3.72844,-5.23601,3.41851,5.29506,-1.25899,-18.29608,0.49618,-0.31199,-0.78043,0.21770,-26.69911,-44.71196,26.06434
-0.45009,1.80231,-0.02688,-0.19840,-0.14550,-0.88740,3.84082,-5.93871,3.01093,7.64737,0.69658,-20.38782,0.54880,-0.29291,-0.75881,0.19293,18.25586,-40.18076,-24.95073
-0.44693,1.80164,-0.05420,-0.09773,-0.12221,-1.14043,4.05445,-6.60049,2.46045,9.92145,3.24406,-21.88825,0.60043,-0.27347,-0.73456,0.15850,43.17517,-37.93408,-43.63106
-0.43725,1.80501,-0.09064,0.08991,-0.03484,-1.48720,4.34624,-7.47600,1.69352,13.85695,8.17346,-21.67437,0.65422,-0.25638,-0.70300,0.10979,45.76027,-39.02312,-44.54527
-0.42315,1.81284,-0.12800,0.31148,0.10890,-1.77224,4.36323,-8.16415,1.20155,17.55054,12.73998,-20.04239,0.70444,-0.24179,-0.66403,0.06608,37.25213,-36.13382,-45.75875
-0.40225,1.82625,-0.16661,0.59655,0.31378,-2.01006,3.68900,-8.71435,0.91185,22.75251,16.85948,-15.32996,0.75023,-0.24011,-0.61500,0.03576,-15.61526,-36.81303,-40.95617
-0.37403,1.84527,-0.20368,0.93845,0.56548,-2.16361,2.73060,-9.01908,0.47967,26.87787,19.68378,-7.30349,0.78802,-0.25006,-0.56248,0.01097,-40.79708,-25.09004,-60.97385
-0.33883,1.87001,-0.23638,1.31732,0.85444,-2.20551,1.86853,-8.83502,-0.42080,28.56971,21.73976,1.20608,0.81142,-0.27149,-0.51728,-0.01764,-29.11858,12.70896,-79.99596
-0.30064,1.89758,-0.26437,1.65099,1.11804,-2.15880,1.30640,-8.38028,-1.49714,28.50483,22.43734,6.80565,0.82410,-0.29828,-0.47877,-0.05172,1.06913,40.09939,-93.16407
-0.25396,1.93184,-0.28646,2.04201,1.42639,-2.02564,0.73405,-7.63717,-2.95302,28.51882,21.84552,11.88091,0.82208,-0.34105,-0.44699,-0.08975,21.19859,56.69641,-103.27640
-0.19821,1.97082,-0.30101,2.50131,1.74615,-1.79558,-0.12771,-6.71646,-4.64570,29.88741,18.45062,16.26517,0.80600,-0.40239,-0.41632,-0.12295,14.06509,62.21193,-114.70140
-0.13528,2.00958,-0.30904,2.98885,1.99452,-1.50007,-0.89451,-5.65603,-6.36630,31.69483,12.69118,20.54997,0.77692,-0.47203,-0.38724,-0.15372,13.67506,65.47116,-118.49620
-0.07133,2.04433,-0.31493,3.37601,2.11437,-1.23991,-1.32583,-4.68961,-7.58668,33.32402,7.38753,23.14336,0.74214,-0.53548,-0.35968,-0.18201,28.87698,66.03966,-112.93840
0.00356,2.07709,-0.31217,3.85079,2.16908,-0.89893,-1.65952,-3.27517,-8.89928,34.77335,0.45666,25.76111,0.68782,-0.60635,-0.34270,-0.20444,41.60154,85.21708,-103.79300
0.08963,2.10408,-0.30086,4.41195,2.11042,-0.48687,-1.53228,-1.62265,-10.32824,35.89764,-8.28750,26.26867,0.61292,-0.67747,-0.33606,-0.22895,70.76067,69.98381,-95.57236
0.17187,2.12680,-0.29385,4.77129,1.99673,-0.22963,-1.27709,-0.62738,-11.19459,36.61623,-14.76298,26.25933,0.53781,-0.73620,-0.32314,-0.25368,80.79495,57.54474,-92.44098
0.27198,2.13512,-0.27564,5.35182,1.66937,0.17140,-0.45090,0.75247,-12.43040,36.34959,-26.97987,25.33724,0.43341,-0.79184,-0.32473,-0.28231,91.17384,30.58823,-85.10154
0.37826,2.12744,-0.25328,5.91153,1.12979,0.54624,0.84167,1.65693,-13.36346,33.22858,-41.04551,22.58390,0.32196,-0.82869,-0.32925,-0.31815,96.00664,-6.88868,-69.73996
0.48220,2.11065,-0.23109,6.28575,0.56869,0.79551,1.74374,2.01867,-14.03258,28.58218,-53.11349,18.81310,0.21116,-0.85292,-0.32277,-0.35178,78.45787,-35.39577,-64.94743
0.58993,2.06900,-0.20535,6.62037,-0.27220,1.04049,2.50611,2.42163,-14.83059,18.60383,-67.63862,15.46965,0.08676,-0.86683,-0.31178,-0.37930,54.14533,-16.39171,-63.30791
0.69141,2.00465,-0.17907,6.77006,-1.29605,1.23753,3.23524,2.81488,-15.26965,2.20252,-78.40950,12.26504,-0.03743,-0.86580,-0.30151,-0.39759,46.11963,-12.04097,-50.26850
0.78039,1.91905,-0.15267,6.67093,-2.43726,1.38714,3.99214,3.29496,-15.37082,-16.87586,-83.93410,8.70765,-0.15912,-0.85107,-0.29518,-0.40401,51.25552,-16.73236,-24.92307
0.85211,1.81584,-0.12704,6.30363,-3.60154,1.48807,5.16937,4.17005,-15.16407,-35.58720,-81.43210,3.88058,-0.28260,-0.82162,-0.30348,-0.39113,81.90873,-36.57735,-9.55629
0.90402,1.70239,-0.10333,5.69501,-4.66349,1.53573,6.65838,5.22664,-14.78647,-51.74520,-71.13474,2.32246,-0.40639,-0.77651,-0.32219,-0.35787,130.31560,-37.32276,-7.32983
0.93535,1.58335,-0.08069,4.88092,-5.57005,1.55192,8.09800,5.27616,-14.26058,-64.49554,-58.43941,2.46521,-0.51428,-0.71173,-0.34438,-0.33220,90.55883,-76.11071,-14.55283
0.95393,1.46837,-0.05782,4.06015,-6.18429,1.56966,8.80659,4.26165,-13.76374,-72.43795,-43.99138,3.77297,-0.59932,-0.63621,-0.35907,-0.32729,6.44848,-100.64790,-26.41718
0.93014,1.34721,-0.03217,2.71351,-6.75763,1.62793,8.30827,0.97111,-12.37652,-74.02669,-20.67480,4.17328,-0.62632,-0.56199,-0.38533,-0.37869,-142.48130,-138.32240,-5.45342
0.90837,1.24136,-0.00653,1.71766,-6.94296,1.64904,6.92405,-1.30794,-11.40264,-68.50510,-7.06701,-2.13312,-0.64422,-0.49774,-0.39018,-0.43011,-201.14360,-92.66791,1.03779
0.88387,1.14231,0.01544,0.92325,-6.97272,1.60929,5.69561,-2.41685,-10.90064,-64.87319,2.45076,-6.73224,-0.66643,-0.43494,-0.38236,-0.46957,-163.95610,-28.32244,1.13967
0.83832,1.05288,0.03109,-0.04905,-6.83721,1.48267,4.24743,-2.81413,-10.46758,-57.13663,15.40612,-9.80055,-0.68381,-0.38247,-0.36093,-0.50582,-101.98770,24.15941,7.23082
0.79490,0.97415,0.04450,-0.78549,-6.55294,1.36233,3.22976,-2.63633,-9.80201,-49.22298,25.33722,-7.45289,-0.70086,-0.33918,-0.33956,-0.52769,-61.40723,46.16569,34.37574
0.75112,0.90298,0.05882,-1.34297,-6.21436,1.28723,2.08487,-2.46935,-9.15986,-44.08077,30.36689,-4.20038,-0.70924,-0.30268,-0.31433,-0.55368,-69.51927,50.73533,49.56659
0.69555,0.84690,0.07307,-1.96861,-5.70102,1.22937,0.04570,-2.01012,-8.64690,-35.89735,33.36698,-2.86911,-0.70224,-0.28318,-0.26776,-0.59579,-101.93800,86.99382,22.87455
0.64206,0.79462,0.08755,-2.42335,-5.24010,1.18920,-1.59373,-1.53855,-8.80308,-30.46664,32.89044,-3.43741,-0.69536,-0.25223,-0.20954,-0.63949,-83.45619,91.33866,-7.52075
0.59037,0.74506,0.10051,-2.73206,-4.84736,1.13195,-2.56680,-1.37282,-9.21979,-20.95258,34.39092,-7.80393,-0.68764,-0.20678,-0.15163,-0.67927,-68.67168,77.69845,-61.45604
0.53838,0.70607,0.10903,-2.96849,-4.37619,1.01369,-2.07898,-1.78512,-8.62852,-10.11755,34.47724,-11.91567,-0.68806,-0.16044,-0.13405,-0.69489,-2.61860,-7.42085,10.51044
0.49142,0.67329,0.11326,-3.07140,-3.91255,0.85389,-0.96323,-2.71472,-7.11134,-3.06796,32.03666,-12.21421,-0.69100,-0.11991,-0.15729,-0.69527,21.56561,-90.25580,113.39130
0.44929,0.64123,0.11616,-3.06997,-3.54798,0.71072,-0.19699,-3.07323,-5.68043,1.39404,29.16909,-10.49007,-0.69416,-0.09258,-0.17820,-0.69124,27.38800,-64.95774,135.31770
0.41120,0.61930,0.11618,-3.00205,-3.10071,0.55373,-0.09021,-2.18350,-4.66410,3.33539,27.50709,-6.66976,-0.69793,-0.08965,-0.17087,-0.68969,16.41118,24.77280,85.39855
0.37536,0.59870,0.11775,-2.91510,-2.72715,0.45619,-0.49158,-0.35180,-4.64877,6.38070,26.60611,-5.65654,-0.70227,-0.09615,-0.11922,-0.69524,11.11088,133.93700,1.35289
0.33925,0.57690,0.12105,-2.85103,-2.46728,0.40965,-0.72588,0.64897,-4.57934,6.91834,25.65255,-4.40712,-0.70310,-0.09580,-0.07646,-0.70045,10.97762,125.29640,-7.25716
0.30745,0.57260,0.12256,-2.73123,-1.97798,0.34396,-0.94462,1.79362,-4.39729,6.56736,23.63165,-3.95210,-0.70245,-0.10619,-0.02767,-0.70323,4.75295,65.94151,3.06671
0.27461,0.56334,0.12488,-2.64906,-1.66441,0.30373,-0.74805,1.56363,-3.95985,6.77757,21.52987,-3.29081,-0.70369,-0.09768,-0.01067,-0.70368,12.15031,-1.48874,23.70097
0.24395,0.55923,0.12727,-2.54490,-1.33209,0.27363,-0.42200,0.77820,-3.36387,6.80425,20.67072,-0.91730,-0.70647,-0.08191,-0.01234,-0.70287,13.38607,-53.61600,41.56681
0.21403,0.55441,0.13066,-2.45047,-1.09328,0.26782,-0.34125,0.48719,-3.22424,8.27995,19.87527,0.87885,-0.70709,-0.06602,-0.00106,-0.70403,5.75613,-40.34303,23.04274
0.18831,0.55469,0.13493,-2.30818,-0.82844,0.27863,-0.46348,0.63855,-3.29876,11.14605,18.60806,1.64182,-0.70457,-0.05414,0.02204,-0.70722,-2.99708,1.86875,-1.23796
0.16680,0.55782,0.13948,-2.12753,-0.57834,0.29075,-0.67862,1.09164,-3.34249,14.54610,17.01094,0.71748,-0.69908,-0.04947,0.05250,-0.71140,-10.69494,32.14847,-9.11851
0.14996,0.56306,0.14361,-1.90949,-0.35261,0.29278,-0.89810,1.61614,-3.17734,17.01882,14.84693,-0.43299,-0.69140,-0.05260,0.08260,-0.71580,-6.35999,39.59430,7.31589
0.13771,0.56962,0.14660,-1.66560,-0.15798,0.27465,-0.97441,2.02940,-2.75603,18.48370,12.28713,-2.57592,-0.68448,-0.06211,0.10692,-0.71847,-1.42430,42.32753,18.44667
0.12845,0.57640,0.14898,-1.42940,-0.00625,0.25085,-0.92433,1.88689,-1.96121,15.96244,9.59106,-2.54488,-0.67978,-0.07213,0.11146,-0.72130,8.18164,3.41124,56.26413
0.12052,0.58353,0.15097,-1.22556,0.11524,0.22634,-0.85289,1.28079,-1.27483,13.91887,8.52416,-1.70078,-0.67670,-0.07321,0.10386,-0.72521,8.14141,-38.58184,52.04653
0.11457,0.59170,0.15236,-1.03643,0.22580,0.19729,-0.81625,1.16826,-1.13928,12.72746,8.43945,-1.32891,-0.67297,-0.07352,0.11087,-0.72761,3.99956,-25.13172,28.21812
0.11134,0.60083,0.15293,-0.84572,0.32659,0.16089,-0.81210,1.53589,-1.38837,14.15162,6.74430,-3.07341,-0.66782,-0.07611,0.13519,-0.72797,0.64817,24.14483,-21.59375
0.10960,0.61013,0.15278,-0.67765,0.40485,0.12204,-0.83685,1.69631,-1.39139,14.60146,5.59375,-3.58194,-0.66183,-0.08000,0.15333,-0.72944,1.46203,22.07855,-10.61536
0.11225,0.62032,0.15135,-0.47885,0.47805,0.07151,-0.91293,1.48320,-1.02213,14.34771,3.93423,-4.73940,-0.65492,-0.08411,0.15661,-0.73449,-7.26785,-4.73045,22.25047
0.11884,0.63004,0.14831,-0.25795,0.52795,0.00519,-0.82528,0.92069,-0.34301,14.00164,2.33484,-4.33817,-0.65215,-0.08790,0.14309,-0.73926,7.47726,-30.79193,41.29687
0.12666,0.63930,0.14486,-0.06467,0.56009,-0.05369,-0.78148,0.50823,0.25634,13.86093,2.40932,-3.89791,-0.64843,-0.09336,0.12816,-0.74458,6.34508,-33.55181,48.52562
0.13738,0.64879,0.14043,0.13184,0.58835,-0.11514,-0.81584,0.40185,0.69220,14.10335,1.87403,-4.30374,-0.64223,-0.10251,0.11801,-0.75040,-0.13735,-10.87332,33.15457
0.15222,0.65837,0.13432,0.35588,0.61172,-0.19255,-0.83149,0.45673,1.14735,14.02460,1.21163,-5.16854,-0.63516,-0.11677,0.10795,-0.75583,-1.51694,2.75595,28.77849
0.16675,0.66757,0.12759,0.52176,0.62292,-0.26194,-0.78172,0.68242,1.40223,13.69532,0.94106,-6.00417,-0.62882,-0.13347,0.10307,-0.75904,2.08122,12.83333,25.38265
0.18375,0.67648,0.11918,0.68457,0.62635,-0.34056,-0.67743,1.07501,1.54285,13.56505,-0.03198,-6.75147,-0.62310,-0.15452,0.10346,-0.75971,4.49204,29.66383,12.00703
0.20714,0.68483,0.10669,0.91971,0.61988,-0.47119,-0.35390,1.75551,1.81243,12.77555,-0.43688,-7.87883,-0.62025,-0.18761,0.10650,-0.75416,14.20261,40.01865,11.82587
0.22820,0.69339,0.09449,1.06347,0.61942,-0.56788,-0.13040,2.15699,2.04977,11.62415,0.15493,-8.50506,-0.61668,-0.21815,0.10633,-0.74887,17.72093,38.97234,15.03832
0.25173,0.70248,0.07947,1.21212,0.62801,-0.68768,0.10281,2.54581,2.37274,9.92708,0.91182,-8.91491,-0.61273,-0.25335,0.10402,-0.74132,15.66161,31.74022,19.63414
0.27575,0.71218,0.06256,1.33491,0.64583,-0.81111,0.32657,2.87982,2.66421,7.84561,1.77478,-9.07088,-0.60849,-0.28997,0.10081,-0.73177,15.70977,26.66443,20.09217
0.29961,0.72281,0.04372,1.42734,0.67587,-0.93805,0.56946,3.16619,2.86542,5.55574,2.89469,-9.34360,-0.60493,-0.32666,0.09793,-0.71956,15.49292,23.90614,13.89273
0.32294,0.73486,0.02301,1.48801,0.72261,-1.06679,0.75511,3.52124,2.89034,3.11930,4.16876,-8.92641,-0.60092,-0.36344,0.10003,-0.70484,12.62860,25.70871,4.83681
0.34526,0.74883,0.00013,1.52003,0.79423,-1.20307,0.81533,3.95576,2.78388,0.99237,5.16646,-8.20047,-0.59466,-0.40047,0.10819,-0.68870,-1.79848,29.61114,-6.40432
0.36619,0.76367,-0.02202,1.52009,0.86290,-1.29515,0.79323,4.19073,2.75438,-0.73854,6.31456,-7.43726,-0.58610,-0.43551,0.11385,-0.67368,-4.62975,22.35746,-2.24353
0.38569,0.78126,-0.04575,1.49486,0.95969,-1.39049,0.65391,4.36357,2.75326,-2.65805,7.53927,-6.38172,-0.57396,-0.46981,0.12004,-0.65988,-9.83879,13.00952,2.17301
0.40277,0.80294,-0.07096,1.42962,1.10342,-1.49071,0.41172,4.41523,2.90119,-4.53190,8.19983,-5.03078,-0.55705,-0.50377,0.12322,-0.64864,-12.25694,1.83643,10.42436
0.41912,0.82396,-0.09481,1.36706,1.20263,-1.54477,0.28841,4.36137,3.05713,-6.00766,8.39345,-4.35980,-0.54044,-0.53605,0.12318,-0.63671,-7.52934,-4.99795,15.07556
0.43248,0.84746,-0.11945,1.27095,1.32125,-1.59866,0.21537,4.20137,3.28519,-7.77731,8.59887,-3.57536,-0.52240,-0.56720,0.11867,-0.62555,-0.36227,-10.98942,16.02138
0.44239,0.87164,-0.14389,1.14935,1.43737,-1.63765,0.20254,3.96304,3.52742,-9.38363,8.26681,-2.35042,-0.50385,-0.59668,0.11022,-0.61479,6.05080,-15.58637,16.88066
0.44953,0.89700,-0.16791,1.00711,1.54650,-1.66105,0.23217,3.67884,3.73683,-10.81423,7.70520,-1.18660,-0.48529,-0.62400,0.09909,-0.60440,9.33268,-18.62852,14.14129
0.45405,0.92372,-0.19133,0.84909,1.64531,-1.66750,0.25329,3.38028,3.92066,-11.78457,6.68505,0.26364,-0.46588,-0.64940,0.08623,-0.59482,11.17894,-19.59800,12.23581
0.45563,0.95068,-0.21394,0.67876,1.72578,-1.65877,0.20572,3.12293,4.02525,-12.79766,5.17401,1.05556,-0.44526,-0.67278,0.07462,-0.58613,4.52282,-19.71558,9.00399
0.45429,0.97734,-0.23579,0.49775,1.78202,-1.63934,0.15732,2.90267,4.03922,-13.16893,3.13517,1.74538,-0.42506,-0.69409,0.06420,-0.57745,-0.26755,-16.52896,2.52707
0.45041,1.00340,-0.25680,0.31539,1.81167,-1.60903,0.18228,2.68212,3.98769,-13.21630,1.34209,2.38103,-0.40685,-0.71320,0.05312,-0.56833,4.00922,-15.59632,-3.00222
0.44393,1.02826,-0.27695,0.13293,1.81905,-1.57122,0.25481,2.48229,3.89279,-13.03535,-0.03495,2.97479,-0.39039,-0.73064,0.04160,-0.55860,7.32804,-12.68401,-7.41804
0.43658,1.05235,-0.29658,-0.02015,1.80991,-1.53427,0.27358,2.34128,3.79609,-12.60577,-1.26627,3.28749,-0.37348,-0.74724,0.03132,-0.54878,5.92997,-11.88365,-8.57541
0.42469,1.07510,-0.31486,-0.21391,1.77526,-1.48290,0.23794,2.23155,3.60730,-11.81574,-2.88098,3.37839,-0.35785,-0.76191,0.02400,-0.53931,-0.83330,-8.60866,-11.20759
0.41242,1.09657,-0.33275,-0.37153,1.72592,-1.43589,0.11668,2.19854,3.39115,-10.94248,-4.02437,3.61928,-0.34183,-0.77615,0.02044,-0.52947,-7.91972,-4.45680,-13.32796
0.39883,1.11665,-0.34966,-0.51472,1.66454,-1.38319,-0.00711,2.16992,3.16435,-9.73725,-4.66477,4.02523,-0.32653,-0.78925,0.01861,-0.51972,-11.30902,-3.67607,-15.30340
0.38411,1.13572,-0.36535,-0.64335,1.59805,-1.32226,-0.11858,2.08799,2.99578,-8.78022,-4.85437,4.69635,-0.31087,-0.80112,0.01642,-0.51117,-8.76151,-6.04376,-12.19493
