posX, posY, posZ, velX, velY, velZ, angVelX, angVelY, angVelZ, accX, accY, accZ, rotX, rotY, rotZ, rotW, angAccX, angAccY, angAccZ
0.26782,1.06160,-0.28759,-0.44678,0.16828,-0.38009,1.45240,0.87639,0.41563,0.23929,3.43713,-2.51467,-0.31743,-0.75852,0.05440,-0.56650,35.85410,7.80208,15.36818
0.26140,1.06664,-0.29430,-0.44439,0.20814,-0.41014,1.58745,0.95685,0.55834,0.25940,3.57518,-2.03497,-0.31962,-0.76612,0.04236,-0.55598,18.50165,7.32935,13.63195
0.25512,1.07332,-0.30124,-0.43829,0.26517,-0.43899,1.55257,0.99752,0.70346,0.53830,3.83189,-1.36330,-0.31875,-0.77336,0.03247,-0.54705,0.16622,2.66336,9.01969
0.24917,1.08071,-0.30822,-0.43135,0.32696,-0.45921,1.34865,0.97860,0.81712,0.27892,4.01222,-1.01280,-0.31516,-0.77951,0.02587,-0.54071,-10.42355,-1.47857,8.04559
0.24315,1.08846,-0.31521,-0.42767,0.38115,-0.47479,1.12015,0.91751,0.90051,0.30962,3.72098,-1.41707,-0.31047,-0.78478,0.02060,-0.53600,-18.06991,-5.83813,6.92897
0.23136,1.10235,-0.32924,-0.42349,0.42566,-0.48997,1.12869,0.89903,0.95074,0.45984,3.47261,-1.83665,-0.30740,-0.79576,0.00431,-0.52178,-7.88993,-4.14830,5.10285
0.22581,1.11251,-0.33770,-0.41694,0.48596,-0.51565,1.44223,0.93019,0.98697,0.37912,3.05768,-1.54035,-0.31082,-0.80194,-0.01205,-0.51004,17.04282,2.47609,1.16117
0.22044,1.12247,-0.34609,-0.40869,0.53365,-0.53536,1.79635,0.98308,0.98933,0.54775,2.93705,-0.94808,-0.31645,-0.80789,-0.03017,-0.49625,22.65311,4.96792,-1.04785
0.21507,1.13246,-0.35421,-0.40316,0.57288,-0.54653,1.97314,1.00170,0.97306,0.27273,2.88390,-0.31125,-0.32065,-0.81294,-0.04562,-0.48398,16.78275,3.77302,-1.56887
0.20965,1.14324,-0.36216,-0.39940,0.61700,-0.55326,1.88450,0.96171,0.97287,0.29209,3.00645,-0.18039,-0.32076,-0.81725,-0.05607,-0.47547,-3.61306,-2.32401,-0.92762
0.20414,1.15424,-0.36992,-0.39802,0.65511,-0.55527,1.81307,0.93575,1.01324,-0.00378,3.40527,-0.17824,-0.31965,-0.82187,-0.06695,-0.46677,-7.28494,-3.66711,1.74453
0.19812,1.16761,-0.37771,-0.40578,0.72413,-0.55749,1.53517,0.88459,1.15234,-0.43684,3.59959,-0.25346,-0.31254,-0.82729,-0.07429,-0.46086,-16.44961,-5.08358,7.46325
0.19204,1.18062,-0.38534,-0.41331,0.77417,-0.55743,1.53035,0.90406,1.27872,-0.61999,3.49635,-0.24988,-0.30808,-0.83308,-0.08633,-0.45123,-4.21829,-1.36922,9.59123
0.18580,1.19379,-0.39290,-0.42170,0.81423,-0.55588,1.64394,0.93782,1.37894,-0.80266,3.12347,0.08144,-0.30511,-0.83865,-0.10114,-0.43972,7.79843,2.46121,8.24292
0.17922,1.20774,-0.40011,-0.43384,0.85663,-0.55035,1.83589,0.98834,1.46184,-0.74572,2.19498,0.44678,-0.30328,-0.84396,-0.11835,-0.42631,11.52822,3.85444,6.00976
0.17279,1.22127,-0.40691,-0.44126,0.88207,-0.54021,2.00052,1.02085,1.47346,-0.58710,1.42856,0.90791,-0.30282,-0.84826,-0.13525,-0.41287,12.61791,3.30625,1.49580
0.16627,1.23448,-0.41341,-0.44815,0.89615,-0.52699,1.99424,1.00003,1.43997,-0.56626,0.68818,1.32034,-0.30153,-0.85178,-0.14885,-0.40175,5.27729,1.50715,-1.74661
0.15978,1.24733,-0.41984,-0.45374,0.90298,-0.51279,1.82395,0.94107,1.38329,-0.39277,0.37288,1.08671,-0.29869,-0.85497,-0.15823,-0.39340,-11.79935,-4.73706,-3.77408
0.15331,1.26009,-0.42604,-0.45770,0.90639,-0.49832,1.72051,0.90325,1.32409,-0.36618,0.20455,1.17137,-0.29655,-0.85785,-0.16789,-0.38466,-10.64940,-4.35547,-4.25603
0.14672,1.27282,-0.43157,-0.46312,0.90900,-0.47620,1.66370,0.86417,1.23959,-0.43548,0.15366,1.33448,-0.29557,-0.86002,-0.17761,-0.37611,-5.60487,-2.55007,-5.33595
0.14001,1.28549,-0.43678,-0.46931,0.91060,-0.45285,1.77327,0.87277,1.16113,-0.50716,0.12256,1.62486,-0.29681,-0.86156,-0.19067,-0.36505,4.70866,1.13909,-5.55044
0.13323,1.29817,-0.44150,-0.47551,0.91230,-0.42660,2.00456,0.90592,1.08984,-0.44315,0.10274,1.85879,-0.30006,-0.86214,-0.20705,-0.35187,14.64252,3.60578,-6.20309
0.12640,1.31089,-0.44588,-0.48035,0.91352,-0.40068,2.18137,0.92462,1.01549,-0.30011,0.11552,1.98518,-0.30366,-0.86206,-0.22328,-0.33879,15.01651,3.94793,-5.70951
0.11959,1.32360,-0.45004,-0.48473,0.91463,-0.37761,2.23138,0.91732,0.95480,-0.40381,0.10490,1.64057,-0.30620,-0.86192,-0.23747,-0.32703,5.27653,0.74239,-5.05895
0.11261,1.33628,-0.45412,-0.49077,0.91511,-0.35869,2.13710,0.87745,0.93450,-0.44640,0.05182,1.40131,-0.30640,-0.86232,-0.24887,-0.31717,-3.48019,-1.77705,-2.45573
0.10524,1.34901,-0.45810,-0.50205,0.91583,-0.34160,1.85102,0.77508,0.97338,-0.76048,0.05944,0.75975,-0.30274,-0.86385,-0.25619,-0.31062,-15.76204,-6.65707,1.75047
0.09782,1.36177,-0.46246,-0.51079,0.91659,-0.33505,1.64474,0.76670,1.03050,-0.66860,0.07130,0.28805,-0.29887,-0.86605,-0.26343,-0.30204,-16.21281,-6.36286,4.30120
0.09038,1.37445,-0.46685,-0.51744,0.91575,-0.33061,1.44422,0.82883,1.07424,-0.45532,-0.14748,0.17454,-0.29490,-0.86919,-0.26881,-0.29204,-15.98486,2.94157,5.60270
0.08290,1.38684,-0.47115,-0.52409,0.91184,-0.32410,1.38213,0.94630,1.07440,-0.56536,-0.17120,0.41505,-0.29301,-0.87181,-0.27538,-0.27975,-6.98656,6.03554,1.01175
0.07536,1.39917,-0.47517,-0.53134,0.90973,-0.31270,1.46302,1.05807,1.08633,-0.73464,-0.07983,1.29826,-0.29214,-0.87346,-0.28499,-0.26553,3.91032,9.83688,0.43763
0.06752,1.41143,-0.47862,-0.54153,0.90695,-0.29479,1.51745,1.08196,1.12718,-0.90870,-0.28182,1.88308,-0.28993,-0.87466,-0.29524,-0.25247,6.79613,5.69760,2.53928
0.05925,1.42335,-0.48134,-0.55618,0.89885,-0.26840,1.43487,0.99939,1.19594,-0.78501,-0.72013,1.73332,-0.28490,-0.87623,-0.30354,-0.24272,-2.74231,-4.65110,4.49513
0.05123,1.43474,-0.48417,-0.56341,0.88502,-0.24843,1.27338,0.90895,1.22885,-0.36948,-1.38197,1.39537,-0.27929,-0.87820,-0.30936,-0.23465,-9.85525,-7.90510,3.86436
0.04357,1.44551,-0.48690,-0.56271,0.86319,-0.23150,1.06588,0.81087,1.19517,0.24329,-1.71691,1.17353,-0.27427,-0.88019,-0.31277,-0.22852,-14.08667,-7.81686,-0.79645
0.03625,1.45593,-0.48929,-0.55521,0.83902,-0.21406,0.96365,0.77532,1.12183,0.55297,-1.61693,1.10305,-0.27115,-0.88154,-0.31677,-0.22141,-11.32094,-5.84233,-4.29886
0.02912,1.46618,-0.49143,-0.54674,0.81870,-0.19598,1.05494,0.83181,1.04082,0.64183,-1.64368,1.46518,-0.27068,-0.88158,-0.32417,-0.21086,2.06579,3.47090,-6.82688
0.02225,1.47581,-0.49300,-0.53643,0.79367,-0.17206,1.23456,0.91029,0.93449,0.75347,-1.76370,1.79293,-0.27248,-0.88024,-0.33381,-0.19875,11.09507,7.17759,-7.33997
0.01561,1.48495,-0.49388,-0.52331,0.76428,-0.14342,1.43723,1.00143,0.79175,0.98511,-1.95380,1.91815,-0.27647,-0.87773,-0.34444,-0.18579,13.61672,8.59219,-9.05346
0.00917,1.49405,-0.49493,-0.50986,0.74139,-0.12410,1.47652,0.99779,0.67691,1.33980,-1.97285,1.76507,-0.27911,-0.87569,-0.35263,-0.17581,6.42996,2.78621,-9.77510
0.00344,1.50246,-0.49550,-0.48776,0.71224,-0.10087,1.38321,0.91668,0.51471,1.44360,-1.83618,1.52443,-0.28222,-0.87379,-0.35787,-0.16961,-4.49794,-3.09835,-10.93965
-0.00191,1.51049,-0.49602,-0.46412,0.68451,-0.08360,1.19689,0.81506,0.37827,1.54304,-1.53078,0.77757,-0.28446,-0.87276,-0.36054,-0.16551,-12.07671,-7.74974,-8.67687
-0.00716,1.51878,-0.49671,-0.44467,0.66726,-0.07339,1.08180,0.80297,0.28941,1.54933,-1.15081,0.90805,-0.28708,-0.87187,-0.36336,-0.15939,-11.33026,-1.97937,-6.85445
-0.01200,1.52692,-0.49663,-0.42243,0.65066,-0.05240,1.07746,0.83471,0.20960,1.19504,-0.68178,1.47898,-0.29081,-0.87016,-0.36773,-0.15173,-3.04331,1.40324,-5.21150
-0.01689,1.53536,-0.49552,-0.40750,0.64135,-0.02383,1.28162,0.93480,0.16103,0.82531,-0.25949,2.15164,-0.29594,-0.86654,-0.37660,-0.14034,10.15696,6.38392,-4.27112
-0.02194,1.54400,-0.49398,-0.39865,0.63777,0.00526,1.49630,1.00000,0.14528,0.68979,-0.15000,2.56145,-0.30069,-0.86208,-0.38722,-0.12830,19.04947,7.77508,-2.37157
-0.02690,1.55283,-0.49181,-0.39010,0.63802,0.03849,1.63933,0.99114,0.15211,0.62159,0.05806,2.45844,-0.30423,-0.85747,-0.39795,-0.11761,13.69429,1.83243,-1.03728
-0.03183,1.56197,-0.48929,-0.38201,0.64209,0.06902,1.55140,0.84266,0.19666,0.65112,0.26926,1.76347,-0.30443,-0.85481,-0.40516,-0.11168,-2.37917,-8.24109,2.00840
-0.03678,1.57121,-0.48724,-0.37591,0.64703,0.08521,1.39728,0.69245,0.24824,0.40866,0.41143,1.11856,-0.30334,-0.85320,-0.41050,-0.10736,-11.57979,-13.26557,3.15154
-0.04160,1.58061,-0.48528,-0.36933,0.65391,0.09680,1.18851,0.55879,0.30851,0.55021,0.56941,0.44243,-0.30111,-0.85281,-0.41375,-0.10420,-13.90054,-11.47467,3.42892
-0.04588,1.59023,-0.48374,-0.35545,0.66380,0.10189,1.05418,0.60575,0.31938,0.78371,0.89257,0.03279,-0.30142,-0.85237,-0.41606,-0.09754,-13.00844,-0.15144,2.81326
-0.05011,1.59992,-0.48203,-0.34417,0.67289,0.10825,1.16213,0.78107,0.27663,0.71454,1.00285,0.60463,-0.30537,-0.84922,-0.42211,-0.08605,3.71341,11.98428,-2.29033
-0.05440,1.61008,-0.47969,-0.33642,0.68741,0.12430,1.37310,0.94406,0.25361,0.37325,1.33613,1.64845,-0.30986,-0.84434,-0.43109,-0.07234,14.27974,14.76497,-2.17317
-0.05909,1.62056,-0.47691,-0.33741,0.70417,0.14508,1.49711,0.96975,0.31057,-0.15834,1.50748,2.27096,-0.31111,-0.84006,-0.44029,-0.06050,14.20699,6.34864,1.44424
-0.06440,1.63168,-0.47340,-0.34851,0.72738,0.17319,1.44600,0.77296,0.44663,-0.97708,1.53657,2.26988,-0.30682,-0.83794,-0.44806,-0.05437,1.33175,-10.44058,7.73225
-0.07072,1.64283,-0.47129,-0.36684,0.75178,0.19558,1.28180,0.50889,0.60804,-1.16266,1.96468,1.62726,-0.29921,-0.83780,-0.45374,-0.05177,-10.47082,-21.23167,9.20006
-0.07794,1.65410,-0.47182,-0.38539,0.78185,0.21075,1.16801,0.40710,0.79981,-1.07943,1.75453,1.16029,-0.29115,-0.83825,-0.45880,-0.04564,-9.01396,-11.04186,12.42273
-0.08495,1.66540,-0.47159,-0.39965,0.80142,0.22240,1.23955,0.48569,0.88139,-0.90175,1.29555,1.18600,-0.28714,-0.83608,-0.46617,-0.03485,2.47620,2.38902,7.18078
-0.09122,1.67755,-0.46721,-0.41087,0.81694,0.24336,1.38162,0.63565,0.94858,-0.83630,0.98171,1.71111,-0.28436,-0.83263,-0.47481,-0.02078,9.48196,11.62918,4.82856
-0.09776,1.68977,-0.46232,-0.42254,0.82791,0.26607,1.46479,0.70431,1.01911,-0.86405,0.70181,2.13893,-0.28037,-0.82938,-0.48317,-0.00776,8.45836,7.79932,5.87041
-0.10461,1.70202,-0.45653,-0.43607,0.83652,0.29760,1.52223,0.69246,1.08882,-0.78903,0.33419,2.43072,-0.27500,-0.82608,-0.49188,0.00383,5.17653,1.24682,5.47895
-0.11145,1.71395,-0.45020,-0.44737,0.83925,0.33160,1.56189,0.64949,1.14821,-0.75250,-0.08525,2.43642,-0.26889,-0.82271,-0.50063,0.01453,2.82797,-3.98888,3.92818
-0.11835,1.72547,-0.44300,-0.45718,0.83360,0.37181,1.61199,0.60626,1.17676,-0.55888,-0.58901,2.55752,-0.26303,-0.81872,-0.50980,0.02491,2.97211,-2.81991,1.91932
-0.12510,1.73672,-0.43609,-0.46269,0.82624,0.39849,1.68010,0.60221,1.19691,-0.56911,-0.88651,2.61814,-0.25757,-0.81402,-0.51934,0.03625,4.93663,-1.87058,0.89021
-0.13204,1.74720,-0.42724,-0.47015,0.80670,0.44830,1.85316,0.63679,1.22657,-0.41353,-1.27346,2.85698,-0.25218,-0.80723,-0.53133,0.04974,9.07907,2.52101,1.50563
-0.13888,1.75759,-0.41868,-0.47503,0.79015,0.48282,1.94884,0.65618,1.25034,-0.21112,-1.68573,2.78678,-0.24659,-0.80076,-0.54226,0.06274,10.08009,3.13103,2.18394
-0.14553,1.76717,-0.40915,-0.47550,0.76423,0.52489,2.01303,0.65716,1.23691,0.01710,-1.83839,2.54269,-0.24150,-0.79394,-0.55295,0.07478,4.19926,0.72085,-1.12464
-0.15226,1.77628,-0.39965,-0.47770,0.73739,0.55963,2.00312,0.56382,1.23954,-0.12962,-2.17854,2.45252,-0.23465,-0.78811,-0.56277,0.08432,1.58312,-3.99777,-0.49632
-0.15902,1.78506,-0.39010,-0.47983,0.71202,0.58681,1.97620,0.47061,1.23657,-0.23877,-2.15783,2.09258,-0.22747,-0.78247,-0.57215,0.09297,-1.97885,-9.18678,-0.99366
-0.16583,1.79290,-0.37982,-0.48220,0.67695,0.61970,1.97005,0.43578,1.25825,-0.21351,-2.28457,1.94245,-0.22020,-0.77648,-0.58136,0.10297,-0.72433,-3.18980,0.62521
-0.17254,1.80035,-0.36937,-0.48282,0.64321,0.64746,1.99264,0.44879,1.26676,0.01275,-2.48599,2.00163,-0.21364,-0.76967,-0.59074,0.11399,0.70124,-0.27134,1.34197
-0.17909,1.80714,-0.35827,-0.48059,0.60651,0.67980,2.11694,0.54294,1.27631,0.14452,-2.76781,2.41050,-0.20810,-0.76046,-0.60173,0.12777,6.99246,6.94126,0.78912
-0.18559,1.81294,-0.34649,-0.47769,0.56136,0.71742,2.24625,0.61464,1.26905,0.14265,-2.86375,2.26744,-0.20269,-0.75019,-0.61329,0.14142,7.52044,4.52066,-0.62047
-0.19214,1.81841,-0.33455,-0.47678,0.52067,0.74896,2.30795,0.63308,1.28911,0.17504,-3.23004,2.34053,-0.19616,-0.74051,-0.62394,0.15446,6.84485,6.31705,1.81112
-0.19897,1.82316,-0.32226,-0.48061,0.47743,0.77914,2.23994,0.41659,1.28244,-0.32902,-3.26210,2.14210,-0.18647,-0.73345,-0.63349,0.16116,-2.95208,-13.49977,-1.92334
-0.20595,1.82751,-0.30996,-0.48565,0.43872,0.80311,2.18165,0.22102,1.29221,-0.46808,-3.24959,1.83518,-0.17577,-0.72660,-0.64280,0.16723,-3.88552,-17.41597,-2.38473
-0.21306,1.83055,-0.29715,-0.49161,0.38693,0.83054,2.11035,0.03140,1.32795,-0.36953,-3.21143,1.72165,-0.16372,-0.72045,-0.65140,0.17269,-4.79637,-13.81277,0.26746
-0.22003,1.83350,-0.28429,-0.49367,0.34587,0.85237,2.12642,-0.02435,1.37471,-0.21621,-3.50684,1.84820,-0.15249,-0.71242,-0.66066,0.18091,-0.40752,-7.60394,1.81869
-0.22687,1.83513,-0.27087,-0.49282,0.29306,0.87786,2.18882,-0.07034,1.40112,0.37877,-3.99727,1.74454,-0.14106,-0.70307,-0.67082,0.18919,4.46863,-2.41867,3.61451
-0.23333,1.83589,-0.25732,-0.48626,0.23819,0.89999,2.25634,-0.10745,1.39231,0.53756,-3.90398,1.47276,-0.13009,-0.69298,-0.68127,0.19680,4.27464,-3.75125,-1.62983
-0.23946,1.83586,-0.24372,-0.47557,0.18288,0.91756,2.31391,-0.13187,1.37140,1.09629,-4.04534,1.01703,-0.11939,-0.68238,-0.69165,0.20427,5.34186,-0.23006,-0.00839
-0.24498,1.83511,-0.23020,-0.45725,0.12852,0.92970,2.33374,-0.10001,1.31217,1.38373,-3.88209,0.81037,-0.11072,-0.67164,-0.70130,0.21168,1.09204,0.35865,-4.97984
-0.25000,1.83344,-0.21656,-0.43509,0.07133,0.94121,2.38827,-0.04678,1.23820,1.79471,-4.28027,0.81000,-0.10299,-0.65955,-0.71155,0.21929,3.03736,6.11306,-3.31700
-0.25456,1.83085,-0.20286,-0.41027,0.01237,0.95091,2.44262,-0.03867,1.12475,1.89795,-4.20859,0.66241,-0.09565,-0.64694,-0.72231,0.22494,3.96639,2.16776,-7.63605
-0.25858,1.82756,-0.18915,-0.38240,-0.04442,0.95863,2.52674,-0.03710,1.00595,2.15776,-3.95333,0.42167,-0.08853,-0.63307,-0.73385,0.22989,5.96343,2.47820,-7.66511
-0.26200,1.82371,-0.17546,-0.35111,-0.09757,0.96434,2.64279,0.01255,0.92954,2.20353,-3.61215,0.42530,-0.08172,-0.61757,-0.74579,0.23608,6.38906,2.61228,-6.72534
-0.26430,1.81861,-0.16167,-0.30717,-0.16085,0.97050,2.83789,0.09016,0.85996,2.66062,-3.39559,0.18920,-0.07515,-0.59911,-0.75916,0.24311,11.43723,6.91957,-2.03276
-0.26694,1.81424,-0.14821,-0.27887,-0.19743,0.96946,2.87643,-0.00796,0.73040,2.56576,-3.03979,-0.32404,-0.06733,-0.58367,-0.77118,0.24510,7.16928,-1.33138,-8.04467
-0.26898,1.80941,-0.13506,-0.24756,-0.23248,0.96282,2.83619,-0.18980,0.53597,2.15311,-2.21213,-0.57110,-0.05932,-0.57009,-0.78270,0.24262,-2.32377,-10.88304,-16.38585
-0.27068,1.80456,-0.12225,-0.21822,-0.25977,0.95343,2.80613,-0.32395,0.40163,1.89626,-1.62771,-0.83139,-0.05110,-0.55644,-0.79371,0.24038,-2.41827,-8.91004,-13.34628
-0.27207,1.79978,-0.10977,-0.19036,-0.27927,0.93995,2.77694,-0.41385,0.32611,2.00625,-1.06911,-1.08639,-0.04258,-0.54266,-0.80413,0.23894,-1.34418,-5.89823,-6.89274
-0.27309,1.79527,-0.09762,-0.16275,-0.28965,0.92410,2.75154,-0.48902,0.26491,1.77361,-0.52213,-1.20776,-0.03394,-0.52881,-0.81423,0.23716,-2.06985,-5.48121,-7.25858
-0.27383,1.79068,-0.08580,-0.13704,-0.29918,0.90638,2.76987,-0.43198,0.35086,1.44158,-0.60255,-1.38297,-0.02535,-0.51336,-0.82345,0.24030,-0.19941,-0.58393,2.41310
-0.27450,1.78600,-0.07420,-0.11648,-0.30772,0.88950,2.84992,-0.25654,0.54411,1.57449,-0.62106,-1.48500,-0.01730,-0.49520,-0.83221,0.24880,5.16287,9.49255,15.28361
-0.27457,1.78094,-0.06333,-0.09092,-0.32062,0.86429,2.93105,-0.09657,0.69876,1.80209,-1.14230,-1.69098,-0.00967,-0.47597,-0.84071,0.25800,5.33795,10.37745,15.60454
-0.27480,1.77559,-0.05269,-0.07355,-0.33569,0.84091,2.96084,-0.09225,0.66739,0.99788,-1.22768,-1.61040,-0.00193,-0.45813,-0.84962,0.26128,1.86784,2.06919,-1.17713
-0.27541,1.76967,-0.04233,-0.06683,-0.35674,0.81819,3.02885,-0.15585,0.67282,0.01306,-1.72646,-1.48705,0.00821,-0.43943,-0.85854,0.26410,3.49075,-2.49804,-0.93400
-0.27680,1.76305,-0.03230,-0.07501,-0.38471,0.79541,3.13341,-0.30802,0.69825,-1.12152,-2.26787,-1.67163,0.02161,-0.41988,-0.86751,0.26581,7.97052,-8.31109,0.40509
-0.27935,1.75556,-0.02279,-0.10062,-0.42050,0.76881,3.26510,-0.56596,0.70562,-2.42679,-2.80991,-2.08156,0.03881,-0.39977,-0.87660,0.26503,8.95306,-16.41034,-2.45806
-0.28288,1.74756,-0.01383,-0.13583,-0.45588,0.73990,3.41055,-0.82428,0.76376,-3.69619,-2.98626,-2.58057,0.05877,-0.37860,-0.88502,0.26447,11.95339,-20.82572,-2.79156
-0.28816,1.73844,-0.00614,-0.19113,-0.50113,0.69760,3.64313,-1.13417,1.00377,-4.46084,-3.29052,-3.46444,0.08532,-0.35444,-0.89203,0.26715,16.00363,-23.24182,10.72812
-0.29584,1.72800,-0.00069,-0.27539,-0.55908,0.62561,3.92723,-1.61054,1.28570,-4.96480,-3.14798,-4.66732,0.11950,-0.32857,-0.89748,0.26887,17.22703,-27.98341,10.41802
-0.30313,1.71808,0.00440,-0.33416,-0.59532,0.56385,4.08586,-1.96013,1.45855,-4.80199,-2.90044,-5.71430,0.15193,-0.30369,-0.90111,0.26959,15.65205,-30.21228,9.95904
-0.31119,1.70791,0.00785,-0.39008,-0.62623,0.49154,4.19638,-2.33209,1.55823,-4.42021,-2.47378,-6.66446,0.18674,-0.27938,-0.90292,0.26797,12.67481,-30.97313,5.11524
-0.32138,1.69673,0.00665,-0.46949,-0.66721,0.35631,4.31141,-2.93748,1.52108,-4.25615,-2.28371,-8.62614,0.22848,-0.25642,-0.90262,0.25946,10.11251,-31.13858,-8.85312
-0.33085,1.68594,0.00505,-0.51904,-0.69270,0.24474,4.40260,-3.34738,1.42988,-4.00003,-2.01981,-10.11192,0.26762,-0.23279,-0.90104,0.24963,12.45831,-30.75846,-13.55290
-0.34088,1.67494,0.00060,-0.56496,-0.71474,0.11557,4.49234,-3.78040,1.31049,-3.65107,-1.69644,-11.66938,0.30942,-0.20929,-0.89694,0.23656,13.36663,-30.82256,-15.97583
-0.35223,1.66373,-0.01161,-0.62259,-0.73511,-0.11544,4.63884,-4.42276,1.04617,-2.71494,-0.34622,-14.08454,0.35749,-0.18634,-0.88947,0.21521,15.18911,-29.65173,-21.12241
-0.36243,1.65368,-0.02346,-0.64824,-0.73178,-0.28889,4.70883,-4.85726,0.92184,-1.72021,0.95737,-15.16440,0.40327,-0.16319,-0.87870,0.19656,14.07178,-30.42385,-19.96250
-0.37209,1.64483,-0.04066,-0.65834,-0.70914,-0.50834,4.78801,-5.31447,0.80453,0.18865,2.43396,-16.58069,0.45122,-0.13988,-0.86371,0.17558,11.58511,-29.88750,-15.87460
-0.37982,1.63821,-0.06386,-0.63303,-0.65340,-0.78087,4.83955,-5.76046,0.74167,2.89953,4.79136,-17.80954,0.50001,-0.11660,-0.84414,0.15435,9.29255,-25.03724,-12.89243
-0.38497,1.63381,-0.08913,-0.56938,-0.57219,-1.02790,4.76976,-6.09430,0.89352,5.92987,7.24223,-17.99266,0.54730,-0.09350,-0.81994,0.13935,-1.85268,-25.99106,-0.76461
-0.38780,1.63168,-0.11569,-0.48315,-0.47355,-1.23417,4.54573,-6.32467,1.09978,8.08912,9.51227,-17.00014,0.59192,-0.07312,-0.79227,0.12882,-15.00528,-24.02484,3.07141
-0.38661,1.63396,-0.14618,-0.35151,-0.32596,-1.45386,4.03460,-6.65301,1.42733,10.60391,12.00376,-15.08937,0.63758,-0.05943,-0.75760,0.12653,-34.63325,-29.45011,2.80952
-0.38064,1.64162,-0.17932,-0.16820,-0.12004,-1.67004,3.29263,-7.02166,1.53668,12.66144,14.00154,-12.50047,0.68179,-0.05607,-0.71849,0.12564,-43.25542,-27.18119,-13.72247
-0.37378,1.65028,-0.21092,-0.01330,0.05370,-1.81014,2.73762,-7.31288,1.38950,13.84866,15.22991,-11.18318,0.72314,-0.05543,-0.67807,0.11924,-36.10580,-23.27399,-30.79883
-0.35989,1.66608,-0.24596,0.22381,0.30695,-1.97478,2.07078,-7.73255,0.95207,16.43839,16.74720,-9.29851,0.76426,-0.06640,-0.63212,0.10922,-24.61077,-24.34965,-44.47187
-0.34254,1.68440,-0.28019,0.46710,0.54662,-2.08828,1.61462,-8.02603,0.42588,18.93085,17.77728,-6.73561,0.80164,-0.07886,-0.58497,0.09474,-12.93414,-19.21042,-49.96492
-0.31970,1.70694,-0.31344,0.74638,0.80160,-2.15902,1.28365,-8.15665,-0.22663,21.75049,18.99290,-2.86200,0.83378,-0.09536,-0.53853,0.07552,-1.14364,-10.16835,-52.67646
-0.29148,1.73412,-0.34396,1.05002,1.07459,-2.16540,1.16271,-7.92804,-1.05188,22.39877,20.48278,2.22287,0.85742,-0.11503,-0.49923,0.04878,15.65367,13.90427,-53.48506
-0.25876,1.76620,-0.37051,1.35789,1.36589,-2.10309,0.87895,-7.63884,-2.07646,22.38797,21.77686,6.36432,0.87467,-0.14667,-0.46158,0.01978,22.63452,25.94368,-66.38012
-0.22150,1.80288,-0.39249,1.66996,1.66614,-1.97808,0.39721,-7.39655,-3.27709,23.00193,22.00141,10.89069,0.88587,-0.19243,-0.42205,-0.00926,12.87986,22.27947,-84.61492
-0.17918,1.84348,-0.40915,1.99413,1.96141,-1.79221,-0.13091,-7.04130,-4.66680,24.31387,20.78844,15.69169,0.88769,-0.25132,-0.38371,-0.04003,11.45612,23.71470,-103.36350
-0.13361,1.88503,-0.42180,2.29121,2.19845,-1.58624,-0.42367,-6.52886,-5.90334,25.99340,18.97266,19.22286,0.88037,-0.31218,-0.34943,-0.07350,29.05066,33.39165,-104.89700
-0.07310,1.93388,-0.42131,2.77726,2.50607,-1.20168,-0.76332,-5.41916,-7.70403,28.76624,15.41383,23.85213,0.85162,-0.39329,-0.32861,-0.10986,40.82790,49.50150,-98.13847
-0.01412,1.97822,-0.42060,3.12729,2.66807,-0.90097,-0.92118,-4.47848,-8.93145,30.69966,11.85253,26.57845,0.81691,-0.46692,-0.30718,-0.14244,51.71830,56.23936,-100.27410
0.05244,2.02228,-0.41331,3.51085,2.78211,-0.57073,-1.04190,-3.37562,-10.24930,34.41879,7.26394,28.61837,0.76501,-0.54749,-0.29136,-0.17354,64.57101,61.50436,-103.27670
0.13942,2.06345,-0.38977,4.15639,2.81887,-0.03794,-0.95468,-1.53590,-12.16862,38.27410,-3.21619,31.31013,0.67868,-0.64220,-0.29230,-0.20380,73.54203,66.82874,-108.76340
0.22488,2.09791,-0.36871,4.63073,2.73518,0.33285,-0.36391,-0.28580,-13.36778,41.37505,-11.51812,31.88028,0.58759,-0.71625,-0.29093,-0.23893,102.89880,42.73521,-101.64390
0.32470,2.12175,-0.33812,5.22781,2.49149,0.77048,0.69202,0.95319,-14.70880,44.46047,-24.41673,31.72013,0.47133,-0.78176,-0.29635,-0.28085,115.12230,5.12634,-102.25240
0.43585,2.12803,-0.30248,5.86855,2.03221,1.20696,2.04960,1.87137,-15.94459,46.91667,-42.52438,31.42274,0.33709,-0.82964,-0.30183,-0.32705,110.55470,-21.41119,-102.98750
0.55944,2.10305,-0.25906,6.58779,1.14020,1.68491,3.65929,2.46686,-17.38018,40.08508,-70.10666,28.40591,0.17958,-0.85656,-0.30293,-0.37722,82.67509,-48.03688,-115.07630
0.67632,2.05258,-0.21470,7.02734,-0.00942,2.05859,4.99763,2.77216,-17.78992,21.21693,-93.29910,24.81492,0.03463,-0.85710,-0.30417,-0.41433,64.53258,-56.75219,-66.88101
0.78406,1.97023,-0.16691,7.16385,-1.43661,2.37355,6.46923,3.84167,-17.71393,-1.67364,-109.75660,18.13399,-0.11577,-0.83886,-0.32172,-0.42356,98.59333,-59.10794,-21.92188
0.87637,1.87032,-0.12178,7.02210,-2.79131,2.56894,8.33100,5.25009,-17.90016,-21.82857,-118.39400,11.31443,-0.28306,-0.79503,-0.34624,-0.40979,136.51200,-58.57712,-45.49207
0.94005,1.71806,-0.08147,6.43624,-4.72067,2.63671,12.64805,8.21602,-18.59677,-53.58862,-124.01700,-8.84401,-0.49929,-0.68586,-0.40807,-0.33731,259.19880,-89.19067,-152.69500
0.97362,1.55769,-0.05878,5.44649,-6.34981,2.37759,17.01983,9.55915,-19.54767,-90.89668,-106.09510,-27.64121,-0.69387,-0.50560,-0.44573,-0.25345,237.16040,-78.37861,-241.47510
0.97048,1.40683,-0.04960,4.08966,-7.39562,1.96346,21.49352,9.44017,-18.03404,-128.23320,-59.31392,-37.12986,-0.80094,-0.29150,-0.50310,-0.14291,166.11730,-90.50698,-289.61580
0.91312,1.27498,-0.05240,2.17950,-7.85641,1.46107,22.88571,4.28200,-14.50519,-127.93960,-11.41047,-22.34786,-0.78175,-0.11327,-0.60156,-0.11900,-98.31619,-328.44470,-334.69420
0.84241,1.18298,-0.05521,0.48363,-7.54985,1.08071,15.30991,-1.82999,-13.33325,-86.73605,36.01913,-17.82288,-0.72928,-0.07211,-0.62283,-0.27392,-591.01070,88.96632,-243.71050
0.80169,1.10777,-0.04797,-0.31468,-7.04724,0.95366,7.86590,-2.14246,-12.09217,-55.48293,45.27282,-6.42062,-0.71807,-0.10344,-0.57206,-0.38264,-549.15380,340.48900,86.46553
0.75763,1.04592,-0.03860,-0.97254,-6.44573,0.89055,2.20948,-1.15065,-10.88526,-39.01541,47.64299,-5.15538,-0.70922,-0.14807,-0.49973,-0.47471,-355.67410,366.71800,76.68019
0.71241,0.99146,-0.02776,-1.50140,-5.84636,0.87049,-0.27177,-0.53180,-9.41380,-26.35997,34.49262,-0.74990,-0.70065,-0.16370,-0.45668,-0.52321,-124.01080,139.77750,101.88800
0.67489,0.93173,-0.01631,-1.77877,-5.47831,0.86292,-0.93348,-0.56846,-8.68213,-19.24789,30.71373,-2.03835,-0.69572,-0.14223,-0.42952,-0.55790,-69.12498,59.14568,53.64039
0.63586,0.87865,-0.00705,-2.01331,-5.09281,0.81899,-0.98843,-0.62323,-7.75310,-14.24559,26.56575,-4.77007,-0.69292,-0.12081,-0.41313,-0.57843,-17.55571,0.20487,68.23743
0.59783,0.82866,-0.00006,-2.18029,-4.74740,0.74951,-0.57712,-0.55630,-6.70488,-11.11667,23.95788,-5.21167,-0.69688,-0.10109,-0.40316,-0.58447,20.20110,3.21983,70.98237
0.55809,0.78120,0.00688,-2.33809,-4.43995,0.69611,-0.20019,-0.47636,-5.93916,-12.17042,20.88170,-1.76986,-0.70219,-0.08012,-0.39221,-0.58880,31.36664,-5.95232,62.97326
0.51348,0.73941,0.01648,-2.54496,-4.10352,0.69832,-0.25324,-0.45119,-5.57025,-13.91965,21.70705,2.48515,-0.70186,-0.05856,-0.37565,-0.60237,3.27456,3.12497,24.76985
0.46726,0.70147,0.02844,-2.73507,-3.77576,0.73996,-0.99475,0.19501,-5.69995,-15.58094,23.56087,4.96507,-0.69761,-0.04683,-0.33639,-0.63086,-24.39008,28.00629,8.26460
0.42177,0.66389,0.04136,-2.86125,-3.52823,0.78517,-1.92221,1.24672,-6.24748,-12.47627,25.43691,4.71614,-0.69118,-0.03990,-0.27308,-0.66791,-48.07972,108.94700,-48.20311
0.37062,0.64290,0.05687,-3.05140,-3.06311,0.86162,-2.86079,2.18959,-6.58359,-7.63055,26.64470,2.82319,-0.67747,-0.03974,-0.20514,-0.70525,-30.27400,74.25040,-28.69736
0.32272,0.62155,0.07018,-3.14745,-2.70010,0.88402,-3.14146,2.01116,-6.32316,-3.45546,26.06204,-0.82321,-0.66063,-0.02846,-0.16878,-0.73094,-23.86948,13.94935,8.88616
0.27714,0.60190,0.08089,-3.18005,-2.39931,0.85754,-3.12192,1.43968,-5.60368,-0.81573,24.33572,-4.43722,-0.64414,-0.01708,-0.15321,-0.74921,-13.42493,-27.72248,55.73863
0.23368,0.58910,0.08686,-3.16642,-2.05511,0.75600,-2.68386,1.30408,-4.84762,1.46399,20.32993,-8.37901,-0.63840,-0.01207,-0.13749,-0.75723,18.46031,-18.84636,55.84199
0.19249,0.57568,0.08964,-3.11890,-1.79687,0.62360,-1.85899,1.79456,-4.53686,3.56062,17.95456,-10.14523,-0.64652,-0.01052,-0.10438,-0.75565,62.09934,16.29380,19.11120
0.15267,0.56432,0.09037,-3.05870,-1.56469,0.48860,-0.89309,2.29176,-4.39983,4.85513,16.08206,-9.06553,-0.66151,-0.00820,-0.06662,-0.74693,77.34698,19.54554,-2.02994
0.11427,0.55574,0.09077,-2.98684,-1.34039,0.38055,-0.02795,2.57171,-4.24725,5.64632,16.14113,-6.34342,-0.67772,-0.00483,-0.03169,-0.73462,71.61650,6.17198,0.03901
0.07739,0.55058,0.09217,-2.90606,-1.11126,0.31534,0.50238,2.48963,-4.09973,6.95984,16.16180,-3.01302,-0.68937,0.00300,-0.00278,-0.72440,47.54626,-6.79113,-0.29399
0.04266,0.54909,0.09542,-2.80742,-0.87392,0.29659,0.56259,1.92510,-3.67509,8.28745,16.97341,-0.04245,-0.69260,0.01393,0.00951,-0.72113,7.58089,-38.34332,23.84863
0.01104,0.55130,0.10010,-2.67946,-0.63136,0.30506,0.33484,1.40107,-3.27715,10.26602,17.39956,1.50047,-0.68986,0.02469,0.01808,-0.72329,-18.07128,-40.31242,31.62567
-0.01789,0.55474,0.10522,-2.53813,-0.42876,0.31846,0.04803,1.34148,-3.15042,12.58384,17.01912,1.36682,-0.68453,0.03156,0.03712,-0.72735,-26.54732,-16.72448,24.05516
-0.03722,0.56526,0.11024,-2.26423,-0.15170,0.32700,-0.19399,1.87345,-3.10677,16.72084,14.32745,0.30158,-0.67857,0.02729,0.06913,-0.73077,-2.19537,32.65313,4.98388
-0.05510,0.57305,0.11441,-2.02129,0.01700,0.31740,-0.34193,2.12829,-2.96102,18.39259,9.54224,-1.38640,-0.67265,0.02437,0.09574,-0.73334,-13.65720,23.17654,6.60404
-0.07059,0.57892,0.11797,-1.80095,0.11046,0.30059,-0.17211,2.15547,-2.66544,19.52811,6.18364,-1.90421,-0.67301,0.02112,0.11533,-0.73028,16.89863,11.82908,14.12442
-0.07797,0.58566,0.12083,-1.49354,0.19603,0.27595,0.01042,2.08111,-2.08394,19.52270,4.49275,-0.94297,-0.67501,0.01271,0.12504,-0.72702,17.19751,-11.42540,37.81478
-0.08509,0.59143,0.12410,-1.25376,0.24389,0.26464,-0.01616,2.31686,-1.75386,20.55949,3.47334,-0.54499,-0.67221,0.00053,0.14294,-0.72643,8.22429,9.75851,27.49570
-0.08548,0.59814,0.12647,-0.96132,0.29467,0.24045,-0.04434,2.94172,-1.52248,20.61527,1.53652,1.13617,-0.66712,-0.02048,0.16975,-0.72507,8.96471,21.24442,6.20941
-0.07910,0.60715,0.12766,-0.62760,0.32575,0.19807,-0.04137,3.33301,-0.96382,20.84312,-0.00526,-4.63528,-0.66188,-0.04750,0.18793,-0.72412,8.54582,43.10527,22.38607
-0.07297,0.61853,0.12763,-0.38833,0.34320,0.14448,0.01343,3.35056,-0.40417,18.51488,0.42562,-5.00234,-0.65850,-0.07112,0.19686,-0.72289,15.12350,-1.08542,53.91207
-0.06432,0.62955,0.12603,-0.17115,0.35303,0.08038,0.10715,3.34451,0.00457,16.66639,-0.49656,-5.62269,-0.65576,-0.09441,0.20542,-0.72033,14.36586,2.52043,34.76709
-0.05145,0.63617,0.12203,0.07656,0.34902,-0.00628,0.21584,3.11074,0.51712,14.39793,-0.11129,-5.66281,-0.65456,-0.11715,0.20476,-0.71826,15.12290,-10.67277,30.16659
-0.03931,0.63952,0.11725,0.26924,0.34461,-0.08635,0.26866,2.84884,0.93985,13.30973,0.24900,-5.62722,-0.65265,-0.13841,0.20168,-0.71709,9.75137,-21.65605,30.51244
-0.02543,0.64306,0.11154,0.44492,0.34370,-0.16340,0.26902,2.79014,1.14408,12.41627,0.44215,-5.54278,-0.64881,-0.16006,0.20392,-0.71544,4.40945,-6.84648,15.24660
-0.00942,0.64800,0.10443,0.61086,0.35205,-0.24502,0.26060,2.72910,1.39378,11.43775,0.89352,-6.03760,-0.64412,-0.18298,0.20383,-0.71420,2.53794,-5.74266,18.38691
0.00809,0.65284,0.09605,0.76401,0.36005,-0.32913,0.26348,2.80278,1.55248,10.80640,0.69794,-6.19136,-0.63848,-0.20774,0.20664,-0.71168,1.38789,3.13847,11.70506
0.02724,0.65784,0.08618,0.90827,0.36842,-0.41875,0.30626,2.95268,1.71798,10.00476,0.86113,-6.65390,-0.63232,-0.23540,0.20994,-0.70759,3.99102,7.89944,12.66689
0.04877,0.66353,0.07372,1.05863,0.37884,-0.53188,0.40236,3.22150,1.84256,8.84475,0.55276,-7.47100,-0.62578,-0.26628,0.21579,-0.70067,4.54561,17.92447,6.25786
0.06999,0.66940,0.06030,1.16964,0.38930,-0.63602,0.54126,3.39602,1.96325,7.15577,1.03235,-7.60554,-0.61999,-0.29706,0.21988,-0.69212,9.60037,14.40657,7.76447
