posX, posY, posZ, velX, velY, velZ, angVelX, angVelY, angVelZ, accX, accY, accZ, rotX, rotY, rotZ, rotW, angAccX, angAccY, angAccZ
0.28256,1.24824,-0.39709,-0.66530,0.40148,-0.15058,0.04914,0.58704,0.59551,-0.96107,-0.59187,-0.70826,-0.23286,-0.80901,-0.07925,-0.53385,2.17166,-1.39204,-5.34183
0.27255,1.25353,-0.39979,-0.67984,0.39592,-0.16123,0.28362,0.66222,0.53745,-1.07960,-0.37606,-1.20644,-0.23504,-0.81232,-0.08464,-0.52699,13.39161,3.30526,-5.13163
0.26226,1.25886,-0.40292,-0.69498,0.39241,-0.17671,0.56194,0.78059,0.46836,-1.11562,-0.17172,-1.12032,-0.23950,-0.81608,-0.09161,-0.51793,20.01231,9.56958,-5.47237
0.25160,1.26427,-0.40629,-0.71343,0.39127,-0.19222,0.83015,0.84526,0.38292,-1.86708,-0.09180,-1.09236,-0.24548,-0.81897,-0.09954,-0.50904,17.72956,6.47090,-6.28395
0.24042,1.27018,-0.40986,-0.73600,0.39931,-0.20754,1.07844,0.95375,0.34964,-1.05655,1.29218,-0.83211,-0.25167,-0.82250,-0.10870,-0.49834,21.91767,4.81554,-6.98251
0.22903,1.27694,-0.41373,-0.75745,0.42103,-0.22448,1.13068,0.96683,0.42008,-1.55456,1.54100,-1.22106,-0.25337,-0.82600,-0.11656,-0.48984,4.43883,-0.85802,3.68027
0.20645,1.29011,-0.42139,-0.78084,0.44255,-0.24385,1.12948,0.99500,0.49281,-1.72851,1.58032,-1.49443,-0.25578,-0.83309,-0.13002,-0.47289,1.61555,1.71917,5.40670
0.19409,1.29770,-0.42650,-0.80381,0.46361,-0.26766,1.09193,1.04855,0.56505,-1.61553,1.41840,-1.79787,-0.25500,-0.83780,-0.13615,-0.46317,-2.25180,2.73561,5.54664
0.18135,1.30554,-0.43225,-0.82735,0.48413,-0.29621,1.05450,1.12196,0.62810,-1.40766,1.14781,-1.71828,-0.25406,-0.84296,-0.14189,-0.45249,-1.40499,4.72216,4.70878
0.16864,1.31329,-0.43836,-0.84740,0.50013,-0.32490,0.98113,1.17380,0.67411,-1.25236,0.82282,-1.87134,-0.25252,-0.84800,-0.14635,-0.44240,-4.86515,2.26886,3.55442
0.15581,1.32083,-0.44486,-0.86479,0.50953,-0.35479,0.95108,1.25402,0.68069,-1.02078,0.29933,-1.97200,-0.25237,-0.85308,-0.15081,-0.43107,-1.61764,4.72970,1.48881
0.14320,1.32793,-0.45160,-0.87490,0.51008,-0.38274,0.95565,1.35700,0.62735,-0.59808,-0.24805,-2.12660,-0.25432,-0.85797,-0.15479,-0.41864,-1.59152,6.27661,-2.22965
0.13078,1.33458,-0.45906,-0.88042,0.50346,-0.41646,1.07628,1.54676,0.45912,-0.29323,-0.44542,-1.81894,-0.26147,-0.86253,-0.15910,-0.40294,4.41159,11.39946,-8.85211
0.11830,1.34125,-0.46608,-0.88489,0.49809,-0.43666,1.22543,1.68575,0.32225,-0.41444,-0.33405,-1.12680,-0.26936,-0.86633,-0.16490,-0.38694,9.93325,12.05475,-10.10808
0.10564,1.34793,-0.47306,-0.89166,0.49452,-0.45116,1.27782,1.74246,0.20840,-0.54585,-0.11537,-0.73809,-0.27643,-0.86950,-0.16943,-0.37263,4.73386,6.77190,-8.67783
0.09286,1.35471,-0.47991,-0.89862,0.49344,-0.46011,1.28384,1.76772,0.13963,-0.56567,0.00301,-0.61294,-0.28248,-0.87252,-0.17342,-0.35893,0.33784,2.91236,-6.63289
0.07990,1.36153,-0.48683,-0.90685,0.49319,-0.46811,1.23585,1.78247,0.05364,-0.47913,0.01057,-0.27336,-0.28872,-0.87531,-0.17570,-0.34585,-2.51960,1.86002,-5.01747
0.06700,1.36842,-0.49355,-0.91254,0.49454,-0.47092,1.19531,1.78224,-0.01376,-0.36229,0.31384,-0.15272,-0.29478,-0.87777,-0.17791,-0.33311,-4.93800,-0.14511,-4.36699
0.05406,1.37566,-0.50000,-0.91719,0.50120,-0.46860,1.23168,1.81382,-0.03618,-0.43533,0.93173,0.36449,-0.30095,-0.88022,-0.18188,-0.31870,-0.12665,2.93849,-3.55828
0.04064,1.38380,-0.50577,-0.92879,0.52117,-0.45572,1.34187,1.82922,0.02149,-0.85457,1.61447,1.08774,-0.30594,-0.88246,-0.18887,-0.30331,6.83571,0.97079,1.65984
0.02701,1.39245,-0.51110,-0.94143,0.54567,-0.43837,1.44191,1.81333,0.10654,-0.88019,2.01479,1.38673,-0.30972,-0.88444,-0.19687,-0.28824,7.74816,-1.38200,5.00065
0.01339,1.40131,-0.51630,-0.95036,0.56671,-0.42350,1.51513,1.80158,0.18106,-0.89606,2.23345,1.61687,-0.31306,-0.88628,-0.20486,-0.27300,7.41449,-1.59729,5.57737
-0.00079,1.41152,-0.52015,-0.96619,0.60540,-0.39041,1.60006,1.73483,0.30970,-0.79761,2.02980,2.16731,-0.31434,-0.88782,-0.21488,-0.25845,7.18419,-3.37581,6.40527
-0.01474,1.42150,-0.52395,-0.97488,0.63247,-0.36334,1.57292,1.63254,0.40127,-0.54245,1.84564,1.84381,-0.31465,-0.88929,-0.22261,-0.24620,-0.13463,-8.31071,6.04143
-0.02863,1.43173,-0.52753,-0.98043,0.65700,-0.33873,1.58027,1.58017,0.47448,-0.35856,1.73308,1.63459,-0.31515,-0.89061,-0.23074,-0.23293,-0.38243,-5.62280,4.88450
-0.04251,1.44187,-0.53100,-0.98533,0.67826,-0.31509,1.61104,1.55856,0.53667,-0.39218,1.43154,1.70838,-0.31571,-0.89172,-0.23935,-0.21878,2.81223,-2.11334,4.33630
-0.05636,1.45208,-0.53408,-0.98927,0.69759,-0.28877,1.68784,1.56840,0.57503,-0.20002,1.19633,1.52856,-0.31694,-0.89230,-0.24889,-0.20348,3.87046,-0.52444,2.79093
-0.07017,1.46237,-0.53700,-0.99057,0.71018,-0.26810,1.79560,1.61281,0.59755,-0.06180,1.02716,1.86208,-0.31886,-0.89235,-0.25925,-0.18662,9.00725,3.73473,0.73810
-0.08389,1.47271,-0.53921,-0.98991,0.72333,-0.23846,1.82230,1.60363,0.63502,0.25841,0.74520,2.13322,-0.31955,-0.89242,-0.26868,-0.17115,4.03892,0.25750,1.37516
-0.09745,1.48302,-0.54116,-0.98644,0.73253,-0.21073,1.69935,1.52411,0.72029,0.38217,0.57933,2.29349,-0.31728,-0.89353,-0.27534,-0.15850,-5.48021,-5.08734,5.13261
-0.11091,1.49341,-0.54251,-0.98168,0.73894,-0.18090,1.48974,1.37422,0.83971,0.49812,0.37232,2.24043,-0.31224,-0.89549,-0.28005,-0.14888,-12.89734,-11.16249,8.04751
-0.12412,1.50362,-0.54337,-0.97354,0.74127,-0.14981,1.32515,1.22171,0.93676,0.64955,0.04203,2.13949,-0.30665,-0.89729,-0.28489,-0.14027,-12.90507,-12.92116,8.05844
-0.13706,1.51349,-0.54387,-0.96245,0.73695,-0.12001,1.24440,1.11986,0.96982,0.79429,-0.56053,1.95000,-0.30238,-0.89833,-0.29046,-0.13118,-7.11337,-10.05492,4.31307
-0.14964,1.52303,-0.54397,-0.94821,0.72683,-0.09143,1.31744,1.10074,0.91071,0.92352,-0.80109,1.74961,-0.30137,-0.89761,-0.29847,-0.11996,1.50771,-2.57594,-3.27152
-0.16196,1.53209,-0.54400,-0.93215,0.71201,-0.06738,1.46408,1.16563,0.81042,1.45564,-1.20888,1.55228,-0.30281,-0.89567,-0.30792,-0.10615,11.23466,5.05840,-7.24564
-0.17373,1.54099,-0.54414,-0.91097,0.69727,-0.05160,1.55817,1.21782,0.70045,2.01487,-1.30527,1.26751,-0.30506,-0.89333,-0.31672,-0.09269,7.47200,5.74752,-8.38598
-0.18448,1.54927,-0.54392,-0.87697,0.67456,-0.03473,1.55378,1.23493,0.56794,2.48827,-1.66281,1.15221,-0.30814,-0.89097,-0.32356,-0.08083,1.86571,4.32875,-8.87231
-0.19479,1.55728,-0.54377,-0.84364,0.65277,-0.02370,1.34939,1.10656,0.50102,2.50459,-1.58507,0.93050,-0.30834,-0.89037,-0.32656,-0.07433,-11.76711,-6.76024,-5.58927
-0.20501,1.56518,-0.54353,-0.81741,0.63411,-0.01387,1.14964,0.95121,0.48520,2.13028,-1.50077,0.79069,-0.30690,-0.89038,-0.32892,-0.06962,-17.21253,-13.19758,-2.51270
-0.21450,1.57240,-0.54295,-0.78581,0.60922,-0.00099,0.98120,0.80591,0.46217,1.82311,-1.39679,0.62054,-0.30539,-0.89041,-0.33097,-0.06600,-12.77612,-11.57618,-0.83125
-0.22415,1.57976,-0.54224,-0.76340,0.59169,0.01124,1.00922,0.81725,0.40648,1.73322,-1.23473,0.97089,-0.30646,-0.88874,-0.33596,-0.05789,-3.42655,-2.40213,-3.78166
-0.23304,1.58650,-0.54053,-0.73281,0.56784,0.03767,1.20961,0.89287,0.30916,1.77863,-1.34533,1.67587,-0.30999,-0.88475,-0.34487,-0.04679,11.93715,6.10264,-5.67934
-0.24162,1.59319,-0.53852,-0.70721,0.54925,0.06120,1.31573,0.88862,0.24363,1.88006,-1.31233,1.83880,-0.31244,-0.88108,-0.35306,-0.03767,8.52067,1.36953,-5.17813
-0.25007,1.59973,-0.53637,-0.68614,0.53286,0.08123,1.34257,0.82261,0.19732,1.71635,-1.36690,1.62193,-0.31409,-0.87777,-0.36047,-0.03065,3.75231,-3.31347,-4.84582
-0.25801,1.60587,-0.53405,-0.66113,0.51345,0.09912,1.34796,0.74665,0.14647,1.83343,-1.36005,0.89876,-0.31581,-0.87433,-0.36769,-0.02465,0.77343,-6.16798,-3.85133
-0.26530,1.61172,-0.53220,-0.62971,0.49285,0.10757,1.38173,0.76804,0.05209,1.81720,-1.16297,0.11622,-0.31966,-0.87012,-0.37473,-0.01699,0.17722,-0.06754,-5.59685
-0.27261,1.61761,-0.53071,-0.60572,0.47769,0.10797,1.45691,0.88105,-0.04412,1.96484,-1.24648,-0.19267,-0.32515,-0.86500,-0.38211,-0.00655,5.96142,7.47476,-7.28847
-0.27924,1.62325,-0.52942,-0.57639,0.46210,0.10505,1.50738,1.03035,-0.15166,2.15140,-1.01440,-0.06744,-0.33221,-0.85942,-0.38859,0.00517,4.26525,12.67051,-7.52657
-0.28561,1.62881,-0.52829,-0.54900,0.44873,0.10264,1.46002,1.05900,-0.20979,2.08292,-1.12241,0.03410,-0.33767,-0.85485,-0.39372,0.01420,-0.19585,6.35244,-4.73587
-0.29153,1.63424,-0.52736,-0.52009,0.43659,0.09841,1.29509,0.97357,-0.22207,1.70171,-0.43450,-0.29493,-0.34107,-0.85206,-0.39660,0.01947,-11.71719,-5.61622,-1.14262
-0.29770,1.64000,-0.52631,-0.50193,0.43187,0.09470,1.18679,0.91411,-0.19386,1.37108,-0.31679,-0.24752,-0.34356,-0.84936,-0.39988,0.02548,-8.30874,-4.49042,1.05563
-0.30388,1.64570,-0.52564,-0.48701,0.42808,0.09030,0.98979,0.77016,-0.08915,1.07345,-0.19155,-0.09399,-0.34286,-0.84890,-0.40124,0.02876,-11.82205,-9.49949,5.10054
-0.30997,1.65151,-0.52483,-0.47410,0.42675,0.08885,0.80147,0.62953,0.05271,0.72833,0.08320,0.05388,-0.34016,-0.84960,-0.40186,0.03151,-15.91521,-12.14893,11.07796
-0.31601,1.65732,-0.52347,-0.46391,0.42508,0.09444,0.75601,0.57510,0.16945,0.63435,-0.08962,0.62605,-0.33782,-0.84911,-0.40441,0.03677,-4.93201,-5.02608,8.93965
-0.32202,1.66311,-0.52138,-0.45642,0.42265,0.10862,0.79443,0.52481,0.28490,0.41611,-0.06123,1.36083,-0.33466,-0.84796,-0.40882,0.04284,0.67618,-3.94813,7.70297
-0.32828,1.66887,-0.51849,-0.45479,0.42031,0.13278,0.95479,0.48908,0.42834,-0.21465,-0.04970,1.94559,-0.32999,-0.84563,-0.41643,0.05095,9.78529,-3.67443,8.84973
-0.33500,1.67441,-0.51491,-0.46129,0.41480,0.16291,1.14608,0.41522,0.66820,-0.25841,-0.71744,1.76143,-0.32149,-0.84351,-0.42604,0.06024,15.55940,-2.48164,13.26847
-0.34164,1.67958,-0.51187,-0.46440,0.40380,0.17820,1.09537,0.23477,0.87573,0.03583,-1.29824,0.79741,-0.31107,-0.84412,-0.43185,0.06482,0.96223,-13.37071,15.76308
-0.34782,1.68416,-0.50924,-0.45856,0.38529,0.18266,0.96725,0.07877,0.98358,0.61487,-1.63867,0.04108,-0.30171,-0.84538,-0.43560,0.06747,-7.68057,-13.11642,9.33933
-0.35348,1.68823,-0.50688,-0.44526,0.36259,0.18106,0.82480,-0.02737,0.98839,1.02246,-1.68011,-0.28186,-0.29446,-0.84649,-0.43815,0.06905,-10.53430,-9.46809,1.75877
-0.35886,1.69199,-0.50479,-0.42987,0.34016,0.17614,0.75348,-0.03166,0.93453,0.88352,-1.41877,-0.57117,-0.28951,-0.84648,-0.44097,0.07209,-6.66849,-3.42239,-3.51397
-0.36429,1.69593,-0.50278,-0.41968,0.32664,0.17065,0.74562,0.04872,0.90559,0.97484,-1.20008,-0.63196,-0.28531,-0.84576,-0.44410,0.07789,-2.55151,4.88783,-3.67489
-0.36885,1.69928,-0.50104,-0.39750,0.30653,0.16130,0.73987,0.20238,0.83856,1.56310,-1.08742,-0.30160,-0.28345,-0.84440,-0.44648,0.08550,-0.67278,9.34279,-3.01676
-0.37321,1.70278,-0.49885,-0.37738,0.29346,0.16085,0.72960,0.25048,0.76232,1.92309,-1.19332,0.31462,-0.28127,-0.84301,-0.44940,0.09094,-0.89758,6.84593,-4.59499
-0.37675,1.70570,-0.49621,-0.34798,0.27349,0.16813,0.69628,0.20130,0.63235,1.92090,-1.33467,0.59168,-0.27984,-0.84153,-0.45260,0.09308,-1.98303,-2.24651,-7.97871
-0.38033,1.70859,-0.49347,-0.32617,0.25743,0.17459,0.65662,0.14683,0.53502,1.78354,-1.36756,0.42873,-0.27816,-0.84030,-0.45560,0.09462,-3.16958,-4.34526,-8.59922
-0.38345,1.71122,-0.49080,-0.30159,0.24062,0.17808,0.62358,0.17166,0.40254,1.54714,-1.10866,-0.07613,-0.27884,-0.83845,-0.45811,0.09694,-2.68920,-1.45402,-9.15416
-0.38602,1.71368,-0.48848,-0.27325,0.22485,0.17507,0.64700,0.39132,0.23314,1.68498,-0.75549,-0.39417,-0.28365,-0.83482,-0.46028,0.10376,-0.16264,11.44137,-10.07095
-0.38848,1.71629,-0.48620,-0.25016,0.21596,0.17221,0.72759,0.65374,0.08767,2.01663,-0.66975,-0.24841,-0.28998,-0.82977,-0.46319,0.11334,5.07240,21.73667,-10.87658
-0.39037,1.71886,-0.48392,-0.22309,0.20857,0.17024,0.77352,0.89398,-0.05776,1.96935,-0.41602,0.07106,-0.29783,-0.82431,-0.46539,0.12337,3.14798,19.26979,-10.80619
-0.39204,1.72151,-0.48136,-0.19903,0.20422,0.17334,0.77674,1.02120,-0.17243,1.80783,-0.23756,0.55577,-0.30506,-0.81931,-0.46727,0.13164,1.31069,13.08222,-8.32924
-0.39370,1.72423,-0.47801,-0.17849,0.20197,0.18887,0.78967,1.03593,-0.23142,1.14731,-0.03645,1.42825,-0.31031,-0.81468,-0.46999,0.13821,-0.42036,1.94125,-4.33473
-0.39561,1.72702,-0.47400,-0.16680,0.20120,0.21212,0.82690,0.96569,-0.24393,0.81296,0.05805,1.82853,-0.31351,-0.81022,-0.47399,0.14349,2.36720,-3.26326,-2.15940
-0.39752,1.72993,-0.46949,-0.15894,0.20296,0.23843,0.86233,0.86679,-0.21040,0.47781,0.11481,1.93686,-0.31501,-0.80615,-0.47842,0.14833,3.53563,-6.20269,0.70964
-0.39958,1.73298,-0.46468,-0.15422,0.20684,0.26386,0.83380,0.71103,-0.13805,0.38892,0.41031,1.76751,-0.31444,-0.80363,-0.48207,0.15139,-1.39239,-11.07891,4.40649
-0.40156,1.73625,-0.45951,-0.14940,0.21339,0.28933,0.84090,0.63061,-0.05870,0.20426,0.55844,1.80309,-0.31367,-0.80075,-0.48590,0.15592,-0.30661,-7.74663,5.08205
-0.40354,1.73965,-0.45401,-0.14645,0.22066,0.31438,0.86251,0.58369,0.04396,0.19118,0.54895,1.71613,-0.31201,-0.79791,-0.48978,0.16156,1.57194,-4.01506,6.68527
-0.40546,1.74313,-0.44829,-0.14303,0.22764,0.33734,0.87726,0.57220,0.15789,0.27386,0.49044,1.66869,-0.30983,-0.79526,-0.49320,0.16828,1.33529,-1.84426,7.91842
-0.40726,1.74659,-0.44222,-0.13849,0.23279,0.36093,0.88514,0.51151,0.27667,0.60914,0.20688,1.73558,-0.30615,-0.79313,-0.49684,0.17425,1.88551,-2.68647,8.63520
-0.40873,1.74993,-0.43575,-0.12962,0.23445,0.38543,0.87908,0.41544,0.35081,0.72662,0.04696,1.89767,-0.30218,-0.79128,-0.50067,0.17862,-1.62392,-8.19410,5.99163
-0.40994,1.75299,-0.42859,-0.11763,0.23100,0.41579,0.95061,0.36668,0.37786,0.94065,-0.41563,2.32591,-0.29887,-0.78783,-0.50615,0.18386,4.67432,-3.74757,2.45595
-0.41101,1.75578,-0.42106,-0.10660,0.22388,0.44451,1.05179,0.33037,0.37367,0.90174,-0.63310,2.42161,-0.29588,-0.78337,-0.51285,0.18914,7.05391,-3.95391,-0.29513
-0.41175,1.75826,-0.41281,-0.09357,0.21357,0.47803,1.20520,0.33756,0.36200,0.94565,-0.80540,2.30721,-0.29317,-0.77731,-0.52104,0.19583,10.80985,0.91989,-0.96354
-0.41237,1.76043,-0.40416,-0.08154,0.20026,0.51057,1.29876,0.26625,0.38189,0.74962,-1.00537,1.82480,-0.28873,-0.77219,-0.52913,0.20095,7.50769,-2.70175,0.48006
-0.41316,1.76259,-0.39589,-0.07534,0.18988,0.52948,1.28200,0.12764,0.43040,0.55473,-0.96250,1.40166,-0.28266,-0.76923,-0.53562,0.20373,1.19928,-9.38086,2.12103
-0.41573,1.76484,-0.38838,-0.07306,0.17862,0.54411,1.22343,-0.02957,0.49068,0.31877,-0.87547,0.87259,-0.27540,-0.76750,-0.54130,0.20517,-3.88640,-12.55060,3.35604
-0.42122,1.76736,-0.38222,-0.07489,0.16594,0.55386,1.18969,-0.08939,0.54118,0.31289,-0.92926,0.63000,-0.26888,-0.76525,-0.54658,0.20818,-3.25597,-6.40839,3.00905
-0.42576,1.76941,-0.37561,-0.07418,0.15053,0.56302,1.20302,-0.08037,0.57895,0.58376,-1.16695,0.74574,-0.26309,-0.76189,-0.55225,0.21292,0.79299,1.18842,2.64443
-0.42635,1.77072,-0.36711,-0.06651,0.13700,0.57438,1.26953,-0.02548,0.58873,0.50496,-0.90811,1.19978,-0.25810,-0.75712,-0.55884,0.21875,1.86713,-0.40936,1.32568
-0.42658,1.77165,-0.35787,-0.05496,0.12070,0.59538,1.47142,0.12864,0.58392,1.16696,-1.17938,1.64984,-0.25426,-0.74880,-0.56791,0.22832,14.56105,14.02725,1.60623
-0.42635,1.77246,-0.34816,-0.03784,0.10593,0.61942,1.59509,0.12010,0.53979,1.31275,-0.86665,1.40568,-0.24944,-0.74133,-0.57745,0.23400,8.21766,0.77546,-2.68565
-0.42597,1.77350,-0.33865,-0.02252,0.09866,0.63456,1.60319,0.01462,0.48582,1.50235,-0.57597,1.26086,-0.24398,-0.73572,-0.58591,0.23644,3.87902,-4.19482,-3.78951
-0.42535,1.77473,-0.32892,-0.00700,0.09639,0.64941,1.54199,-0.23977,0.42028,0.94536,0.13012,0.95743,-0.23656,-0.73218,-0.59434,0.23390,-3.53727,-16.88365,-7.20339
-0.42473,1.77644,-0.31909,0.00512,0.10278,0.66272,1.52021,-0.42090,0.41554,0.41394,0.71484,0.73214,-0.22809,-0.72838,-0.60279,0.23257,-1.76591,-13.15324,-2.31473
-0.42433,1.77839,-0.30934,0.01059,0.11173,0.67162,1.53937,-0.48051,0.44817,0.29893,0.87848,0.68907,-0.21986,-0.72355,-0.61106,0.23396,1.57214,-5.74847,1.73836
-0.42396,1.78068,-0.29956,0.01432,0.12376,0.67872,1.56602,-0.48807,0.50179,0.11734,1.23667,0.51999,-0.21148,-0.71836,-0.61903,0.23672,1.56683,-4.10494,3.15067
-0.42349,1.78358,-0.28953,0.01875,0.14318,0.68826,1.66358,-0.37487,0.60149,0.31442,1.24214,0.73753,-0.20337,-0.71115,-0.62730,0.24373,5.94591,7.39705,7.30012
-0.42302,1.78667,-0.27932,0.02221,0.16135,0.69856,1.71357,-0.39229,0.65588,0.40875,1.22004,0.79203,-0.19404,-0.70480,-0.63576,0.24783,4.46643,1.27910,5.28615
-0.42256,1.78993,-0.26908,0.02459,0.17797,0.70703,1.71682,-0.51542,0.67029,0.26865,1.39191,0.67226,-0.18348,-0.69957,-0.64427,0.24870,2.13110,-6.82984,1.40886
-0.42223,1.79387,-0.25869,0.02433,0.20181,0.71599,1.69143,-0.70803,0.70157,-0.20824,1.56290,0.52132,-0.17077,-0.69560,-0.65248,0.24747,-1.66209,-12.99814,-0.29222
-0.42197,1.79775,-0.24831,0.02306,0.21928,0.72275,1.71046,-0.76600,0.74906,-0.25050,1.49933,0.64401,-0.15892,-0.69021,-0.66060,0.24892,0.18829,-8.02664,2.64063
-0.42181,1.80208,-0.23743,0.02043,0.24009,0.73618,1.81514,-0.80985,0.82847,-0.11135,1.31067,1.11083,-0.14543,-0.68306,-0.67002,0.25168,5.04166,-2.84199,5.16446
-0.42164,1.80636,-0.22617,0.01860,0.25545,0.75304,1.95572,-0.86133,0.87509,-0.08897,0.99237,1.29390,-0.13145,-0.67448,-0.68064,0.25403,9.79589,-2.79243,3.85392
-0.42147,1.81082,-0.21456,0.01714,0.27044,0.77157,2.10330,-0.95777,0.89966,-0.05265,1.18837,1.44407,-0.11623,-0.66516,-0.69211,0.25501,9.86663,-6.11861,1.54949
-0.42130,1.81543,-0.20264,0.01592,0.28445,0.79100,2.28675,-1.02558,0.96065,-0.19993,0.82077,1.29671,-0.09963,-0.65417,-0.70430,0.25710,13.24559,-5.58013,3.17691
-0.42131,1.81983,-0.19075,0.01199,0.29143,0.80546,2.41881,-1.15163,1.03031,-0.27246,0.03340,0.79667,-0.08108,-0.64355,-0.71603,0.25799,11.68942,-6.80829,4.95016
-0.42146,1.82365,-0.17900,0.00684,0.28744,0.81407,2.49488,-1.29850,1.09135,-0.43375,-0.83271,0.71380,-0.06138,-0.63353,-0.72695,0.25773,7.28828,-12.04689,3.60386
-0.42178,1.82620,-0.16700,0.00027,0.26339,0.82488,2.62105,-1.52523,1.10813,-0.32427,-2.25626,0.63607,-0.03926,-0.62231,-0.73918,0.25458,8.22075,-13.88841,0.82423
-0.42206,1.82757,-0.15499,-0.00447,0.22540,0.83355,2.76879,-1.71237,1.05552,-0.32137,-3.03203,0.73665,-0.01778,-0.60947,-0.75224,0.24975,10.26634,-13.16909,-3.94995
-0.42241,1.82786,-0.14270,-0.00922,0.17839,0.84443,3.02037,-1.76911,1.02079,-0.71666,-3.46591,0.65831,0.00304,-0.59237,-0.76694,0.24676,16.95211,-4.99661,-3.63006
-0.42299,1.82767,-0.13059,-0.01652,0.13516,0.85010,3.29143,-1.64768,1.11668,-1.16013,-3.48150,0.19225,0.02318,-0.57182,-0.78118,0.24948,19.88592,2.84042,4.50143
-0.42398,1.82601,-0.11883,-0.02895,0.07811,0.84910,3.63343,-1.35703,1.43531,-0.83842,-3.60672,-0.46887,0.04436,-0.54605,-0.79466,0.26149,19.11898,17.13971,26.86195
-0.42541,1.82410,-0.10770,-0.04598,0.02880,0.83744,3.82816,-1.27496,1.69967,-1.19785,-3.63359,-1.15623,0.06834,-0.52221,-0.80586,0.27058,13.03133,6.02229,22.55550
-0.42698,1.82238,-0.09696,-0.06065,-0.00478,0.82277,3.91346,-1.35775,1.79968,-1.13478,-3.39215,-1.79444,0.09336,-0.50036,-0.81588,0.27433,9.99541,-3.52171,17.44533
-0.42977,1.81889,-0.08816,-0.09174,-0.05894,0.78023,3.92932,-1.74463,1.82782,-1.79592,-2.95448,-2.92280,0.12480,-0.48166,-0.82406,0.27083,3.36252,-20.29562,-2.81279
-0.43272,1.81583,-0.08015,-0.11902,-0.09543,0.73303,3.87886,-2.17345,1.73127,-1.79657,-2.45800,-3.88685,0.15662,-0.46506,-0.83084,0.26246,2.28838,-26.56355,-10.37583
-0.43624,1.81218,-0.07401,-0.15000,-0.13404,0.66553,3.86073,-2.61150,1.71127,-2.18635,-2.35477,-4.74049,0.19167,-0.44813,-0.83568,0.25315,1.79898,-28.07897,-13.87084
-0.43914,1.80838,-0.06917,-0.16319,-0.16656,0.59042,3.89169,-2.80308,1.93113,-0.11410,-1.87332,-6.27448,0.22695,-0.42737,-0.83819,0.25157,3.06924,-20.30514,9.10580
-0.44028,1.80498,-0.06649,-0.14343,-0.18441,0.49677,3.79747,-2.75411,2.30858,2.16988,-0.71267,-7.50622,0.25929,-0.40653,-0.83717,0.25817,-6.74125,-6.44819,20.80339
-0.43946,1.80220,-0.06591,-0.09547,-0.18781,0.38974,3.61329,-2.67866,2.60997,4.78245,-0.01157,-8.19507,0.28957,-0.38739,-0.83376,0.26633,-17.59079,-1.51668,27.44007
-0.43684,1.79993,-0.06751,-0.02891,-0.18190,0.27143,3.43047,-2.71703,2.56170,5.45449,0.70440,-8.64816,0.31766,-0.37118,-0.83085,0.26648,-14.45706,-2.08681,-0.11756
-0.43302,1.79839,-0.07096,0.04210,-0.16497,0.14995,3.29756,-2.90381,2.27869,5.22017,1.58547,-8.74967,0.34618,-0.35731,-0.82814,0.25822,-5.22230,-8.78798,-21.59761
-0.42828,1.79748,-0.07620,0.11190,-0.14162,0.02672,3.14869,-3.14068,2.22181,4.38368,1.85041,-9.04901,0.37813,-0.34376,-0.82162,0.25256,-4.08154,-13.68350,-18.49426
-0.42240,1.79683,-0.08333,0.18452,-0.11952,-0.09910,2.96115,-3.38690,2.49353,5.52545,1.46436,-9.07092,0.41428,-0.32923,-0.80949,0.25437,-13.36637,-22.34654,9.15348
-0.41450,1.79630,-0.09226,0.27433,-0.10053,-0.22585,2.82724,-3.54936,2.84343,6.92588,1.55239,-9.20660,0.45070,-0.31213,-0.79503,0.25956,-11.03259,-20.02915,16.33279
-0.40429,1.79652,-0.10257,0.38160,-0.07318,-0.34557,2.54645,-3.62448,3.42238,8.17402,2.61764,-8.17169,0.48686,-0.29479,-0.77510,0.27440,-22.89144,-15.61250,33.86254
-0.39214,1.79825,-0.11365,0.49616,-0.02676,-0.45022,2.29049,-3.71737,3.54312,9.30391,3.91451,-6.79651,0.51947,-0.28164,-0.75593,0.28177,-24.91874,-14.64615,18.09723
-0.37937,1.80105,-0.12474,0.59250,0.02560,-0.52926,2.21197,-3.82514,3.17264,8.13944,4.63469,-6.18369,0.54869,-0.27154,-0.74102,0.27585,-2.77781,-5.98463,-24.43145
-0.36398,1.80598,-0.13791,0.70955,0.10076,-0.62444,2.07148,-4.08471,2.70058,6.64680,4.81445,-6.09499,0.57888,-0.26712,-0.72362,0.26442,4.61779,-9.52141,-34.59216
-0.34841,1.81118,-0.15140,0.80441,0.16404,-0.70454,1.75796,-4.48594,2.54826,6.50082,4.27851,-5.97681,0.61281,-0.26558,-0.69780,0.25887,-9.88395,-25.10625,-22.50681
-0.33209,1.81640,-0.16542,0.88845,0.21199,-0.77353,1.49214,-4.92756,2.44406,7.67129,3.80164,-5.68340,0.64839,-0.26505,-0.66747,0.25263,-15.53303,-37.68066,-16.10162
-0.31061,1.82312,-0.18265,1.04115,0.27470,-0.88142,1.35508,-5.58187,2.10903,9.82826,3.44299,-5.92595,0.68701,-0.26870,-0.63228,0.23673,0.70545,-35.75277,-20.55228
-0.28789,1.82994,-0.19991,1.18306,0.32639,-0.96724,1.58155,-6.05775,1.55113,11.49323,4.29326,-5.96544,0.72289,-0.26945,-0.60083,0.20935,25.87633,-29.68274,-30.14714
-0.26439,1.83750,-0.21707,1.30020,0.37684,-1.02864,1.93153,-6.34118,0.94705,12.98203,5.99323,-5.48382,0.75509,-0.26917,-0.57171,0.17473,44.32959,-25.10809,-38.23312
-0.23223,1.85068,-0.23658,1.53427,0.50978,-1.11361,2.77920,-6.72110,-0.30764,13.66879,8.99760,-3.87989,0.78394,-0.27283,-0.54658,0.11066,78.08441,-10.00169,-47.92203
-0.19901,1.86577,-0.25359,1.73813,0.64747,-1.13869,2.98697,-7.02691,-1.10146,15.38486,10.88991,-0.85612,0.80848,-0.28151,-0.51339,0.05952,46.67590,-14.44194,-46.55328
-0.16350,1.88258,-0.26841,1.92789,0.77857,-1.11996,2.79444,-7.25813,-1.68708,16.32123,11.33331,2.73183,0.82866,-0.29594,-0.47486,0.01609,18.63516,-12.86781,-51.01649
-0.12246,1.90264,-0.27947,2.16459,0.93154,-1.04445,2.19887,-7.41193,-2.37387,17.80517,10.74482,7.14691,0.84186,-0.32277,-0.43204,-0.02075,-12.06397,-2.68565,-61.15197
-0.07693,1.92394,-0.28618,2.41968,1.06898,-0.91374,1.51606,-7.34323,-3.18955,19.48604,9.19980,11.56640,0.84644,-0.35822,-0.39019,-0.05457,-17.02845,12.68166,-70.26157
-0.02640,1.94592,-0.28719,2.69859,1.18591,-0.71897,0.93397,-6.88217,-4.11461,20.66212,7.67787,16.61379,0.84006,-0.39989,-0.35622,-0.08655,-6.86419,34.60284,-75.04683
0.02828,1.96841,-0.28188,2.98107,1.28439,-0.46485,0.37365,-6.12846,-5.13741,20.56333,6.69040,19.71259,0.82259,-0.44909,-0.32933,-0.11493,10.29365,58.02840,-72.46558
0.08902,1.99153,-0.26808,3.30391,1.37154,-0.12396,-0.20817,-5.14547,-6.52261,20.46501,4.24742,23.10756,0.78938,-0.51250,-0.30704,-0.14125,12.70286,65.48643,-93.14234
0.14979,2.01328,-0.25326,3.55170,1.41587,0.15364,-0.07942,-4.42508,-7.57581,21.38970,3.02611,25.00945,0.75167,-0.56592,-0.28748,-0.17912,42.35884,55.09935,-82.28424
0.21778,2.03505,-0.23004,3.85747,1.44914,0.50154,0.70661,-3.74585,-8.86839,23.18144,1.12861,26.34851,0.69704,-0.61878,-0.27563,-0.23508,90.71523,14.28560,-70.49586
0.29201,2.05441,-0.19956,4.19606,1.43457,0.88916,1.60017,-3.26194,-10.32981,26.32274,-3.70076,29.96813,0.62493,-0.67226,-0.26106,-0.29895,91.90163,-3.75225,-82.68666
0.37399,2.06842,-0.16015,4.58445,1.33446,1.33492,2.76318,-2.68447,-11.87593,30.44782,-11.71773,34.11443,0.53034,-0.72108,-0.25110,-0.36841,102.25830,-24.65266,-91.67142
0.46669,2.06896,-0.10733,5.06655,1.02739,1.90753,3.60242,-1.76397,-13.89008,30.52393,-28.62765,37.20843,0.40331,-0.77413,-0.23778,-0.42606,102.49940,6.73094,-113.71790
0.56100,2.05140,-0.04863,5.46882,0.48123,2.45343,4.73966,-0.39277,-15.24420,26.05555,-49.70140,41.48006,0.26213,-0.80975,-0.23967,-0.46707,129.20360,31.12020,-94.11626
0.65751,2.01122,0.01792,5.77029,-0.34124,2.99189,6.96281,0.08396,-15.84616,14.03932,-67.93858,37.21561,0.11504,-0.80436,-0.25576,-0.52380,143.52280,-73.60112,-63.39463
0.75327,1.94582,0.08877,5.87978,-1.41070,3.44987,9.06370,-0.58543,-15.88073,-2.00627,-84.78813,28.55522,-0.02241,-0.76337,-0.26573,-0.58834,61.59438,-134.28350,-62.83099
0.83597,1.85952,0.15528,5.77355,-2.50156,3.72840,10.35381,-1.05633,-15.96189,-17.43416,-97.66000,15.65106,-0.15848,-0.70986,-0.26529,-0.63293,20.41780,-125.90510,-56.89848
0.89105,1.72578,0.21490,5.29584,-4.12310,3.83451,11.74052,-0.44978,-16.45269,-42.56171,-103.93970,-6.97862,-0.31564,-0.64716,-0.26636,-0.64079,71.51550,-52.55200,-40.68489
0.91777,1.58597,0.25579,4.48939,-5.50512,3.60656,13.44690,1.41688,-16.38640,-72.15346,-89.14952,-29.34661,-0.47722,-0.58227,-0.28079,-0.59530,152.45790,-20.00911,-6.04990
0.91975,1.45154,0.28190,3.48160,-6.45192,3.19801,15.84112,2.72192,-14.44550,-91.87144,-66.89560,-39.08904,-0.60447,-0.49909,-0.33892,-0.52024,178.79900,-165.07020,71.23212
0.87496,1.31433,0.28738,1.93101,-7.21397,2.53798,21.14323,2.72770,-10.10042,-97.10419,-25.40436,-43.82726,-0.69825,-0.35420,-0.48812,-0.38565,215.26340,-315.68800,-68.51511
0.82368,1.20419,0.28777,0.61932,-7.36078,1.93965,23.29413,-0.60787,-6.18274,-88.26087,0.91188,-33.94088,-0.70176,-0.18898,-0.61871,-0.29834,142.54330,-413.95660,-191.88050
0.78435,1.10881,0.29063,-0.15798,-7.23364,1.54433,21.13605,-3.74154,-5.72262,-73.23304,18.31045,-32.32410,-0.68703,-0.05730,-0.66076,-0.29683,-141.61360,-158.21260,-294.57470
0.71847,1.04196,0.27816,-1.17943,-6.66422,0.99131,13.96981,-5.69657,-6.35484,-44.37973,39.42966,-25.27782,-0.64236,-0.02596,-0.64735,-0.40944,-358.13430,159.19530,-201.36160
0.67054,0.98013,0.27686,-1.70094,-6.13180,0.73730,9.23967,-4.82198,-6.31687,-33.26795,39.46793,-14.71468,-0.63171,-0.02169,-0.62032,-0.46440,-302.28230,202.79310,-38.21557
0.62218,0.92101,0.27872,-2.10298,-5.68856,0.59986,6.42899,-4.14195,-5.98727,-33.25577,38.08780,-10.47854,-0.62250,-0.00793,-0.60321,-0.49857,-227.42590,166.35440,1.49505
0.56287,0.87142,0.27916,-2.58987,-5.20903,0.47545,3.83681,-3.41130,-6.47482,-37.32839,32.08596,-8.51631,-0.61109,0.00760,-0.56838,-0.55087,-156.30100,119.02720,-12.84678
0.48928,0.83344,0.27617,-3.21526,-4.62792,0.31992,1.47381,-2.07682,-8.75205,-31.32214,34.79550,-10.10632,-0.60641,0.04179,-0.48240,-0.63072,-63.15735,152.56790,-140.02930
0.42438,0.79275,0.27313,-3.55588,-4.22377,0.19463,0.99061,-1.79781,-9.63701,-22.17715,35.90376,-11.58439,-0.59871,0.09599,-0.42705,-0.67079,-16.51490,79.66615,-103.69460
0.35955,0.76282,0.26548,-3.80577,-3.73920,0.02526,1.11724,-2.03342,-9.78021,-10.94565,35.39307,-12.81500,-0.58775,0.15578,-0.38871,-0.69223,-5.62620,-7.76313,-24.38512
0.30192,0.74221,0.25460,-3.87507,-3.20438,-0.15895,1.40130,-2.57744,-9.22895,3.73153,32.08863,-9.54537,-0.57431,0.21304,-0.36815,-0.69946,-1.41045,-39.35262,18.08796
0.25289,0.71893,0.24633,-3.78878,-2.84360,-0.25863,1.29268,-3.01764,-8.07726,11.28065,28.01396,-6.89030,-0.55718,0.25299,-0.36316,-0.70261,-36.55664,-37.41207,72.52116
0.21188,0.70030,0.23810,-3.58949,-2.49498,-0.33136,0.99869,-3.04919,-6.46769,15.69091,22.43295,-3.61608,-0.54461,0.27186,-0.36987,-0.70191,-46.31648,-10.98017,109.21600
0.17650,0.68260,0.23122,-3.34439,-2.21232,-0.36525,0.88011,-1.92424,-5.30624,16.24835,19.11837,-1.79557,-0.55000,0.27090,-0.35569,-0.70541,-11.95617,52.21970,97.06287
0.14429,0.66680,0.22519,-3.10548,-1.96314,-0.37866,1.10478,-0.24093,-4.62458,16.30070,17.48976,-0.50818,-0.57081,0.26019,-0.32041,-0.70980,48.87956,111.11550,61.92310
0.11323,0.65382,0.21921,-2.90420,-1.72477,-0.38714,1.31300,1.00496,-4.05373,13.06228,16.70744,-0.46124,-0.59046,0.24905,-0.28581,-0.71249,42.59716,89.38943,50.46147
0.08097,0.64236,0.21322,-2.77132,-1.51943,-0.39451,1.34704,1.49089,-3.70969,11.09927,17.59083,-0.36151,-0.60062,0.24724,-0.25766,-0.71536,30.37333,53.30645,34.27809
0.05144,0.63969,0.20638,-2.62440,-1.21765,-0.41460,0.84660,1.22113,-3.23364,8.57827,18.80215,-1.87833,-0.59465,0.24978,-0.24921,-0.72242,-27.18391,-4.52884,33.87447
0.02117,0.63799,0.19832,-2.52063,-0.96540,-0.45017,0.48069,0.70792,-2.98858,7.25683,18.15937,-3.39274,-0.58473,0.26165,-0.24363,-0.72820,-38.32256,-32.11776,20.43716
-0.00828,0.63720,0.18915,-2.42836,-0.75972,-0.49560,0.53029,0.53795,-2.99419,7.15893,17.53942,-4.58723,-0.58208,0.27523,-0.22757,-0.73051,-16.43743,-25.11740,10.28942
-0.03364,0.64174,0.17778,-2.28995,-0.51496,-0.56652,1.15876,0.69998,-3.29247,9.65307,14.04357,-4.25298,-0.59177,0.29247,-0.19471,-0.72550,38.25316,3.25521,-21.89209
-0.05665,0.64539,0.16672,-2.14244,-0.33729,-0.61666,1.64307,0.74415,-3.26927,12.07786,11.44731,-2.68314,-0.60243,0.30646,-0.16843,-0.71749,40.09586,-0.64623,-8.02528
-0.07745,0.64889,0.15656,-1.99522,-0.20497,-0.64030,1.85149,0.70670,-3.06608,12.95106,10.01830,-0.96865,-0.61051,0.31711,-0.14890,-0.71031,23.54903,-8.23235,12.24928
-0.09087,0.65628,0.14741,-1.75730,-0.03730,-0.64173,1.79009,0.43136,-2.48378,13.85611,8.43084,0.75992,-0.61642,0.32406,-0.14453,-0.70294,-1.41144,-14.88347,28.54471
-0.10478,0.66291,0.13925,-1.57768,0.08336,-0.62658,1.48592,-0.00194,-2.03209,12.42398,8.48225,1.56184,-0.61565,0.33398,-0.14652,-0.69854,-23.74408,-30.89916,34.14760
-0.11938,0.66910,0.13152,-1.45635,0.16542,-0.60899,1.23166,-0.30076,-1.82093,11.88524,8.08602,2.13584,-0.61315,0.34545,-0.14566,-0.69534,-27.97952,-29.54559,22.83480
-0.12698,0.67973,0.12576,-1.24774,0.30093,-0.56218,0.95963,-0.42055,-1.77782,10.84948,7.38614,3.38255,-0.60820,0.35633,-0.14165,-0.69502,-19.70917,-10.09261,4.97139
-0.13485,0.68913,0.12094,-1.08573,0.38791,-0.50934,0.95709,-0.07516,-1.99678,11.73226,5.56977,4.36848,-0.60733,0.36351,-0.12183,-0.69582,0.56740,20.57553,-13.11389
-0.13979,0.69836,0.11771,-0.91258,0.45146,-0.44256,0.85097,0.41190,-2.08776,12.83682,3.21081,5.26073,-0.60595,0.36421,-0.10030,-0.70008,3.00293,34.62662,-9.77763
-0.14225,0.70681,0.11566,-0.73817,0.48658,-0.37213,0.51612,0.75435,-2.06555,12.83038,1.03785,4.66100,-0.59987,0.36260,-0.08377,-0.70828,-17.26971,31.46988,1.86332
-0.14246,0.71363,0.11413,-0.56694,0.48530,-0.30981,0.08703,0.89072,-1.68341,12.53713,-1.44779,4.02022,-0.59347,0.35671,-0.07886,-0.71717,-25.29192,15.67930,21.28940
-0.14047,0.71884,0.11260,-0.39922,0.45797,-0.26246,-0.25955,0.93821,-1.20094,11.77366,-2.27836,2.72782,-0.58827,0.34859,-0.07949,-0.72533,-28.08017,5.76601,37.42457
-0.13789,0.72313,0.11063,-0.26294,0.42241,-0.23445,-0.37726,0.98731,-0.86169,11.21041,-3.16053,1.96905,-0.58585,0.34109,-0.07785,-0.73101,-11.36059,6.31203,31.14775
-0.13075,0.72587,0.10916,-0.08180,0.36940,-0.20456,-0.53876,0.91479,-0.48955,12.01315,-3.77542,1.96915,-0.58283,0.33376,-0.08121,-0.73642,-5.03183,-1.04038,23.08433
-0.12232,0.72794,0.10809,0.08051,0.31680,-0.17418,-0.90060,0.72726,-0.08758,11.45647,-4.34624,2.51743,-0.57525,0.32666,-0.09176,-0.74429,-23.72500,-10.88086,28.76197
-0.11327,0.72903,0.10759,0.21331,0.26136,-0.14206,-1.08632,0.63388,0.24483,10.85307,-4.48652,2.85917,-0.56975,0.31821,-0.10137,-0.75090,-21.17895,-10.22278,31.98392
-0.10089,0.72849,0.10803,0.36815,0.19293,-0.10261,-0.99071,0.79519,0.51614,10.70111,-4.35760,2.74522,-0.57023,0.30496,-0.10502,-0.75552,-0.59482,4.99741,22.78446
-0.08460,0.72587,0.10880,0.55714,0.10317,-0.06626,-0.29424,1.42958,0.52997,9.71187,-4.96857,1.44178,-0.58371,0.28573,-0.08961,-0.75472,37.81049,36.85529,-1.99326
-0.07050,0.72372,0.10874,0.66852,0.04100,-0.05229,0.16444,1.83477,0.50249,9.68805,-5.59871,0.68837,-0.59470,0.26868,-0.07526,-0.75397,42.08035,38.91995,-11.00779
-0.05378,0.72022,0.10832,0.79615,-0.02808,-0.04798,0.45318,2.15646,0.62902,9.09907,-4.97748,-0.00904,-0.60549,0.24825,-0.06443,-0.75339,23.39633,25.71253,5.58913
-0.03491,0.71543,0.10772,0.93165,-0.10345,-0.04719,0.69361,2.46618,0.76041,8.57304,-4.76931,0.06062,-0.61659,0.22578,-0.05317,-0.75234,17.62967,21.68380,5.22328
-0.01625,0.71112,0.10710,1.03205,-0.15219,-0.04663,0.71297,2.59158,0.97144,8.85970,-3.89304,-0.08368,-0.62443,0.20330,-0.04765,-0.75265,8.79846,13.60596,12.99531
0.00423,0.70682,0.10624,1.13576,-0.18782,-0.05045,0.58159,2.62706,1.20768,9.00228,-2.64892,-0.83421,-0.62914,0.18020,-0.04618,-0.75470,-3.60710,4.76861,20.74555
0.02838,0.70155,0.10453,1.27835,-0.23001,-0.06661,0.46225,2.69400,1.48252,7.51037,-1.74647,-0.83539,-0.63346,0.15437,-0.04639,-0.75680,-5.70820,0.82702,18.30700
0.05145,0.69730,0.10259,1.37166,-0.24419,-0.08348,0.26351,2.63357,1.74935,8.41373,-1.29895,-2.36458,-0.63542,0.12985,-0.04984,-0.75954,-2.91386,4.39175,12.67355
0.07543,0.69321,0.10005,1.45479,-0.25232,-0.10540,0.00992,2.44332,2.10852,6.36259,-0.23456,-1.70582,-0.63505,0.10534,-0.06072,-0.76284,-18.92792,-21.83494,38.00335
0.10162,0.68938,0.09657,1.55584,-0.25306,-0.13766,-0.10545,2.34794,2.42595,6.09179,0.78878,-2.17386,-0.63610,0.07891,-0.07092,-0.76428,-3.83497,-7.57973,21.14954
0.12775,0.68644,0.09268,1.63443,-0.23734,-0.16932,-0.13289,2.37719,2.56739,5.02913,1.74366,-2.23481,-0.63768,0.05213,-0.07640,-0.76473,-1.46806,-0.79161,14.83144
0.15429,0.68424,0.08823,1.70112,-0.21293,-0.20318,-0.07304,2.52361,2.55660,4.46475,2.22455,-2.56094,-0.64040,0.02493,-0.07636,-0.76383,2.31886,8.91100,0.43648
0.18164,0.68334,0.08310,1.76201,-0.17846,-0.24167,0.03133,2.74695,2.46868,4.09900,2.85468,-2.87271,-0.64396,-0.00316,-0.07214,-0.76164,3.76023,15.47399,-5.68047
0.20944,0.68342,0.07722,1.81628,-0.13563,-0.28351,0.10469,2.97937,2.39619,3.78526,3.28206,-3.22938,-0.64694,-0.03258,-0.06655,-0.75893,1.71031,18.13054,-7.54879
0.23767,0.68469,0.07040,1.86486,-0.08288,-0.33140,0.15933,3.13259,2.42887,3.40496,4.10891,-3.71441,-0.64941,-0.06308,-0.06340,-0.75517,2.74910,13.47872,-0.81313
0.26626,0.68784,0.06238,1.90914,-0.01012,-0.38878,0.17448,3.22592,2.55905,2.37331,4.79849,-3.53079,-0.65061,-0.09497,-0.06309,-0.75081,2.09837,7.07720,7.14415
0.29436,0.69193,0.05417,1.93491,0.06261,-0.43686,0.15494,3.24591,2.71582,1.44544,5.67713,-3.49228,-0.65032,-0.12669,-0.06498,-0.74620,0.95374,1.85499,10.59209
0.32186,0.69768,0.04523,1.94677,0.15055,-0.48567,0.09630,3.26165,2.84554,0.19680,6.90496,-3.32880,-0.64832,-0.15860,-0.06708,-0.74164,-0.94645,-0.40892,11.38808
0.34755,0.70367,0.03603,1.93861,0.24558,-0.52723,-0.02459,3.28074,2.91064,-1.01974,7.02970,-2.71170,-0.64403,-0.19009,-0.06811,-0.73787,-6.47984,1.24963,6.31262
0.37233,0.71109,0.02669,1.91374,0.34290,-0.56230,-0.17420,3.26410,2.96847,-2.10554,7.34112,-2.60351,-0.63774,-0.22098,-0.06961,-0.73458,-9.41657,-2.65103,6.52475
0.39644,0.72124,0.01679,1.87485,0.44592,-0.59851,-0.32770,3.24720,2.99630,-3.44308,7.66219,-2.63103,-0.63004,-0.25132,-0.07048,-0.73138,-9.13349,-3.19933,5.69986
0.41919,0.73348,0.00637,1.81971,0.54871,-0.63518,-0.50181,3.30651,2.89274,-4.66514,7.17068,-2.44122,-0.62124,-0.28076,-0.06684,-0.72854,-12.86026,0.05569,-1.57529
0.44038,0.74649,-0.00433,1.75096,0.64026,-0.66816,-0.66968,3.39246,2.73064,-5.25819,6.24173,-2.37608,-0.61171,-0.30933,-0.06017,-0.72561,-15.49072,3.65066,-9.38553
0.46013,0.76029,-0.01558,1.67301,0.72372,-0.70184,-0.82585,3.48522,2.57864,-6.00573,5.78615,-2.40304,-0.60134,-0.33770,-0.05208,-0.72224,-12.98086,3.56770,-8.03408
0.47829,0.77476,-0.02730,1.58626,0.79834,-0.73532,-0.99274,3.62273,2.37238,-6.60461,5.05108,-2.36307,-0.59017,-0.36560,-0.04036,-0.71861,-15.88977,5.88938,-10.98463
0.49555,0.78915,-0.03916,1.50615,0.85326,-0.76274,-1.15729,3.75449,2.18356,-6.83871,4.20097,-2.18711,-0.57793,-0.39319,-0.02688,-0.71461,-18.16109,8.36979,-12.89063
0.50977,0.80464,-0.05177,1.39378,0.91362,-0.79644,-1.34767,3.91116,1.98076,-7.29837,3.49205,-2.17966,-0.56430,-0.42056,-0.01042,-0.71035,-15.87545,7.31494,-10.67287
0.52378,0.81967,-0.06423,1.30419,0.95234,-0.82011,-1.48096,4.01510,1.85292,-7.70224,2.97505,-1.82651,-0.55014,-0.44758,0.00507,-0.70498,-15.22620,6.56921,-8.24212
0.53521,0.83515,-0.07682,1.19427,0.98885,-0.83997,-1.63994,4.06120,1.74307,-8.05726,2.29810,-1.21905,-0.53427,-0.47320,0.02096,-0.70014,-13.83290,2.76845,-5.74482
0.54304,0.85113,-0.08939,1.04535,1.02660,-0.85550,-1.83890,4.05417,1.65621,-8.58755,1.95396,-0.58452,-0.51637,-0.49738,0.03697,-0.69614,-11.43756,-1.63829,-2.49702
