posX, posY, posZ, velX, velY, velZ, angVelX, angVelY, angVelZ, accX, accY, accZ, rotX, rotY, rotZ, rotW, angAccX, angAccY, angAccZ
0.04247,1.09647,-0.55621,-0.21767,0.17597,-0.10339,1.05777,0.05561,-0.43237,0.43838,2.00980,-0.19485,-0.18043,-0.92972,0.07191,-0.31288,13.41571,-2.30209,-6.80254
0.03975,1.10161,-0.55775,-0.21283,0.22150,-0.10766,1.57593,0.06943,-0.65563,-0.20765,2.71678,-0.79150,-0.19546,-0.92959,0.05491,-0.30765,26.14306,-0.83636,-10.97113
0.03361,1.11042,-0.56118,-0.21631,0.25818,-0.11567,2.11832,0.17111,-0.90068,-0.49147,3.17498,-1.25337,-0.22364,-0.92886,0.02347,-0.29439,40.13438,5.51520,-18.22717
0.03307,1.11321,-0.56197,-0.22634,0.30697,-0.13110,2.86944,0.40057,-1.22295,-0.97837,3.70173,-1.28829,-0.23769,-0.92900,0.00797,-0.28354,53.79593,14.84712,-22.40495
0.02531,1.12620,-0.56665,-0.24790,0.36694,-0.15025,3.55034,0.66058,-1.41255,-1.32944,3.98615,-0.71032,-0.27672,-0.92579,-0.04111,-0.25424,49.09008,16.71818,-13.13149
0.02041,1.13493,-0.56946,-0.26967,0.41618,-0.16466,3.69342,0.74780,-1.31241,-1.36782,3.47879,-0.32651,-0.29044,-0.92414,-0.06528,-0.23948,21.64482,6.61314,3.20753
0.01506,1.14420,-0.57244,-0.29417,0.46208,-0.17937,3.29684,0.65460,-0.94184,-1.39822,2.62967,-0.51802,-0.29085,-0.92443,-0.07754,-0.23414,-18.35266,-7.18978,19.99811
0.00961,1.15320,-0.57557,-0.31571,0.49314,-0.19459,2.66214,0.49385,-0.53724,-1.70610,1.92798,-1.24311,-0.28516,-0.92585,-0.08159,-0.23416,-42.73720,-14.81510,28.45538
0.00385,1.16191,-0.57914,-0.33724,0.51482,-0.21249,2.12245,0.41144,-0.23218,-2.19413,1.55817,-1.99675,-0.27928,-0.92768,-0.08357,-0.23329,-46.73772,-13.30449,27.30648
-0.00345,1.17118,-0.58427,-0.37718,0.54250,-0.24851,1.57047,0.51047,0.05064,-2.47175,1.52369,-2.52395,-0.27126,-0.93151,-0.08064,-0.22848,-33.04242,1.43200,18.81503
-0.01112,1.18080,-0.58933,-0.41614,0.56968,-0.27782,1.40736,0.73609,0.17764,-2.63612,1.69382,-1.70879,-0.26896,-0.93465,-0.08419,-0.21680,-12.35574,12.88499,10.21972
-0.01901,1.19043,-0.59405,-0.45008,0.59387,-0.29382,1.35847,0.90290,0.25514,-2.26621,1.74560,-0.73670,-0.26797,-0.93713,-0.09000,-0.20466,-4.02479,12.83349,7.62730
-0.02707,1.20040,-0.59825,-0.47921,0.61807,-0.29744,1.34504,0.98138,0.32694,-1.97340,1.66657,0.18360,-0.26674,-0.93911,-0.09700,-0.19368,-0.96676,7.22245,5.55989
-0.03531,1.21059,-0.60190,-0.50477,0.64048,-0.29178,1.35021,1.00967,0.38056,-1.77797,1.51709,0.55857,-0.26555,-0.94066,-0.10466,-0.18355,-0.34318,1.31581,5.04792
-0.04384,1.22099,-0.60494,-0.52953,0.66211,-0.27670,1.38150,1.01622,0.41990,-1.33335,1.13598,1.32703,-0.26463,-0.94183,-0.11326,-0.17352,3.88568,1.34347,1.38003
-0.05213,1.23097,-0.60779,-0.54453,0.67301,-0.26147,1.32537,0.95281,0.47037,-1.14201,0.69151,1.47977,-0.26240,-0.94293,-0.12020,-0.16611,-2.08950,-3.91498,3.84430
-0.06058,1.24092,-0.60991,-0.55896,0.68026,-0.23829,1.21899,0.85126,0.50192,-0.71088,0.29251,1.51778,-0.25984,-0.94385,-0.12568,-0.16073,-6.20164,-6.13057,2.05291
-0.06891,1.25067,-0.61183,-0.56816,0.68434,-0.21537,1.08415,0.74226,0.52393,-0.56799,0.24408,1.34924,-0.25696,-0.94477,-0.12991,-0.15656,-8.95281,-7.67868,1.95509
-0.07725,1.26044,-0.61353,-0.57569,0.68714,-0.19438,1.05777,0.70785,0.49071,-0.64673,0.13868,1.38245,-0.25599,-0.94521,-0.13561,-0.15055,-3.89793,-3.74383,-1.13891
-0.08566,1.27023,-0.61506,-0.58256,0.68980,-0.17549,1.13778,0.75364,0.40786,-0.74337,0.27637,1.36694,-0.25736,-0.94504,-0.14324,-0.14195,2.57765,0.97035,-5.27463
-0.09432,1.28003,-0.61606,-0.59154,0.69268,-0.15209,1.29025,0.84457,0.29028,-0.51893,0.09873,1.84463,-0.26095,-0.94412,-0.15279,-0.13113,10.42984,8.18725,-8.47140
-0.10285,1.28972,-0.61634,-0.59642,0.69304,-0.12164,1.43010,0.88780,0.14928,-0.05034,-0.06003,2.12569,-0.26583,-0.94241,-0.16290,-0.12110,8.55570,4.24579,-8.63897
-0.11111,1.29934,-0.61670,-0.59560,0.69209,-0.10006,1.47420,0.86144,0.08379,0.35829,-0.15617,2.47202,-0.26902,-0.94089,-0.17195,-0.11307,7.49699,2.18436,-9.14807
-0.11898,1.30870,-0.61583,-0.58891,0.68754,-0.06371,1.41667,0.67838,0.02517,0.63386,-0.39911,2.34242,-0.27140,-0.93906,-0.17969,-0.11056,-2.57662,-10.29450,-4.88080
-0.12659,1.31794,-0.61497,-0.57957,0.68192,-0.03534,1.26029,0.45512,0.02437,0.81056,-0.39488,1.99040,-0.27164,-0.93788,-0.18510,-0.11104,-8.61631,-13.94199,-2.35423
-0.13416,1.32719,-0.61407,-0.57183,0.67779,-0.01272,1.02061,0.20826,0.08204,0.11412,-0.03543,0.82040,-0.26934,-0.93757,-0.18797,-0.11440,-16.16594,-18.85157,3.23708
-0.14195,1.33663,-0.61359,-0.56955,0.67852,-0.00186,0.98965,0.21010,0.04681,-0.16768,0.24998,0.37274,-0.27071,-0.93646,-0.19323,-0.11149,-9.14309,-6.26932,0.23353
-0.14981,1.34632,-0.61300,-0.56943,0.68355,0.00858,1.16692,0.41939,-0.11338,-0.11570,0.48457,0.44605,-0.27755,-0.93372,-0.20192,-0.10179,9.21725,12.25532,-8.42868
-0.15762,1.35625,-0.61224,-0.56798,0.69095,0.01932,1.41667,0.66649,-0.30448,0.11846,0.63654,0.92070,-0.28702,-0.92973,-0.21279,-0.08912,16.46100,17.89153,-12.19572
-0.16531,1.36641,-0.61094,-0.56464,0.69987,0.03591,1.60550,0.80350,-0.44211,0.62310,0.66831,1.72838,-0.29600,-0.92528,-0.22405,-0.07769,16.72035,15.50981,-11.74724
-0.17281,1.37680,-0.60908,-0.55883,0.71070,0.05783,1.63919,0.73816,-0.46884,0.62053,0.77005,1.82043,-0.30147,-0.92157,-0.23391,-0.07147,4.90468,-1.31461,-3.87895
-0.18011,1.38733,-0.60702,-0.55094,0.72350,0.07992,1.55139,0.56905,-0.41818,0.49762,0.84774,1.16372,-0.30395,-0.91887,-0.24191,-0.06907,-4.81389,-11.01801,1.82439
-0.18733,1.39772,-0.60544,-0.54403,0.73617,0.09217,1.42806,0.44732,-0.35841,0.49311,1.02562,0.77149,-0.30575,-0.91672,-0.24838,-0.06674,-7.67235,-8.57038,3.40854
-0.19457,1.40847,-0.60396,-0.53900,0.75156,0.10010,1.28925,0.35872,-0.29089,0.14811,1.37723,0.40146,-0.30682,-0.91507,-0.25364,-0.06460,-10.91349,-8.48476,4.58118
-0.20193,1.41991,-0.60226,-0.53675,0.77228,0.10785,1.27956,0.37472,-0.25537,-0.01121,1.77421,0.43318,-0.30896,-0.91274,-0.26058,-0.05959,-4.27180,-1.62312,3.62634
-0.20921,1.43182,-0.60036,-0.53356,0.79708,0.11828,1.41721,0.50603,-0.28724,0.22637,1.97852,0.74363,-0.31370,-0.90888,-0.27013,-0.05050,7.73027,7.79078,-0.85727
-0.21634,1.44403,-0.59831,-0.52842,0.81958,0.12804,1.52147,0.60155,-0.30985,0.70705,1.83843,1.04168,-0.31843,-0.90478,-0.27976,-0.04136,11.86979,10.48627,-2.74935
-0.22307,1.45704,-0.59589,-0.51759,0.84966,0.14130,1.51695,0.56654,-0.28556,0.74926,1.94896,1.01570,-0.32115,-0.90142,-0.28819,-0.03551,0.81824,-0.60309,-0.05853
-0.22994,1.47032,-0.59333,-0.51168,0.87797,0.15453,1.47554,0.51050,-0.21458,0.22841,2.17571,0.99051,-0.32211,-0.89876,-0.29588,-0.03046,-3.28709,-5.12240,4.54232
-0.23699,1.48373,-0.59061,-0.51018,0.89983,0.16600,1.51373,0.50992,-0.16261,-0.02289,2.45123,1.13215,-0.32340,-0.89545,-0.30500,-0.02366,-0.46446,-3.33701,5.54741
-0.24418,1.49846,-0.58689,-0.51161,0.93682,0.19020,1.68356,0.57734,-0.08922,-0.19983,2.24568,1.65892,-0.32442,-0.89102,-0.31726,-0.01332,10.75198,4.35348,4.64125
-0.25155,1.51333,-0.58273,-0.51582,0.96822,0.21606,1.81256,0.61995,0.02904,-0.19493,1.72177,1.61978,-0.32371,-0.88692,-0.32952,-0.00275,9.67780,2.13879,6.98205
-0.25883,1.52779,-0.57886,-0.51735,0.98471,0.23079,1.85061,0.64662,0.14748,-0.00252,1.57025,1.49713,-0.32203,-0.88349,-0.34013,0.00735,5.54837,0.77738,8.85294
-0.26613,1.54268,-0.57425,-0.51815,1.00565,0.25561,1.83928,0.64549,0.39327,0.10338,0.95294,1.83188,-0.31589,-0.88173,-0.34992,0.01804,1.48953,-0.33286,14.12056
-0.27328,1.55702,-0.56924,-0.51545,1.01504,0.28397,1.69071,0.49526,0.68651,0.55673,0.10986,2.03373,-0.30567,-0.88219,-0.35736,0.02449,-7.70943,-10.31856,18.66819
-0.27998,1.57087,-0.56396,-0.50628,1.01255,0.30927,1.57128,0.34363,0.83043,0.89936,-0.56025,2.27475,-0.29713,-0.88190,-0.36485,0.02914,-10.21751,-14.31069,13.84316
-0.28590,1.58398,-0.55744,-0.48640,0.99602,0.34705,1.50712,0.19827,0.89467,1.39258,-1.43693,2.25661,-0.28933,-0.88087,-0.37321,0.03276,-5.17186,-11.75253,5.21450
-0.29111,1.59603,-0.55057,-0.45787,0.96490,0.38304,1.54236,0.16736,0.80885,1.85554,-2.33707,2.04194,-0.28580,-0.87760,-0.38301,0.03798,2.19779,-2.25435,-4.85209
-0.29613,1.60771,-0.54395,-0.43364,0.93446,0.40566,1.60842,0.18530,0.71366,2.09350,-2.77010,1.64894,-0.28340,-0.87346,-0.39343,0.04426,4.18556,1.12912,-7.26064
-0.30028,1.61791,-0.53752,-0.40071,0.89192,0.42576,1.69097,0.24621,0.55987,2.48786,-3.16394,1.36381,-0.28355,-0.86807,-0.40427,0.05117,5.33832,5.13485,-9.27751
-0.30375,1.62734,-0.53110,-0.36389,0.84675,0.44164,1.75568,0.30871,0.37006,2.72693,-3.26117,1.12021,-0.28571,-0.86184,-0.41506,0.05768,5.19138,6.45519,-13.28537
-0.30667,1.63630,-0.52464,-0.32661,0.80193,0.45212,1.69231,0.26440,0.18883,2.81976,-3.30677,0.78990,-0.28793,-0.85660,-0.42387,0.06053,-1.31537,2.29837,-12.92781
-0.30949,1.64480,-0.51848,-0.29413,0.76000,0.45749,1.55284,0.15721,0.04311,2.01676,-2.78433,0.31220,-0.28956,-0.85252,-0.43093,0.06045,-11.02421,-7.78658,-11.74911
-0.31241,1.65304,-0.51228,-0.27124,0.72339,0.46236,1.50570,0.15532,-0.07430,1.04820,-2.16099,0.45282,-0.29211,-0.84750,-0.43872,0.06269,-7.02089,-2.59689,-9.23437
-0.31561,1.66132,-0.50531,-0.26000,0.69465,0.47601,1.68203,0.32850,-0.15537,0.37810,-1.51400,1.21374,-0.29613,-0.83939,-0.45018,0.07121,8.57287,10.27403,-5.73494
-0.31903,1.66969,-0.49754,-0.25606,0.67298,0.49769,2.00467,0.58504,-0.20437,0.17944,-1.39673,1.64382,-0.30090,-0.82826,-0.46507,0.08462,21.79294,17.68422,-2.83985
-0.32239,1.67807,-0.48964,-0.25184,0.65694,0.51573,2.23573,0.75132,-0.24525,0.70340,-1.37571,1.54152,-0.30534,-0.81681,-0.47972,0.09724,22.78003,17.01818,-1.74981
-0.32544,1.68619,-0.48140,-0.24385,0.64003,0.53466,2.30124,0.76340,-0.26868,0.64386,-1.13642,1.25933,-0.30836,-0.80686,-0.49255,0.10622,7.49019,4.89435,-2.35085
-0.32867,1.69454,-0.47324,-0.24057,0.63065,0.54799,2.24499,0.70704,-0.24869,0.02245,-0.35283,0.90189,-0.30970,-0.79889,-0.50312,0.11284,-4.72806,-6.42061,-0.17720
-0.33203,1.70309,-0.46494,-0.24020,0.62672,0.56031,2.21967,0.69452,-0.18478,0.06189,-0.37068,1.21444,-0.31012,-0.79082,-0.51358,0.12113,-1.02772,0.16739,3.64344
-0.33560,1.71161,-0.45594,-0.24352,0.62351,0.58056,2.04089,0.49384,-0.05686,-0.11756,-0.05165,1.45527,-0.30640,-0.78642,-0.52170,0.12447,-11.12821,-12.81081,6.93536
-0.33904,1.72026,-0.44633,-0.24391,0.62337,0.60646,1.92637,0.36297,0.06877,0.13593,0.04231,1.71281,-0.30230,-0.78172,-0.53000,0.12896,-7.75224,-9.97223,7.17019
-0.34220,1.72893,-0.43680,-0.23950,0.62319,0.62450,1.87826,0.31160,0.10416,0.62300,-0.05053,1.85896,-0.30009,-0.77562,-0.53886,0.13411,-5.07964,-6.49471,5.35331
-0.34469,1.73739,-0.42608,-0.22492,0.61969,0.65824,1.87530,0.32737,0.09446,1.06103,-0.30254,2.35803,-0.29933,-0.76842,-0.54797,0.14023,-1.84785,-0.53740,0.68090
-0.34672,1.74550,-0.41441,-0.20460,0.61138,0.70119,1.98045,0.43052,0.01704,1.21149,-0.48438,2.99150,-0.30107,-0.75835,-0.55881,0.14827,4.87161,5.95724,-4.23522
-0.34887,1.75363,-0.40271,-0.19220,0.60526,0.73387,2.11146,0.53531,-0.02705,1.14586,-0.46983,3.48418,-0.30265,-0.74713,-0.57040,0.15759,10.00070,9.16814,-4.30999
-0.35056,1.76142,-0.38872,-0.17454,0.59494,0.79663,2.44333,0.75194,-0.04906,1.05757,-0.57861,4.39107,-0.30504,-0.73102,-0.58559,0.17221,19.44863,13.44651,-1.16932
-0.35240,1.76897,-0.37366,-0.16285,0.58290,0.86344,2.77595,0.85270,0.00321,1.00343,-1.04577,5.22554,-0.30425,-0.71391,-0.60231,0.18705,24.86646,11.21586,2.84918
-0.35434,1.77639,-0.35839,-0.15615,0.57181,0.91616,2.97640,0.79410,0.06450,0.90562,-1.28748,5.50833,-0.30066,-0.69805,-0.61877,0.19864,22.09453,-0.58568,4.24983
-0.35607,1.78263,-0.33968,-0.14870,0.54334,1.01315,3.19515,0.41219,0.21616,0.57545,-2.23616,5.29775,-0.28834,-0.68305,-0.63889,0.20521,15.71024,-18.68340,4.64593
-0.35804,1.78862,-0.32221,-0.14715,0.51719,1.06881,3.16903,-0.02811,0.29915,0.29305,-2.64407,4.04450,-0.27503,-0.67208,-0.65588,0.20612,2.69514,-35.74416,0.43318
-0.35939,1.79339,-0.30431,-0.13515,0.47697,1.11821,2.98022,-0.54238,0.32009,0.90729,-2.69810,2.16197,-0.26006,-0.66480,-0.67084,0.20096,-10.67127,-35.52692,-5.05961
-0.35999,1.79772,-0.28733,-0.11349,0.43806,1.14167,2.89425,-0.72299,0.31379,1.56317,-2.80163,1.12468,-0.24904,-0.65475,-0.68487,0.20057,-8.28853,-18.06817,-3.66816
-0.36006,1.80158,-0.27085,-0.08847,0.40099,1.15120,2.94747,-0.66684,0.31511,1.94564,-2.95459,0.41156,-0.24075,-0.64100,-0.69930,0.20528,0.11601,-1.73817,-1.26628
-0.35920,1.80433,-0.25473,-0.05432,0.35487,1.15261,3.11958,-0.42618,0.35545,2.56987,-3.46811,-0.36154,-0.23464,-0.62320,-0.71412,0.21586,12.42629,13.46766,4.65575
-0.35674,1.80537,-0.23937,-0.00023,0.28919,1.14066,3.34724,0.00239,0.41608,3.26962,-4.13648,-1.11185,-0.23196,-0.60176,-0.72810,0.23227,13.81907,23.47956,9.16444
-0.35453,1.80658,-0.22439,0.03760,0.24128,1.12521,3.41828,0.20533,0.39399,3.34564,-4.16666,-1.49195,-0.22877,-0.58230,-0.74109,0.24368,7.99581,20.75120,3.34427
-0.35149,1.80672,-0.21014,0.07952,0.18747,1.10142,3.31483,0.21866,0.27318,3.20743,-4.03895,-1.89932,-0.22573,-0.56602,-0.75271,0.24918,-2.29619,8.24201,-4.07367
-0.34832,1.80648,-0.19640,0.11390,0.13993,1.07484,3.06686,0.01195,0.07561,2.25053,-3.10732,-1.89797,-0.22115,-0.55417,-0.76352,0.24703,-16.90188,-9.05177,-15.77204
-0.34542,1.80618,-0.18304,0.13555,0.10257,1.04789,2.82931,-0.25281,-0.05348,0.87115,-2.20191,-1.89786,-0.21405,-0.54423,-0.77394,0.24295,-18.61459,-16.69036,-15.48002
-0.34314,1.80589,-0.17007,0.14186,0.07396,1.02095,2.64078,-0.52782,-0.07843,0.06164,-1.85917,-1.93568,-0.20387,-0.53530,-0.78400,0.23924,-12.66451,-17.84574,-5.54618
-0.34174,1.80541,-0.15776,0.13178,0.04863,0.98849,2.46360,-0.85290,-0.04973,-1.36174,-1.15581,-2.18610,-0.19052,-0.52803,-0.79370,0.23436,-12.10421,-21.08735,-4.97938
-0.34089,1.80531,-0.14560,0.11493,0.03554,0.96141,2.40122,-1.00880,0.10914,-1.79122,-0.70157,-2.26443,-0.17626,-0.51918,-0.80270,0.23466,-8.42303,-16.76449,6.27574
-0.34088,1.80511,-0.13468,0.08778,0.02368,0.91893,2.34215,-1.23686,0.42266,-1.17311,-0.78942,-2.56215,-0.15648,-0.51211,-0.81045,0.23754,-3.36262,-14.49407,16.74850
-0.33947,1.80506,-0.11169,0.07310,0.01346,0.88220,2.23137,-1.48011,0.50244,-0.59781,-0.82140,-2.72713,-0.12438,-0.49586,-0.82661,0.23529,-7.27106,-17.80814,5.95842
-0.33903,1.80436,-0.10262,0.06497,0.00055,0.83553,2.08278,-1.75462,0.45419,-0.19650,-1.03442,-3.30187,-0.10494,-0.49172,-0.83388,0.22769,-7.61106,-17.57383,-5.06916
-0.33823,1.80345,-0.09426,0.06342,-0.01288,0.78701,1.94092,-1.94125,0.31026,-0.05531,-0.88820,-3.73101,-0.08843,-0.48723,-0.84107,0.21770,-9.20112,-13.66167,-13.76607
-0.33701,1.80258,-0.08753,0.06850,-0.02294,0.72407,1.80550,-1.99927,0.17828,0.19930,-0.17360,-4.16252,-0.07482,-0.48252,-0.84736,0.20870,-7.47272,-4.62557,-12.43772
-0.33553,1.80229,-0.08115,0.07653,-0.02229,0.66838,1.77978,-1.87965,0.26134,0.33145,0.55349,-3.79267,-0.06188,-0.47514,-0.85273,0.20802,-4.55849,5.46487,1.90213
-0.33401,1.80248,-0.07526,0.08333,-0.01478,0.61709,1.81692,-1.71499,0.48322,0.28937,0.77110,-3.46031,-0.04785,-0.46606,-0.85739,0.21303,-0.46009,9.79104,15.38634
-0.33265,1.80313,-0.06998,0.08626,-0.00151,0.56663,1.87975,-1.58132,0.80310,0.07795,0.87846,-2.83185,-0.03140,-0.45617,-0.86118,0.22204,1.65832,7.30876,22.04910
-0.33179,1.80399,-0.06484,0.08068,0.01217,0.52351,1.88556,-1.62480,1.03633,-0.49917,0.65593,-2.64156,-0.01168,-0.44803,-0.86442,0.22784,-0.35843,-2.67679,15.58038
-0.33148,1.80473,-0.05983,0.06753,0.02132,0.48703,1.83457,-1.79357,1.13079,-0.99634,0.55141,-2.58822,0.00985,-0.44182,-0.86732,0.22902,-2.93806,-10.84371,7.90102
-0.33154,1.80552,-0.05504,0.05182,0.02906,0.45585,1.75239,-2.02411,1.14125,-1.34002,0.56640,-2.62062,0.03288,-0.43718,-0.86968,0.22684,-4.71853,-17.22186,0.20977
-0.33254,1.80653,-0.05137,0.02471,0.03863,0.41375,1.65782,-2.40985,1.10759,-1.92016,0.72874,-2.62463,0.06066,-0.43443,-0.87124,0.22029,-3.75086,-23.52415,-6.09492
-0.33411,1.80785,-0.04834,-0.00636,0.05126,0.36949,1.57721,-2.85058,1.09938,-2.00710,0.83163,-2.99265,0.09214,-0.43224,-0.87155,0.21233,-2.53441,-27.16140,-3.51098
-0.33527,1.80897,-0.04480,-0.02312,0.05767,0.34433,1.53221,-3.08888,1.09177,-2.17755,0.77008,-3.34828,0.12113,-0.42870,-0.87137,0.20558,-2.50423,-28.21122,-5.48325
-0.33802,1.81060,-0.04443,-0.06054,0.07041,0.27570,1.41163,-3.65401,1.01370,-1.89595,0.64167,-4.40501,0.15904,-0.42945,-0.86820,0.19109,-2.87240,-31.45583,-7.79720
-0.34054,1.81216,-0.04542,-0.08746,0.07969,0.19739,1.31198,-4.17515,0.89951,-1.29274,0.55314,-5.51031,0.19753,-0.43005,-0.86351,0.17431,-1.75388,-32.40649,-10.89800
-0.34235,1.81378,-0.04767,-0.09675,0.08814,0.11526,1.25217,-4.58570,0.77731,-0.00108,0.70555,-6.30549,0.23544,-0.42963,-0.85761,0.15651,-0.85412,-29.43037,-11.50194
-0.34312,1.81569,-0.05167,-0.08688,0.09935,0.02323,1.21486,-4.93822,0.68557,1.31512,0.97229,-7.03702,0.27398,-0.42842,-0.84991,0.13800,1.63038,-25.75702,-10.58792
-0.34246,1.81798,-0.05753,-0.05596,0.11426,-0.07798,1.19380,-5.20654,0.64545,3.00957,1.23898,-7.61319,0.31240,-0.42612,-0.84047,0.12016,0.20579,-21.17298,-5.45244
-0.33994,1.82078,-0.06517,-0.00228,0.13481,-0.18507,1.13687,-5.39015,0.66257,4.44114,1.83766,-7.95610,0.35011,-0.42371,-0.82890,0.10397,-1.00684,-14.38493,-2.40600
-0.33522,1.82413,-0.07458,0.07164,0.16271,-0.29597,0.99646,-5.51822,0.76487,6.05934,2.34992,-8.22364,0.38761,-0.42235,-0.81431,0.09091,-9.23714,-10.58006,2.83174
-0.32802,1.82845,-0.08562,0.16908,0.20004,-0.40872,0.79166,-5.63199,0.74836,8.01376,2.99850,-8.15776,0.42324,-0.42354,-0.79731,0.07604,-14.04416,-8.84743,-2.90201
-0.31708,1.83425,-0.09887,0.31046,0.25134,-0.53385,0.48803,-5.68647,0.74159,9.83082,3.35393,-7.59868,0.45689,-0.42749,-0.77752,0.06299,-17.28132,-5.57246,-8.72285
-0.30375,1.84073,-0.11270,0.46266,0.30180,-0.64156,0.17458,-5.76317,0.55242,12.46129,3.78285,-8.16831,0.48816,-0.43416,-0.75569,0.04630,-13.32616,-2.90700,-8.90752
-0.28826,1.84766,-0.12711,0.61250,0.34681,-0.73215,-0.11434,-5.83657,0.39709,12.83833,3.82272,-7.51332,0.51855,-0.44180,-0.73147,0.02955,-17.25697,-8.18559,-30.88656
-0.26588,1.85578,-0.14453,0.84225,0.40098,-0.85153,-0.53963,-5.95703,0.31896,15.96128,3.10792,-7.30345,0.54950,-0.45292,-0.70190,0.01585,-24.63215,-7.95483,-12.73593
-0.23995,1.86377,-0.16231,1.08150,0.44127,-0.95083,-0.82138,-6.07343,0.16278,18.73516,2.66743,-6.68895,0.57878,-0.46304,-0.67128,-0.00073,-15.69143,-9.32995,-17.47984
-0.21025,1.87171,-0.18000,1.32367,0.47089,-1.02412,-0.99091,-6.13297,0.01104,22.22786,2.32617,-5.45801,0.60599,-0.47171,-0.64027,-0.01803,-12.08275,-8.28062,-16.58484
-0.16863,1.88121,-0.19838,1.70713,0.52000,-1.09090,-1.06774,-6.09085,-0.38797,26.33903,4.08541,-2.59849,0.62661,-0.48262,-0.61055,-0.04082,3.45024,-0.45643,-21.59732
-0.12188,1.89308,-0.21429,2.09239,0.59834,-1.10187,-1.16618,-5.86478,-1.10280,30.29521,7.07217,0.76377,0.63691,-0.50015,-0.58269,-0.06832,10.78802,8.41073,-38.61483
-0.07422,1.90666,-0.22817,2.39282,0.68380,-1.07807,-1.28263,-5.62617,-1.99274,31.94518,9.66913,3.47898,0.63895,-0.52411,-0.55394,-0.10105,19.94228,14.48825,-69.14577
-0.00460,1.92837,-0.23641,2.98158,0.88156,-0.96651,-1.90616,-4.93254,-4.14447,36.30014,11.49908,8.03720,0.60648,-0.58234,-0.52159,-0.14494,11.04568,24.75706,-117.38230
0.06787,1.94973,-0.24158,3.49983,1.03286,-0.82766,-2.40921,-4.11816,-6.34849,39.80357,9.37505,10.90185,0.55654,-0.64585,-0.48664,-0.19058,22.46173,31.26084,-161.26850
0.15135,1.96947,-0.24292,4.08083,1.12027,-0.65750,-2.94773,-3.03352,-8.83104,44.47753,1.75186,12.58593,0.47840,-0.71856,-0.44632,-0.23580,28.74918,40.85696,-183.65280
0.24547,1.98124,-0.24138,4.70193,1.05287,-0.47924,-3.57482,-1.95394,-11.35188,42.29728,-11.60232,12.62095,0.37617,-0.79211,-0.39276,-0.27714,34.37878,38.90260,-202.56040
0.34665,1.97680,-0.23723,5.29649,0.72863,-0.29920,-3.65901,-0.87875,-13.07951,42.72689,-35.93182,13.02713,0.26769,-0.84546,-0.34300,-0.30967,32.04943,38.11737,-132.59500
0.45405,1.94180,-0.22857,5.85957,-0.04255,-0.08150,-2.92824,0.36150,-14.33003,24.33767,-56.98722,15.83150,0.14667,-0.87736,-0.30839,-0.33707,77.89957,9.69873,-118.35110
0.54775,1.89667,-0.21865,6.06083,-0.79647,0.10549,-1.85823,0.51178,-14.34484,8.22416,-66.74273,17.55855,0.05521,-0.88347,-0.28157,-0.37035,79.85454,-36.90304,-19.12184
0.63060,1.81980,-0.20162,6.02779,-1.90808,0.36809,-0.33341,-0.03658,-13.79622,-11.28728,-71.54749,15.97802,-0.02046,-0.86849,-0.26946,-0.41558,38.60165,-96.92683,35.74149
0.70079,1.73558,-0.18386,5.78726,-2.89545,0.58389,0.64841,0.13067,-13.66419,-22.91688,-71.68385,12.59084,-0.10948,-0.85384,-0.25223,-0.44198,42.89436,-64.28017,20.43068
0.76121,1.64504,-0.16697,5.44769,-3.74268,0.73098,1.53203,0.90163,-13.99365,-34.48226,-72.12180,9.79160,-0.21714,-0.83455,-0.23317,-0.44946,80.10580,-18.86252,-17.53575
0.80191,1.53433,-0.14975,4.86235,-4.71227,0.84644,2.87698,1.74053,-14.74717,-50.42123,-67.25150,5.83238,-0.34460,-0.79612,-0.21936,-0.44646,105.17560,-23.79640,-56.89648
0.81215,1.41346,-0.13467,3.90556,-5.66094,0.90827,5.58876,2.95156,-15.40096,-69.66065,-50.19011,-0.48843,-0.49021,-0.72933,-0.23504,-0.41537,134.88920,-54.27884,-77.97317
0.81152,1.30901,-0.12214,2.99815,-6.14148,0.91816,8.96143,3.82270,-15.05991,-79.24190,-28.32023,0.57853,-0.61939,-0.63862,-0.28333,-0.35810,221.16220,-134.16800,-79.94748
0.78521,1.21530,-0.11037,1.87200,-6.33128,0.90384,11.36399,2.55292,-14.17383,-78.77582,2.56247,2.48210,-0.70571,-0.52484,-0.34250,-0.33046,111.85570,-203.90890,-88.79176
0.73839,1.14560,-0.10045,0.64661,-6.02379,0.85477,10.32833,-0.93726,-12.32973,-72.77306,31.82761,-3.89152,-0.71632,-0.44065,-0.38533,-0.37978,-199.34700,-181.68720,-17.40590
0.70749,1.09478,-0.09174,-0.01742,-5.45988,0.80023,6.85017,-2.21724,-9.17822,-26.34729,59.15260,4.93408,-0.68892,-0.43968,-0.38911,-0.42505,-254.12120,-16.38703,19.91267
0.68978,1.05821,-0.08143,-0.29862,-4.81783,0.78463,1.42568,-2.51274,-6.65981,-22.37055,52.49783,-6.38614,-0.62795,-0.48859,-0.33544,-0.50441,-521.19300,66.93730,293.19960
0.67151,1.03724,-0.07365,-0.52471,-4.06945,0.72943,-1.84187,-1.09188,-3.03496,-14.45191,39.46254,-3.88910,-0.56071,-0.57428,-0.29571,-0.51804,-201.96460,168.62360,235.12680
0.65372,1.00740,-0.06575,-0.69337,-3.62220,0.68430,-4.65424,-0.16902,-1.94095,-13.15691,26.14488,-3.81904,-0.51053,-0.61965,-0.22740,-0.55107,-200.42020,122.96510,79.34283
0.63478,0.97165,-0.05738,-0.84027,-3.38003,0.65892,-5.93358,0.28856,-1.76376,-14.25290,16.01746,-4.44388,-0.47906,-0.63797,-0.16886,-0.57878,-147.36940,83.17852,12.25149
0.60905,0.93555,-0.05003,-1.06410,-3.20157,0.62640,-5.70772,0.27268,-2.03057,-14.75423,7.70791,-3.16081,-0.47151,-0.63350,-0.13448,-0.59856,8.37251,-11.11101,-13.64397
0.58061,0.89570,-0.04441,-1.28677,-3.12139,0.57283,-4.82323,0.15964,-2.58740,-13.14351,3.57064,-5.45254,-0.48124,-0.61781,-0.10942,-0.61217,35.60210,-26.56033,-34.45167
0.55175,0.85404,-0.04018,-1.46909,-3.08964,0.50795,-3.27854,0.13736,-2.93721,-13.10757,1.74736,-5.22265,-0.50519,-0.60063,-0.10095,-0.61142,102.89670,-27.50597,-21.75502
0.52011,0.81242,-0.03720,-1.65200,-3.06240,0.43731,-2.03996,0.15236,-3.37806,-13.41128,2.45489,-3.94660,-0.53326,-0.58069,-0.08989,-0.60856,100.06200,-24.38873,-27.69342
0.48708,0.77199,-0.03440,-1.81138,-3.02203,0.38063,-1.59209,0.14590,-3.91543,-13.48969,4.57990,-4.05296,-0.55536,-0.55856,-0.06582,-0.61258,53.70881,-17.75594,-40.17839
0.44911,0.73625,-0.03398,-2.01430,-2.91238,0.29702,-1.33267,0.19360,-4.49474,-11.30595,9.49927,-5.94444,-0.57800,-0.53385,-0.03578,-0.61615,15.32643,-5.67741,-41.21112
0.41206,0.70540,-0.03531,-2.15661,-2.74543,0.20237,-1.02232,0.33968,-4.51826,-7.41137,14.20379,-7.88537,-0.59529,-0.51759,-0.01311,-0.61445,18.14193,0.45374,-16.22011
0.37640,0.67840,-0.03809,-2.24157,-2.55810,0.10768,-0.60915,0.58106,-4.08325,-5.56044,16.49211,-7.97259,-0.60871,-0.51154,0.00026,-0.60647,38.31577,8.84416,26.27682
0.34088,0.65661,-0.04290,-2.30379,-2.33310,0.00352,-0.40787,1.00392,-3.67553,-3.69001,15.37914,-6.03608,-0.61886,-0.51160,0.01820,-0.59577,29.12748,22.57337,33.97037
0.30541,0.63728,-0.04723,-2.35110,-2.11626,-0.06913,-0.37065,1.41743,-3.82128,-3.55094,13.04072,-2.94387,-0.63294,-0.50447,0.04827,-0.58530,9.83903,28.29900,-2.09554
0.27022,0.61719,-0.04938,-2.38452,-1.96188,-0.08973,-0.27424,1.51643,-4.23928,-2.05947,13.40150,-1.22505,-0.65164,-0.48653,0.07914,-0.57654,2.08328,11.39638,-29.95256
0.23632,0.60246,-0.05053,-2.39020,-1.75738,-0.08888,-0.14140,1.33840,-4.69114,1.13779,17.06127,0.50832,-0.67287,-0.46070,0.10706,-0.56880,23.34748,7.49829,-44.96738
0.20586,0.59759,-0.05185,-2.34024,-1.43277,-0.09073,-0.20704,0.90238,-4.44041,7.75844,21.77252,0.13626,-0.68226,-0.44074,0.12057,-0.57073,-11.50434,-36.07395,10.28096
0.18139,0.59616,-0.05351,-2.20220,-1.12272,-0.09761,-0.32793,0.82529,-3.60336,12.23305,22.04109,-0.97297,-0.68155,-0.43865,0.12917,-0.57131,-11.01171,-0.15122,55.29380
0.16004,0.59603,-0.05527,-2.04847,-0.86800,-0.10421,-0.26818,0.66910,-2.82092,13.66712,20.34023,-0.44011,-0.68173,-0.43836,0.13079,-0.57095,3.73362,-9.58632,67.80164
0.14735,0.60302,-0.05613,-1.78372,-0.55044,-0.09435,-0.30853,0.24395,-2.03978,15.19639,16.21544,0.91522,-0.67895,-0.43645,0.12462,-0.57707,-3.10624,-20.13205,46.96309
0.13366,0.60609,-0.05691,-1.59449,-0.36811,-0.08573,-0.34270,-0.18772,-1.66830,16.66659,14.72166,0.00122,-0.67950,-0.42754,0.12073,-0.58388,-9.81650,-31.47377,30.42286
0.12624,0.61279,-0.05839,-1.34806,-0.17062,-0.09083,-0.34509,-0.59437,-1.06764,19.22863,13.38090,-0.41106,-0.67663,-0.42358,0.10907,-0.59233,-0.64936,-34.49766,39.15029
0.12607,0.62223,-0.06133,-1.03552,0.03088,-0.12011,-0.55706,-0.64126,-0.26080,19.94843,11.85822,-2.79537,-0.66487,-0.43031,0.09960,-0.60238,-16.82683,-4.30864,49.41532
0.12560,0.63037,-0.06553,-0.80135,0.16221,-0.16332,-0.62166,-0.55009,0.36470,19.37368,10.10788,-4.43358,-0.65410,-0.43975,0.09118,-0.60866,-11.58927,7.75825,52.48755
0.13021,0.63994,-0.07172,-0.54046,0.28400,-0.22879,-0.57515,-0.41121,0.96596,17.77840,7.74115,-5.07395,-0.64280,-0.45327,0.08034,-0.61229,-0.37676,10.39981,48.85995
0.13731,0.64918,-0.07894,-0.29866,0.37207,-0.29599,-0.43927,-0.25496,1.33315,16.50638,5.80793,-4.81385,-0.63442,-0.46598,0.07090,-0.61266,10.03995,17.27364,26.40786
0.14475,0.65837,-0.08645,-0.11038,0.43804,-0.35178,-0.35651,-0.25351,1.60498,15.11803,5.40366,-4.87602,-0.62586,-0.47611,0.05940,-0.61489,5.86057,4.58571,23.91171
0.15728,0.66950,-0.09600,0.11810,0.52070,-0.42814,-0.14171,-0.38016,1.99415,13.69372,5.10626,-5.07331,-0.61747,-0.48747,0.03994,-0.61605,11.56637,-5.35603,24.15943
0.16982,0.68106,-0.10618,0.29737,0.59280,-0.49856,0.04450,-0.40932,2.31874,12.08832,5.28796,-4.91430,-0.60870,-0.50012,0.02096,-0.61557,16.02183,-3.99472,24.74972
0.18356,0.69356,-0.11755,0.45491,0.66376,-0.57239,0.11654,-0.23742,2.55569,10.38014,5.06707,-5.17287,-0.59815,-0.51570,0.00690,-0.61337,5.29928,9.72346,19.17009
0.19879,0.70731,-0.13068,0.60401,0.73996,-0.65936,0.10563,0.13919,2.67653,8.18300,4.73863,-5.37981,-0.58675,-0.53419,-0.00063,-0.60857,-3.02084,21.32633,9.92913
0.21248,0.72079,-0.14372,0.69262,0.79374,-0.72431,0.05330,0.48982,2.67170,6.49137,4.51807,-5.32986,-0.57582,-0.55182,-0.00455,-0.60324,-8.62548,27.59146,2.44028
0.22686,0.73553,-0.15808,0.77055,0.85519,-0.79493,-0.04226,0.90276,2.60451,4.62909,4.48724,-4.72224,-0.56458,-0.57074,-0.00374,-0.59623,-10.65811,27.90552,-3.90630
0.24066,0.75106,-0.17287,0.82173,0.91679,-0.85494,-0.17986,1.27168,2.52740,2.79224,4.46786,-3.86243,-0.55232,-0.58983,-0.00054,-0.58910,-14.19405,26.17871,-4.88282
0.25377,0.76794,-0.18795,0.85009,0.98819,-0.90636,-0.33774,1.57520,2.47824,0.92035,4.50469,-2.83424,-0.53873,-0.60903,0.00356,-0.58210,-14.05372,18.65038,-3.31080
0.26565,0.78524,-0.20247,0.85094,1.04953,-0.93772,-0.41129,1.73045,2.49895,-0.65246,4.21567,-1.90411,-0.52481,-0.62748,0.00440,-0.57517,-9.01179,12.02742,1.28489
0.27620,0.80288,-0.21651,0.83040,1.10501,-0.95216,-0.36056,1.72984,2.54099,-2.17059,3.81025,-0.48200,-0.51214,-0.64411,0.00098,-0.56819,1.18355,3.44043,2.77438
0.28561,0.82062,-0.22966,0.79580,1.14788,-0.94880,-0.31001,1.62432,2.57494,-3.67455,3.43100,0.92649,-0.49954,-0.65867,-0.00454,-0.56267,7.27207,-5.36161,2.77295
0.29244,0.83917,-0.24159,0.72546,1.19373,-0.92568,-0.31911,1.36641,2.53025,-5.08593,2.34358,1.85249,-0.48732,-0.66899,-0.01074,-0.56111,0.50274,-14.39053,-1.31060
0.29808,0.85702,-0.25278,0.65112,1.21872,-0.89470,-0.16837,1.05123,2.47289,-5.59987,1.34457,2.23843,-0.47808,-0.67691,-0.02113,-0.55927,9.94804,-20.30163,-4.40524
0.30235,0.87453,-0.26338,0.57094,1.23212,-0.86129,0.06741,0.74910,2.39804,-5.81647,0.70975,2.46212,-0.47137,-0.68313,-0.03425,-0.55674,20.05344,-19.95842,-6.00312
0.30617,0.89189,-0.27376,0.50278,1.23804,-0.83342,0.22140,0.56421,2.33582,-5.55496,0.42768,2.47338,-0.46424,-0.68976,-0.04618,-0.55370,17.70005,-15.80708,-6.52507
0.30775,0.90899,-0.28358,0.41397,1.24285,-0.80080,0.28137,0.42818,2.29483,-5.50161,0.31960,2.02802,-0.45585,-0.69641,-0.05702,-0.55133,6.56401,-9.04860,-3.61350
0.30944,0.92619,-0.29361,0.34684,1.24647,-0.77989,0.30367,0.38489,2.32595,-5.56424,0.33089,1.64434,-0.44560,-0.70479,-0.06742,-0.54788,1.98466,-4.64387,0.17078
0.30931,0.94345,-0.30333,0.26609,1.24833,-0.75992,0.28302,0.38518,2.39558,-5.85433,-0.12510,1.42948,-0.43363,-0.71416,-0.07738,-0.54401,0.67053,-1.12882,4.94767
0.30740,0.95992,-0.31287,0.17340,1.23826,-0.74013,0.25077,0.43396,2.46571,-5.83138,-1.05108,1.21128,-0.42089,-0.72435,-0.08647,-0.53916,-3.24263,2.10483,4.72398
0.30562,0.97590,-0.32240,0.10390,1.22093,-0.72563,0.25095,0.49296,2.49452,-5.87520,-1.80112,1.28860,-0.40901,-0.73427,-0.09539,-0.53335,-0.69787,3.82355,3.90668
0.30213,0.99073,-0.33148,0.02335,1.18821,-0.70777,0.14838,0.56864,2.46349,-5.86398,-2.87546,1.60724,-0.39657,-0.74403,-0.10083,-0.52819,-4.71300,4.95650,-0.19970
0.29769,1.00417,-0.34017,-0.05428,1.14131,-0.68705,0.01667,0.60071,2.37617,-5.41789,-3.74531,1.33337,-0.38451,-0.75252,-0.10424,-0.52440,-12.72380,1.31980,-5.98179
0.29249,1.01635,-0.34852,-0.12676,1.08474,-0.66569,0.04617,0.63307,2.27498,-5.07217,-4.29718,1.54860,-0.37535,-0.76027,-0.10991,-0.51868,-0.75274,2.50751,-6.38545
0.28610,1.02709,-0.35624,-0.20356,1.01492,-0.63892,0.09823,0.63294,2.14873,-4.67346,-4.46462,1.74288,-0.36765,-0.76684,-0.11583,-0.51320,3.15606,0.64326,-7.87728
0.27969,1.03723,-0.36383,-0.26402,0.95075,-0.61577,0.10895,0.63537,2.04313,-3.98089,-4.76096,1.80852,-0.35959,-0.77330,-0.12101,-0.50799,2.29143,-0.26438,-7.27486
0.27311,1.04640,-0.37110,-0.31309,0.88473,-0.59290,-0.02577,0.63566,1.89978,-3.33149,-4.59042,1.75746,-0.35068,-0.77942,-0.12202,-0.50462,-7.46005,-0.05591,-9.76375
0.26608,1.05492,-0.37821,-0.35822,0.82234,-0.57338,-0.18961,0.64517,1.78172,-3.05132,-4.47240,1.14162,-0.34099,-0.78567,-0.12133,-0.50173,-13.39122,-1.84204,-8.36620
0.25891,1.06252,-0.38526,-0.39510,0.75935,-0.55716,-0.30156,0.67205,1.64819,-2.34212,-4.58107,1.14014,-0.33253,-0.79166,-0.12009,-0.49827,-8.57033,0.64956,-8.32054
0.25172,1.06928,-0.39212,-0.42390,0.69682,-0.54180,-0.37621,0.68816,1.49382,-1.91703,-4.41304,0.97977,-0.32545,-0.79695,-0.11830,-0.49493,-7.46789,0.36066,-11.26350
0.24456,1.07539,-0.39879,-0.44578,0.63779,-0.52680,-0.38152,0.70971,1.35264,-1.20638,-3.99144,1.00973,-0.31974,-0.80193,-0.11727,-0.49084,-2.33405,0.72258,-10.39830
0.23747,1.08112,-0.40526,-0.46156,0.58657,-0.51180,-0.36565,0.72951,1.24823,-1.06031,-3.33348,1.12623,-0.31427,-0.80688,-0.11674,-0.48637,0.60755,2.17620,-8.68137
0.23025,1.08665,-0.41145,-0.47539,0.54324,-0.49583,-0.36322,0.72939,1.19410,-0.77790,-2.90785,1.21930,-0.30796,-0.81182,-0.11655,-0.48222,0.58794,0.24686,-4.79988
0.22321,1.09213,-0.41749,-0.48302,0.50972,-0.48159,-0.38774,0.71260,1.16258,-0.53733,-2.74976,1.27200,-0.30092,-0.81662,-0.11606,-0.47865,-0.76375,-1.13229,-2.15211
0.21623,1.09661,-0.42301,-0.48786,0.46761,-0.46173,-0.39947,0.68732,1.12602,-0.11100,-2.62384,1.21936,-0.29420,-0.82104,-0.11561,-0.47536,-2.15100,-2.11239,-1.85264
0.20948,1.10086,-0.42825,-0.48797,0.43047,-0.44164,-0.31498,0.66129,1.08640,0.02492,-2.83992,1.43724,-0.28909,-0.82493,-0.11734,-0.47133,4.66391,-1.46126,-2.77949
0.20319,1.10418,-0.43320,-0.48316,0.38834,-0.42045,-0.18181,0.62833,0.99297,0.45383,-3.26833,1.52288,-0.28643,-0.82782,-0.11997,-0.46721,8.75438,-1.92975,-4.84808
0.19731,1.10662,-0.43784,-0.47255,0.34111,-0.39905,-0.06659,0.59415,0.84202,0.79113,-3.45966,1.64198,-0.28593,-0.82981,-0.12189,-0.46346,9.38477,-1.50772,-10.85672
0.19158,1.10854,-0.44218,-0.46034,0.29554,-0.37834,0.01153,0.55434,0.67315,0.81388,-3.07340,1.44607,-0.28657,-0.83116,-0.12291,-0.46037,5.65450,-2.82838,-13.11351
0.18606,1.11008,-0.44645,-0.44886,0.25521,-0.36034,0.05594,0.51639,0.53490,0.87491,-2.69323,1.20587,-0.28716,-0.83237,-0.12350,-0.45765,3.59953,-2.71819,-10.87829
