posX, posY, posZ, velX, velY, velZ, angVelX, angVelY, angVelZ, accX, accY, accZ, rotX, rotY, rotZ, rotW, angAccX, angAccY, angAccZ
0.40125,1.25430,-0.19968,-0.58859,0.57059,-0.63974,0.91316,0.52251,1.18957,1.06088,0.53443,-1.95167,-0.25207,-0.65083,-0.20442,-0.68637,-3.55783,5.80354,0.31557
0.39418,1.26275,-0.21039,-0.57134,0.58060,-0.67023,0.86507,0.61953,1.16541,1.13956,0.83425,-1.94955,-0.25172,-0.65616,-0.21115,-0.67934,-3.98560,5.67053,-1.48315
0.38724,1.27172,-0.22139,-0.55564,0.59798,-0.70011,0.84800,0.75063,1.18871,0.78651,1.32729,-1.82515,-0.25131,-0.66264,-0.21871,-0.67076,-0.83236,8.28520,2.37171
0.38013,1.28096,-0.23235,-0.54624,0.61543,-0.72180,0.79502,0.83775,1.19572,0.71753,1.68752,-1.74264,-0.25022,-0.66894,-0.22538,-0.66266,-3.67795,7.23092,0.94989
0.37303,1.29142,-0.24404,-0.53901,0.65053,-0.75117,0.76254,0.97184,1.28777,0.19015,2.32687,-1.63018,-0.24802,-0.67688,-0.23316,-0.65265,-3.93805,6.63604,3.88016
0.35779,1.31178,-0.26612,-0.54323,0.68463,-0.76911,0.80788,1.06491,1.46295,-0.55762,2.55926,-1.06482,-0.24355,-0.69050,-0.25272,-0.63248,3.08761,7.25720,11.62048
0.34956,1.32360,-0.27762,-0.55360,0.71871,-0.78117,0.81912,1.10313,1.62012,-1.02474,2.27721,-0.54548,-0.23882,-0.69810,-0.26470,-0.62094,3.83064,3.64625,12.94886
0.34099,1.33554,-0.28908,-0.56629,0.74743,-0.79022,0.68053,1.05136,1.59990,-0.83270,1.28962,-0.35214,-0.23351,-0.70392,-0.27084,-0.61370,-7.34746,-3.64133,1.98489
0.33258,1.34694,-0.30041,-0.57367,0.76199,-0.79548,0.59022,1.02303,1.52854,-0.38733,0.80479,-0.56573,-0.22998,-0.70931,-0.27592,-0.60651,-9.65219,-4.84254,-6.33296
0.32404,1.35809,-0.31178,-0.58111,0.76925,-0.79990,0.61551,1.03568,1.49907,-0.47954,0.20172,-0.35287,-0.22815,-0.71473,-0.28348,-0.59729,0.48579,0.86558,-2.02340
0.31541,1.36886,-0.32305,-0.58730,0.76882,-0.80332,0.70713,1.06263,1.44348,-0.34412,-0.29235,-0.33924,-0.22861,-0.71949,-0.29178,-0.58731,4.00655,2.04974,-3.64777
0.30661,1.37937,-0.33432,-0.59435,0.76416,-0.80637,0.89557,1.12635,1.43975,-0.43236,-0.26953,-0.34601,-0.23069,-0.72412,-0.30301,-0.57499,10.21521,4.78025,-2.13825
0.29765,1.38983,-0.34573,-0.60411,0.76084,-0.81026,1.11695,1.22304,1.49920,-0.77552,-0.12399,-0.29955,-0.23301,-0.72907,-0.31663,-0.56028,15.03143,7.43384,2.94805
0.28815,1.40051,-0.35703,-0.61823,0.76003,-0.81318,1.31737,1.34715,1.58481,-1.17379,-0.00312,-0.10435,-0.23527,-0.73450,-0.33115,-0.54359,15.12805,9.25109,5.46190
0.27827,1.41120,-0.36823,-0.63538,0.75982,-0.81377,1.37980,1.41525,1.61312,-1.28824,-0.02028,0.27756,-0.23634,-0.73979,-0.34306,-0.52836,7.45330,7.13857,3.88571
0.26826,1.42183,-0.37933,-0.65178,0.75938,-0.81196,1.43670,1.47049,1.63812,-1.02737,-0.14132,-0.02088,-0.23737,-0.74471,-0.35496,-0.51290,1.70785,2.76933,0.97366
0.25819,1.43206,-0.39035,-0.66536,0.75199,-0.80969,1.55719,1.59075,1.61496,-0.63868,-0.84847,0.08757,-0.24123,-0.74952,-0.36713,-0.49522,6.91326,8.19114,0.36295
0.24858,1.44199,-0.40147,-0.66945,0.74232,-0.80862,1.61675,1.66178,1.54036,-0.40961,-1.26553,0.18871,-0.24563,-0.75359,-0.37765,-0.47869,6.76053,9.07497,-4.17331
0.23907,1.45063,-0.41281,-0.67114,0.71438,-0.81138,1.49544,1.68615,1.19598,-0.02903,-1.44551,-0.18250,-0.25361,-0.75691,-0.38016,-0.46716,-8.11698,2.13896,-16.92820
0.22963,1.45968,-0.42434,-0.67284,0.69948,-0.81559,1.34861,1.68779,0.99371,-0.26833,-0.91190,-0.39497,-0.25897,-0.76080,-0.38260,-0.45577,-14.11964,0.56882,-17.31712
0.21974,1.46893,-0.43588,-0.68113,0.69184,-0.81885,1.21565,1.69472,0.89620,-0.90931,-0.22756,-0.12726,-0.26280,-0.76528,-0.38519,-0.44375,-13.32564,1.43520,-10.45721
0.20858,1.47871,-0.44702,-0.70814,0.69425,-0.81505,1.07578,1.67061,0.92887,-1.79180,0.67288,0.51243,-0.26330,-0.77036,-0.38866,-0.43146,-8.54853,-2.13516,1.00613
0.19707,1.48893,-0.45771,-0.73462,0.70312,-0.80506,1.04172,1.62689,1.05378,-2.34581,0.91582,1.04327,-0.26224,-0.77479,-0.39542,-0.41782,-3.04761,-2.77371,8.66919
0.18494,1.49937,-0.46801,-0.76411,0.71316,-0.79149,1.05982,1.57715,1.20672,-2.37553,0.80723,1.02201,-0.26007,-0.77868,-0.40407,-0.40341,1.12486,-5.69995,11.60268
0.17147,1.51024,-0.47736,-0.80163,0.72264,-0.77489,1.09309,1.58729,1.38204,-1.85686,0.06067,0.63948,-0.25725,-0.78313,-0.41342,-0.38680,4.46678,0.13752,10.49633
0.15846,1.52055,-0.48707,-0.82338,0.72064,-0.76917,0.98092,1.63723,1.38868,-1.39671,-0.56323,0.19669,-0.25616,-0.78864,-0.41740,-0.37175,-5.65048,2.05549,3.04481
0.14563,1.53017,-0.49707,-0.84044,0.71009,-0.76539,0.82112,1.71603,1.32292,-1.17688,-1.11127,0.29562,-0.25624,-0.79487,-0.41832,-0.35711,-12.74833,4.30932,-1.87529
0.13300,1.53889,-0.50728,-0.85693,0.69085,-0.75836,0.69311,1.80516,1.24204,-1.27546,-1.60376,0.75670,-0.25733,-0.80103,-0.41840,-0.34215,-10.74096,6.09045,-4.81641
0.11994,1.54701,-0.51676,-0.87683,0.66622,-0.74035,0.60260,1.86171,1.16620,-1.64622,-1.92533,1.87653,-0.25875,-0.80666,-0.41848,-0.32744,-7.71420,5.62446,-4.85328
0.10621,1.55459,-0.52522,-0.90281,0.63809,-0.70943,0.48423,1.77766,1.09883,-1.96975,-2.10210,2.73162,-0.25829,-0.81136,-0.41830,-0.31623,-8.76638,-4.04425,-4.10026
0.09199,1.56153,-0.53273,-0.93060,0.60602,-0.67005,0.37693,1.62759,1.06056,-1.82781,-2.50049,2.91698,-0.25629,-0.81540,-0.41853,-0.30702,-7.01251,-10.32749,-2.16215
0.07802,1.56804,-0.53996,-0.94743,0.57477,-0.63575,0.35152,1.53372,1.00871,-1.06942,-2.67116,2.54336,-0.25562,-0.81867,-0.41962,-0.29724,-5.63060,-11.19425,-3.76713
0.06440,1.57325,-0.54631,-0.95516,0.52977,-0.59519,0.45454,1.57551,0.89772,-0.13635,-2.94498,2.24305,-0.25930,-0.82080,-0.42201,-0.28452,5.74793,2.26039,-6.85406
0.05188,1.57767,-0.55240,-0.94961,0.48506,-0.56024,0.62327,1.70591,0.74273,0.29991,-2.45283,1.97814,-0.26651,-0.82203,-0.42492,-0.26961,6.82044,7.30748,-11.17839
0.03930,1.58246,-0.55863,-0.94443,0.45569,-0.53495,0.77052,1.82210,0.64470,0.32935,-2.21264,2.22388,-0.27354,-0.82302,-0.42832,-0.25368,12.39255,12.10059,-8.83773
0.02663,1.58666,-0.56407,-0.94055,0.42300,-0.50178,0.87834,1.89602,0.54697,0.10716,-1.82250,2.19987,-0.28083,-0.82349,-0.43150,-0.23833,7.06216,5.78134,-7.18018
0.01377,1.59094,-0.56942,-0.94022,0.39962,-0.47402,0.86540,1.87034,0.47132,-0.07096,-1.50861,2.02876,-0.28625,-0.82438,-0.43303,-0.22570,0.99708,0.35984,-5.41460
0.00086,1.59540,-0.57480,-0.94025,0.38446,-0.45352,0.77696,1.83124,0.41815,-0.10076,-0.91699,1.58970,-0.29064,-0.82604,-0.43280,-0.21416,-6.02091,-3.86647,-4.59554
-0.01230,1.60004,-0.57972,-0.94322,0.37453,-0.42988,0.61138,1.81068,0.41215,-0.30271,-0.25353,1.50614,-0.29358,-0.82918,-0.43032,-0.20273,-9.90536,-1.12493,0.13038
-0.02565,1.60513,-0.58454,-0.94911,0.37487,-0.40901,0.47204,1.79740,0.46525,-0.56427,0.44616,1.55676,-0.29505,-0.83280,-0.42784,-0.19065,-10.68262,-2.45341,3.15623
-0.03917,1.61054,-0.58918,-0.95550,0.37960,-0.39096,0.40911,1.78979,0.53658,-0.72830,0.73544,2.05357,-0.29601,-0.83603,-0.42645,-0.17767,-7.18044,-0.08329,6.46528
-0.05332,1.61652,-0.59212,-0.97079,0.39239,-0.34866,0.33677,1.71203,0.68700,-0.85397,0.76713,2.64121,-0.29345,-0.83987,-0.42561,-0.16541,-3.24683,-4.58555,9.01107
-0.06745,1.62255,-0.59478,-0.98212,0.40276,-0.31045,0.31278,1.62496,0.79398,-0.77332,0.73637,2.85088,-0.29106,-0.84291,-0.42566,-0.15365,-0.51189,-6.02818,7.76215
-0.08167,1.62868,-0.59682,-0.99217,0.41226,-0.27087,0.31619,1.53520,0.89696,-0.69421,0.62487,2.77084,-0.28790,-0.84562,-0.42647,-0.14202,0.54628,-7.09311,7.37315
-0.09594,1.63487,-0.59836,-0.99990,0.41995,-0.23291,0.32633,1.47913,0.98746,-0.49962,0.43417,2.64444,-0.28459,-0.84826,-0.42732,-0.12984,1.70977,-4.42266,6.57093
-0.11015,1.64098,-0.59976,-1.00464,0.42433,-0.20200,0.31868,1.43357,1.06016,-0.32011,0.36135,2.59779,-0.28100,-0.85100,-0.42775,-0.11777,0.82744,-3.31554,5.73694
-0.12448,1.64723,-0.60013,-1.01058,0.42998,-0.16116,0.30105,1.38406,1.15951,-0.44921,0.32510,2.58598,-0.27602,-0.85405,-0.42808,-0.10562,-0.68231,-3.58576,5.94407
-0.13897,1.65352,-0.60017,-1.01727,0.43374,-0.12557,0.26648,1.30553,1.26471,-0.36359,0.16220,2.58790,-0.26973,-0.85729,-0.42828,-0.09423,-0.38089,-4.41353,7.02561
-0.15341,1.65979,-0.59972,-1.02150,0.43589,-0.09030,0.20147,1.19159,1.38546,-0.15663,0.02666,2.51458,-0.26154,-0.86103,-0.42799,-0.08403,-3.67103,-8.71345,8.40177
-0.16764,1.66572,-0.59855,-1.02102,0.43223,-0.04993,0.18090,1.08902,1.51190,0.26878,-0.48655,2.44843,-0.25238,-0.86445,-0.42851,-0.07352,-0.67057,-7.03694,8.31105
-0.18134,1.67129,-0.59721,-1.01195,0.42251,-0.01582,0.19121,1.02434,1.56226,0.89466,-0.97533,2.39187,-0.24458,-0.86711,-0.42933,-0.06301,1.42161,-5.31172,5.17315
-0.19452,1.67641,-0.59548,-0.99570,0.40748,0.01682,0.18958,0.95387,1.55013,1.34540,-1.31165,2.22262,-0.23769,-0.86938,-0.42988,-0.05372,0.61506,-5.36562,0.02145
-0.20705,1.68108,-0.59350,-0.97216,0.38898,0.04648,0.21055,0.93826,1.48124,1.80537,-1.39691,1.93354,-0.23274,-0.87095,-0.43050,-0.04413,0.52603,-3.03234,-4.41230
-0.21905,1.68539,-0.59108,-0.94530,0.36858,0.07666,0.29673,0.97319,1.39049,2.00005,-1.53401,2.31693,-0.22949,-0.87137,-0.43236,-0.03328,4.44464,4.02989,-6.57386
-0.23085,1.68953,-0.58833,-0.92215,0.35062,0.10476,0.39235,0.97565,1.32969,1.97285,-1.39625,2.34697,-0.22580,-0.87128,-0.43518,-0.02274,6.76630,1.08422,-6.29665
-0.24205,1.69333,-0.58496,-0.89446,0.33186,0.13659,0.52206,0.97827,1.27301,1.97817,-1.23795,2.11284,-0.22243,-0.87024,-0.43940,-0.01194,8.06771,0.09311,-4.63379
-0.25268,1.69699,-0.58140,-0.86405,0.31479,0.16487,0.69188,1.07989,1.18536,2.25035,-1.27910,1.82489,-0.22146,-0.86791,-0.44462,0.00132,11.26985,6.21284,-5.57987
-0.26287,1.70052,-0.57779,-0.83360,0.29995,0.18695,0.84985,1.23041,1.07690,2.63812,-1.23710,1.86061,-0.22253,-0.86473,-0.44996,0.01620,10.73808,12.34684,-8.05320
-0.27187,1.70354,-0.57317,-0.79009,0.28020,0.22080,1.07014,1.41097,0.92456,2.90453,-1.29855,2.45050,-0.22632,-0.85942,-0.45728,0.03269,12.86850,15.75616,-10.20329
-0.28074,1.70645,-0.56832,-0.75411,0.26344,0.25146,1.15661,1.37608,0.83629,2.65322,-1.21013,2.21259,-0.22691,-0.85531,-0.46368,0.04434,7.36200,1.11076,-8.05374
-0.28945,1.70938,-0.56351,-0.72493,0.25140,0.27376,1.18627,1.31301,0.79403,2.28155,-0.83341,1.68924,-0.22626,-0.85177,-0.46933,0.05499,2.75738,-5.70498,-4.98419
-0.29744,1.71213,-0.55834,-0.68980,0.23921,0.29711,1.23513,1.31642,0.79165,2.33840,-0.72974,1.19491,-0.22544,-0.84781,-0.47520,0.06761,3.73093,0.11212,-0.49521
-0.30503,1.71500,-0.55355,-0.65534,0.23153,0.30927,1.15383,1.25055,0.75455,2.51814,-0.55010,0.82919,-0.22466,-0.84531,-0.47855,0.07725,-3.22846,-3.52572,-1.70889
-0.31242,1.71796,-0.54869,-0.62642,0.22726,0.31956,1.12132,1.24487,0.72143,2.24534,-0.16292,0.85244,-0.22456,-0.84221,-0.48218,0.08803,-5.98316,-3.81516,-3.06774
-0.31878,1.72090,-0.54337,-0.58636,0.22350,0.33588,1.05896,1.19903,0.69334,2.29178,-0.28963,1.02193,-0.22410,-0.83954,-0.48520,0.09770,-2.26813,-0.50669,-1.68003
-0.32544,1.72390,-0.53796,-0.55950,0.22151,0.35095,0.97884,1.05983,0.69851,1.82577,-0.08471,1.31306,-0.22156,-0.83772,-0.48800,0.10484,-6.94773,-9.93427,-0.45534
-0.33242,1.72690,-0.53252,-0.54572,0.22013,0.36122,0.94407,0.96353,0.70596,1.76336,-0.20436,1.30609,-0.21887,-0.83551,-0.49134,0.11229,-3.69423,-11.17847,0.65327
-0.33784,1.72981,-0.52606,-0.50966,0.21763,0.38548,0.93363,0.87679,0.67528,1.53451,0.05326,1.16348,-0.21672,-0.83293,-0.49516,0.11870,-2.12128,-5.81111,-1.79106
-0.34353,1.73272,-0.51967,-0.48537,0.21580,0.40353,1.02178,0.97667,0.63095,1.79729,-0.18440,1.24136,-0.21725,-0.82807,-0.50023,0.12989,6.53461,7.77631,-2.64448
-0.34904,1.73561,-0.51331,-0.46421,0.21414,0.41655,1.05172,1.01775,0.57816,1.80227,-0.22156,1.06079,-0.21788,-0.82361,-0.50466,0.13972,3.28455,5.28111,-4.00138
-0.35396,1.73835,-0.50679,-0.43788,0.21004,0.42966,1.02643,0.99392,0.52566,1.73519,-0.34254,0.68189,-0.21819,-0.81988,-0.50830,0.14773,-0.69621,-0.22380,-3.65204
-0.35875,1.74102,-0.50057,-0.41520,0.20586,0.43481,0.96713,0.92318,0.49231,1.66594,-0.35507,0.16915,-0.21766,-0.81695,-0.51129,0.15427,-3.74672,-4.59570,-2.60528
-0.36337,1.74361,-0.49468,-0.39548,0.20121,0.43272,0.87003,0.83430,0.47280,1.79191,-0.52369,-0.45222,-0.21666,-0.81498,-0.51320,0.15968,-6.04728,-6.31457,-1.49346
-0.36924,1.74647,-0.49082,-0.37228,0.19744,0.41883,0.70303,0.78009,0.40208,2.00735,-0.27462,-1.19641,-0.21753,-0.81410,-0.51292,0.16383,-12.02518,-7.79997,-3.51953
-0.37449,1.74941,-0.48761,-0.34054,0.19531,0.39881,0.57044,0.93443,0.29068,2.34036,-0.17575,-1.02285,-0.22272,-0.81195,-0.51145,0.17188,-9.59208,9.11157,-5.77824
-0.37838,1.75203,-0.48313,-0.31529,0.19180,0.38853,0.52493,1.07526,0.20593,2.16002,-0.25505,-0.49119,-0.22806,-0.80870,-0.51115,0.18090,-6.19593,11.74932,-6.55426
-0.38109,1.75431,-0.47766,-0.28760,0.18526,0.38989,0.60697,1.23372,0.13476,1.84513,-0.38979,0.64020,-0.23387,-0.80317,-0.51324,0.19185,1.97009,12.52258,-5.66119
-0.38369,1.75639,-0.47143,-0.26431,0.17687,0.40333,0.77143,1.30042,0.10140,1.78406,-0.57334,1.26007,-0.23774,-0.79632,-0.51805,0.20244,10.46532,6.93866,-3.50491
-0.38587,1.75815,-0.46465,-0.23916,0.16500,0.42284,0.93420,1.20558,0.09075,1.77821,-0.95008,1.16085,-0.23884,-0.78968,-0.52462,0.21008,11.86648,-2.51820,-2.13125
-0.38820,1.75987,-0.45826,-0.22248,0.15533,0.43120,0.93938,0.96636,0.11544,1.48980,-0.96336,0.41372,-0.23716,-0.78613,-0.52937,0.21334,4.67564,-15.93888,-0.48596
-0.39034,1.76142,-0.45230,-0.20669,0.14525,0.43032,0.79402,0.57529,0.17943,1.01046,-0.81589,-0.42889,-0.23196,-0.78660,-0.53183,0.21123,-7.05940,-26.35392,2.61713
-0.39238,1.76289,-0.44712,-0.19257,0.13606,0.41631,0.54202,0.18099,0.28968,0.69345,-0.42172,-1.31617,-0.22463,-0.79028,-0.53124,0.20684,-15.43500,-28.31843,6.16950
-0.39416,1.76448,-0.44243,-0.17723,0.13080,0.39744,0.41687,0.08973,0.38604,0.98674,-0.22207,-1.51670,-0.21994,-0.79166,-0.53064,0.20814,-11.83516,-11.90932,6.87585
-0.39573,1.76605,-0.43793,-0.16211,0.12673,0.38014,0.40019,0.18142,0.45866,1.00242,0.00628,-1.49108,-0.21733,-0.79079,-0.53076,0.21381,-3.74498,1.74658,5.75600
-0.39683,1.76769,-0.43360,-0.14305,0.12461,0.36444,0.47012,0.42799,0.57145,1.57821,-0.30949,-0.82436,-0.21564,-0.78776,-0.53118,0.22533,3.84468,18.11956,9.09232
-0.39717,1.76902,-0.42908,-0.11516,0.11772,0.35543,0.51901,0.48378,0.61474,2.27882,-0.61631,-0.20320,-0.21292,-0.78528,-0.53266,0.23298,3.47794,6.56889,3.73819
-0.39743,1.77034,-0.42420,-0.09310,0.11242,0.35423,0.52087,0.41757,0.59001,2.48623,-0.59740,0.04831,-0.21004,-0.78372,-0.53444,0.23672,1.56214,-2.90037,-0.48759
-0.39615,1.77137,-0.41903,-0.05088,0.10382,0.35827,0.53346,0.23562,0.52144,2.41435,-0.41445,0.41974,-0.20622,-0.78253,-0.53770,0.23665,1.33269,-8.81388,-4.33410
-0.39534,1.77264,-0.41375,-0.02552,0.10092,0.36326,0.50927,0.02427,0.49282,2.03400,-0.07898,0.46655,-0.20086,-0.78253,-0.54042,0.23506,-0.81298,-15.83997,-3.46848
-0.39406,1.77422,-0.40806,0.00139,0.10392,0.37397,0.54005,-0.13696,0.50954,1.17239,0.52173,0.86439,-0.19422,-0.78202,-0.54394,0.23420,0.17181,-13.80274,-0.45700
-0.39290,1.77612,-0.40201,0.02074,0.11183,0.38826,0.65142,-0.15323,0.56605,1.24996,0.84156,1.11578,-0.18769,-0.77951,-0.54849,0.23727,7.83571,-1.85881,4.10014
-0.39167,1.77835,-0.39566,0.03636,0.12301,0.40405,0.79798,-0.06556,0.62946,1.23854,1.10938,1.43443,-0.18184,-0.77533,-0.55369,0.24338,9.95248,4.06180,5.00691
-0.39004,1.78096,-0.38872,0.05480,0.13767,0.42547,0.95850,-0.03769,0.67908,1.49465,1.03823,1.65280,-0.17494,-0.77042,-0.56023,0.24898,12.36444,5.73121,4.90757
-0.38803,1.78429,-0.38115,0.07560,0.16178,0.45327,1.12292,-0.13442,0.74853,1.10111,1.46665,1.47597,-0.16521,-0.76573,-0.56801,0.25245,10.13152,-3.26832,3.17284
-0.38642,1.78765,-0.37391,0.08507,0.18085,0.46915,1.15019,-0.33966,0.80997,0.96651,1.51225,1.26655,-0.15383,-0.76356,-0.57406,0.25251,5.42637,-12.20496,4.32241
-0.38471,1.79166,-0.36648,0.09400,0.20613,0.48426,1.10546,-0.73247,0.84370,0.61922,1.95393,1.05502,-0.13920,-0.76400,-0.57982,0.24646,-0.87166,-26.68932,0.74846
-0.38296,1.79637,-0.35881,0.10135,0.23719,0.49999,1.11113,-1.03844,0.90280,0.30991,2.64600,1.14906,-0.12328,-0.76382,-0.58597,0.24086,-0.94634,-25.74466,1.64183
-0.38111,1.80178,-0.35082,0.10880,0.27256,0.51728,1.20073,-1.18370,0.99548,0.33696,2.72175,1.34703,-0.10709,-0.76154,-0.59307,0.23845,5.34395,-14.14120,5.53086
-0.37916,1.80766,-0.34232,0.11611,0.30758,0.53919,1.38519,-1.17898,1.13049,0.46300,2.50433,1.71439,-0.09053,-0.75639,-0.60163,0.24025,11.45107,-1.11082,9.80528
-0.37701,1.81387,-0.33334,0.12503,0.33992,0.56389,1.57370,-1.16759,1.27560,0.82923,2.11345,1.85825,-0.07280,-0.75012,-0.61068,0.24308,13.17145,1.64569,12.06831
-0.37452,1.82025,-0.32396,0.13763,0.36743,0.58949,1.74040,-1.24112,1.36263,1.34573,1.82536,1.82566,-0.05399,-0.74351,-0.62042,0.24363,12.76729,-1.67983,8.76673
-0.37146,1.82701,-0.31447,0.15700,0.39498,0.61091,1.84450,-1.41307,1.36520,1.60216,1.94051,1.27313,-0.03469,-0.73760,-0.63016,0.24010,9.16309,-12.58586,0.34895
-0.36763,1.83413,-0.30491,0.18469,0.42220,0.62853,1.93537,-1.43891,1.35707,2.03522,2.01368,1.19706,-0.01740,-0.73048,-0.63964,0.23865,6.84517,-4.07768,-0.51173
-0.36327,1.84164,-0.29509,0.21448,0.44950,0.64651,2.07355,-1.31575,1.40231,1.95838,1.94315,1.24632,-0.00112,-0.72088,-0.64970,0.24130,8.46868,6.11215,2.43309
-0.35854,1.84932,-0.28500,0.24357,0.47307,0.66463,2.21650,-1.18136,1.47441,2.16163,1.67887,1.41391,0.01547,-0.70991,-0.65991,0.24557,8.26855,11.38276,8.08698
-0.35353,1.85738,-0.27460,0.27069,0.49775,0.68386,2.33091,-1.15058,1.52478,1.89764,1.74059,1.40141,0.03329,-0.69891,-0.67004,0.24794,8.57251,4.30973,4.58714
-0.34853,1.86552,-0.26412,0.29077,0.51756,0.69959,2.40423,-1.12863,1.60603,1.47939,1.61629,1.25545,0.05200,-0.68779,-0.67920,0.25088,6.87998,0.35591,5.51380
-0.34315,1.87471,-0.25279,0.31268,0.55087,0.72617,2.47695,-1.21454,1.76119,1.06221,1.98548,1.73782,0.07464,-0.67649,-0.68745,0.25338,3.82473,-3.47744,8.54636
-0.33837,1.88384,-0.24133,0.31975,0.57575,0.74947,2.54147,-1.55440,1.83002,0.57951,1.38834,1.85051,0.10138,-0.66640,-0.69541,0.24908,5.38559,-17.66775,5.27980
-0.33432,1.89270,-0.22961,0.31242,0.59022,0.77178,2.67370,-2.30552,1.80378,-1.04408,0.40357,1.09168,0.13636,-0.65717,-0.70375,0.23296,13.24216,-44.13282,-8.53114
-0.33084,1.90079,-0.21844,0.29714,0.58779,0.77899,2.80774,-2.88752,1.85940,-1.45693,-0.59704,0.18254,0.17333,-0.64615,-0.71070,0.21763,15.74058,-47.27617,-3.64652
-0.32765,1.90831,-0.20787,0.28108,0.57640,0.77406,3.00824,-3.50024,1.95254,-1.03082,-0.80041,-1.04389,0.21536,-0.63260,-0.71684,0.19891,19.08731,-46.87138,-0.62069
-0.32365,1.91565,-0.19831,0.28297,0.56462,0.75277,3.16857,-3.85003,2.12757,0.91456,-0.79649,-2.38058,0.25680,-0.61643,-0.72117,0.18432,13.86356,-29.66939,10.29644
-0.31782,1.92307,-0.19002,0.31617,0.55723,0.71505,3.21295,-3.86495,2.41511,3.39759,-0.20882,-3.47721,0.29515,-0.59866,-0.72313,0.17770,4.02763,-11.95772,15.05905
-0.30909,1.93107,-0.18311,0.39110,0.56158,0.66265,3.15460,-3.89220,2.47008,7.67728,0.36423,-4.15282,0.32980,-0.58281,-0.72335,0.16834,-8.19242,0.95730,18.21818
-0.29744,1.93991,-0.17769,0.49748,0.57949,0.59727,3.16670,-4.20131,2.08184,8.53539,1.74119,-5.17030,0.36213,-0.56921,-0.72400,0.14382,8.59049,-13.91075,-27.27075
-0.28310,1.95000,-0.17389,0.62458,0.61442,0.51993,3.02214,-4.37328,1.83428,9.32917,3.52111,-6.35634,0.39285,-0.55758,-0.72102,0.12209,5.95866,-13.72166,-28.60925
-0.26681,1.96165,-0.17065,0.75233,0.66672,0.45306,2.63303,-4.27550,1.85978,11.41501,5.18566,-5.98142,0.42104,-0.54898,-0.71337,0.11159,-21.27914,-1.78892,-10.10898
-0.24326,1.97673,-0.16863,0.97296,0.76465,0.38165,1.70730,-3.73559,2.07504,16.14638,7.09642,-3.69305,0.44039,-0.55040,-0.69908,0.12005,-62.46913,23.83123,7.36694
-0.21597,1.99404,-0.16568,1.20757,0.87863,0.34174,1.18712,-3.59273,1.46585,19.28250,8.53251,-1.10507,0.45286,-0.55635,-0.68850,0.10658,-48.56227,20.30486,-29.63151
-0.18631,2.01292,-0.16241,1.42260,0.98990,0.31686,1.13989,-3.88463,0.35202,18.38721,9.54073,-1.53059,0.46315,-0.56310,-0.68102,0.06800,9.62609,-5.92366,-83.62448
-0.15042,2.03575,-0.16018,1.69105,1.14104,0.28050,1.27019,-4.73368,-1.22426,15.03032,9.23529,-3.06638,0.47264,-0.57475,-0.66803,0.00075,42.47706,-49.72426,-105.54870
-0.11238,2.05914,-0.15785,1.94156,1.27010,0.25372,0.46459,-5.08034,-1.61341,15.81003,7.44503,-1.72454,0.48728,-0.59325,-0.63994,-0.03294,-31.20152,-23.25683,-43.80066
-0.07342,2.08109,-0.15427,2.14769,1.34327,0.25507,-0.19283,-5.16201,-1.86708,18.80280,4.87917,1.96587,0.49874,-0.61112,-0.61165,-0.06065,-60.72698,0.21148,-32.49780
-0.02500,2.10337,-0.14771,2.46834,1.40409,0.30826,-0.43426,-5.29729,-2.73315,22.28193,2.40132,5.49192,0.49919,-0.63059,-0.58485,-0.10542,-4.65784,-10.59559,-53.65415
0.02527,2.12387,-0.13885,2.74273,1.41995,0.38746,-0.60394,-5.11430,-3.46902,24.00250,-0.07045,6.97270,0.49197,-0.64964,-0.56073,-0.14663,13.12129,-0.37701,-61.03642
0.08080,2.14232,-0.12728,3.03141,1.39721,0.49061,-0.94447,-4.67421,-4.13869,24.34941,-3.88945,9.32702,0.47586,-0.67391,-0.53540,-0.18098,3.94255,29.51830,-64.60056
0.14819,2.15612,-0.11117,3.42488,1.28373,0.66717,-1.27141,-3.97065,-4.94504,24.44837,-10.24135,13.16937,0.44671,-0.70300,-0.51132,-0.21164,1.07979,46.76023,-56.79433
0.22003,2.16575,-0.09347,3.76709,1.10869,0.85491,-1.23078,-3.47476,-5.69421,24.02323,-15.57322,14.89618,0.41418,-0.72633,-0.48915,-0.24827,22.26435,26.93158,-53.09900
0.29344,2.16984,-0.07261,4.05462,0.90000,1.03600,-1.16057,-2.95486,-6.30254,23.38960,-19.71158,16.04681,0.37684,-0.74820,-0.46759,-0.28205,30.74170,27.81763,-50.90022
0.37236,2.16101,-0.04226,4.40605,0.53799,1.30794,-0.96146,-2.22283,-7.14004,20.28531,-26.66930,18.04928,0.32382,-0.77110,-0.44864,-0.31506,35.21583,32.97018,-52.56287
0.44940,2.14369,-0.00872,4.66462,0.11620,1.56449,-0.48867,-1.69290,-7.80002,16.85010,-34.09024,19.33550,0.26800,-0.78604,-0.43291,-0.35057,45.30840,21.72021,-44.93901
0.52683,2.11479,0.02898,4.86892,-0.40010,1.83053,0.27226,-1.36191,-8.55120,12.48608,-40.50770,19.07279,0.20311,-0.79244,-0.41993,-0.39300,63.55566,-6.47724,-45.81062
0.60337,2.07344,0.07042,5.00688,-1.00279,2.09678,0.98985,-0.55160,-9.38084,7.22634,-46.63013,17.75073,0.12146,-0.79830,-0.40949,-0.42459,69.68015,9.39562,-54.26967
0.67600,2.01859,0.11448,5.04431,-1.68861,2.34322,1.86141,0.67625,-10.12502,-2.82402,-51.80043,15.86714,0.02412,-0.79981,-0.40552,-0.44190,93.38850,38.58400,-57.36613
0.73910,1.95030,0.15909,4.91750,-2.43846,2.54227,3.05917,2.03344,-10.16242,-15.55129,-54.00242,12.69938,-0.07228,-0.79062,-0.41803,-0.44152,128.52610,37.93167,-15.46616
0.79334,1.87654,0.20174,4.67275,-3.09021,2.65720,4.07257,2.38049,-9.87619,-26.22949,-53.74782,8.31661,-0.15290,-0.76822,-0.42965,-0.44929,105.89940,-7.54534,4.63561
0.82877,1.78253,0.24263,4.17315,-3.92020,2.71542,5.05942,1.58140,-9.21868,-35.92064,-49.50840,1.07167,-0.21058,-0.72837,-0.44771,-0.47401,40.92797,-84.20927,22.32219
0.85101,1.68461,0.27767,3.55831,-4.65140,2.66526,5.56209,0.95509,-8.84743,-41.41826,-43.46000,-7.70839,-0.26735,-0.68883,-0.45528,-0.49675,-7.09742,-65.52344,1.68107
0.86671,1.58674,0.30829,2.97211,-5.22071,2.55022,6.44339,0.83613,-9.04628,-44.07530,-38.94946,-11.58000,-0.34389,-0.63887,-0.46257,-0.50952,38.62593,-32.16881,-11.60990
0.87542,1.48922,0.33445,2.41616,-5.63969,2.38983,7.75538,1.01601,-8.84267,-48.69754,-29.43506,-17.10594,-0.42285,-0.57851,-0.48242,-0.50379,76.77700,-34.23235,-31.00603
0.86035,1.38807,0.35106,1.58852,-6.01470,2.10391,9.65678,0.60100,-7.24798,-52.30121,-16.38275,-17.96498,-0.47513,-0.50326,-0.54055,-0.47831,117.47870,-113.74870,63.31287
0.84189,1.29554,0.36248,0.88893,-6.14633,1.79000,9.57033,-0.83728,-6.46413,-48.92955,-3.76031,-23.64392,-0.49859,-0.43312,-0.56996,-0.48884,-17.83327,-127.04380,2.47158
0.82155,1.21054,0.36899,0.33683,-6.12116,1.47721,8.43100,-1.86382,-6.26370,-44.80135,6.47666,-26.66890,-0.51390,-0.37763,-0.57487,-0.51267,-105.12240,-56.90094,-21.76104
0.78795,1.13656,0.36345,-0.30498,-5.91442,1.03600,5.67429,-2.25112,-6.66821,-36.95977,17.64272,-26.94906,-0.51779,-0.35302,-0.54066,-0.56121,-157.87030,41.20300,-46.01152
0.75688,1.06876,0.35773,-0.75605,-5.64812,0.69070,3.18580,-1.71263,-7.55548,-29.29932,20.36478,-23.41996,-0.53318,-0.33683,-0.48166,-0.60850,-149.08520,115.07570,-55.11967
0.72708,1.00408,0.35285,-1.07260,-5.40101,0.44843,1.80203,-1.03403,-8.04008,-23.28824,22.34830,-19.23999,-0.55348,-0.31673,-0.42650,-0.64144,-94.21638,130.69940,-61.93742
0.69271,0.94634,0.34559,-1.38773,-5.10432,0.22640,1.64177,-0.68575,-7.58517,-18.65346,23.61018,-15.11775,-0.57388,-0.29161,-0.39923,-0.65287,-18.45755,51.24214,6.10399
0.65648,0.89421,0.33832,-1.65786,-4.78168,0.05488,2.09782,-0.89259,-6.07167,-17.86274,23.90858,-10.07863,-0.58511,-0.26834,-0.40926,-0.64664,24.83805,-29.48155,100.42690
0.61981,0.84481,0.33212,-1.87103,-4.49767,-0.05757,2.11934,-1.33007,-4.83030,-17.68844,22.92641,-8.40481,-0.58555,-0.24648,-0.42182,-0.64687,-8.97478,-50.24338,105.06010
0.57651,0.80261,0.32286,-2.14443,-4.16339,-0.19572,1.75887,-1.49269,-4.12648,-19.26067,18.49647,-8.53249,-0.58378,-0.22910,-0.42343,-0.65377,-28.30576,-21.88137,61.77653
0.53136,0.75894,0.31263,-2.39099,-3.92592,-0.32100,1.31391,-1.07505,-4.87320,-19.19660,15.99255,-9.99109,-0.59684,-0.20168,-0.38747,-0.67303,-26.94034,38.03096,-33.98980
0.48216,0.71766,0.30005,-2.64769,-3.70323,-0.45570,1.47262,-0.85606,-5.64920,-16.91473,17.42214,-10.17019,-0.61735,-0.16094,-0.35137,-0.68521,12.54340,31.81898,-68.21800
0.42871,0.68429,0.28498,-2.92158,-3.39553,-0.60504,2.04749,-1.27626,-5.69169,-14.70642,22.20633,-9.45360,-0.63374,-0.11243,-0.33909,-0.68612,29.78225,-30.42589,-14.18769
0.37628,0.65625,0.26972,-3.11625,-3.06672,-0.72514,2.39902,-2.11010,-4.97738,-11.41719,24.23190,-7.71420,-0.63778,-0.06858,-0.34960,-0.68288,6.32215,-63.51707,34.27384
0.32506,0.63115,0.25451,-3.24328,-2.77209,-0.81352,2.54392,-2.93121,-4.19152,-9.50611,24.95441,-6.96229,-0.63542,-0.02678,-0.36771,-0.67846,-15.29724,-79.32845,52.22028
0.27270,0.61317,0.23830,-3.35904,-2.43350,-0.89653,2.47944,-3.45675,-3.98784,-9.29223,24.10085,-5.11824,-0.63108,0.01821,-0.37520,-0.67870,-23.63620,-58.28957,31.69814
0.22107,0.60336,0.22131,-3.43243,-2.03038,-0.97714,2.29525,-3.32423,-4.61129,-1.21642,26.67533,-4.79594,-0.63158,0.06554,-0.35476,-0.68627,0.60371,12.23808,-43.15265
0.17422,0.59410,0.20501,-3.41201,-1.71375,-1.02532,2.16693,-2.95223,-4.98859,4.71565,26.22647,-3.48484,-0.63381,0.10532,-0.33103,-0.69109,1.56566,30.45346,-30.27459
0.13461,0.59440,0.18914,-3.27334,-1.31199,-1.05640,1.89093,-2.37813,-4.75512,12.40014,24.08096,-0.99167,-0.63564,0.12761,-0.31247,-0.69429,-5.24967,41.35361,11.42260
0.09982,0.59423,0.17518,-3.08458,-1.00764,-1.04833,1.60504,-1.87377,-3.92008,14.72848,19.18313,1.69094,-0.63748,0.13583,-0.30689,-0.69354,-16.36537,37.69513,47.78900
0.06706,0.59440,0.16294,-2.90967,-0.76911,-1.01149,1.45001,-1.66802,-3.34487,10.05773,16.44584,3.01761,-0.63816,0.14892,-0.30387,-0.69154,-20.78895,10.97683,61.32658
0.03406,0.59522,0.15152,-2.77984,-0.57846,-0.97059,1.49408,-1.35783,-3.64742,11.58651,16.50779,3.62927,-0.64107,0.17438,-0.28112,-0.69252,8.89390,26.42163,-6.79829
0.00746,0.60297,0.14227,-2.57110,-0.31808,-0.90353,1.23834,-1.65241,-3.59601,16.07749,15.02274,4.75718,-0.63330,0.20277,-0.27433,-0.69467,-12.42163,-7.19957,-8.42728
-0.01681,0.60881,0.13344,-2.37645,-0.14922,-0.84290,0.86929,-2.03678,-3.20161,17.49782,12.74144,5.56147,-0.62144,0.22612,-0.27948,-0.69612,-37.79421,-30.27400,21.07132
-0.03241,0.61768,0.12732,-2.08132,0.02973,-0.75144,0.41386,-2.08170,-2.61689,18.87408,9.70511,6.40705,-0.60981,0.23763,-0.28706,-0.69947,-35.40957,-7.45440,31.16821
-0.04579,0.62487,0.12264,-1.81485,0.14153,-0.65493,0.18477,-1.51015,-2.10044,17.98928,6.76093,7.55549,-0.60717,0.23663,-0.28439,-0.70319,-21.48899,33.09812,38.57136
-0.05495,0.63184,0.12101,-1.53650,0.22485,-0.52741,0.09516,-0.47055,-1.87331,16.34815,4.34982,8.28764,-0.61070,0.22725,-0.26694,-0.71003,0.70024,64.76039,18.85828
-0.06576,0.63754,0.11950,-1.35235,0.26667,-0.42870,0.02575,0.20948,-1.89843,14.97280,2.75119,8.09282,-0.61160,0.22349,-0.24703,-0.71762,3.45016,64.24507,2.88803
-0.07285,0.64334,0.11984,-1.15119,0.29950,-0.32415,-0.16176,0.60674,-1.92543,15.57797,1.61220,6.82932,-0.60834,0.22102,-0.22946,-0.72693,-4.18115,39.78440,-7.21607
-0.07561,0.64650,0.12090,-0.91107,0.31748,-0.22932,-0.64829,0.54483,-1.54425,16.50033,0.46613,5.21994,-0.59752,0.21637,-0.22924,-0.73729,-28.03707,2.97841,19.82625
-0.07704,0.64684,0.12133,-0.69233,0.30897,-0.16705,-1.09392,0.39107,-0.94674,16.60424,-0.53793,3.83172,-0.58612,0.20808,-0.23806,-0.74599,-33.18741,-7.23766,40.60501
-0.07674,0.64704,0.12130,-0.50340,0.28948,-0.12976,-1.36216,0.37153,-0.37423,16.09312,-1.08762,2.47947,-0.57734,0.19606,-0.24755,-0.75296,-25.98101,-1.70073,48.59936
-0.06939,0.64926,0.12098,-0.25655,0.26385,-0.10481,-1.44904,0.59000,0.24093,14.39689,-1.37426,0.57062,-0.57349,0.17698,-0.25609,-0.75776,-8.42601,14.19589,41.08894
-0.06200,0.65163,0.11937,-0.06639,0.24069,-0.10674,-1.24492,0.96928,0.51741,12.38488,-1.16365,-0.99390,-0.57573,0.15887,-0.25520,-0.76038,10.17254,26.38075,23.60038
-0.05585,0.65411,0.11711,0.05258,0.22566,-0.11923,-0.97046,1.30137,0.51270,11.07469,-1.24387,-1.62553,-0.57994,0.14420,-0.24793,-0.76250,21.81280,32.30381,5.16310
-0.04327,0.65762,0.11321,0.24161,0.20101,-0.15291,-0.40081,1.94175,0.21058,9.88864,-1.75497,-1.99262,-0.59320,0.12876,-0.22515,-0.76213,29.82851,35.82469,-21.31242
-0.03117,0.66173,0.10892,0.38133,0.17990,-0.18408,-0.05308,2.38442,0.01794,9.82889,-2.45367,-2.24316,-0.60359,0.11312,-0.20477,-0.76220,24.09372,32.86893,-20.79585
-0.01860,0.66453,0.10439,0.49649,0.15114,-0.21209,0.19411,2.70481,-0.05135,9.43988,-3.36198,-2.28245,-0.61359,0.09611,-0.18625,-0.76130,20.23063,29.39085,-12.39901
-0.00418,0.66378,0.09947,0.62156,0.10352,-0.24494,0.40901,2.99729,0.02446,9.00863,-3.56672,-2.58598,-0.62470,0.07561,-0.16957,-0.75848,17.05166,22.21903,-0.01768
0.01261,0.66201,0.09327,0.75890,0.04916,-0.29226,0.62731,3.27763,0.14820,8.32057,-3.54861,-3.30083,-0.63682,0.05292,-0.15318,-0.75379,14.09713,18.11356,5.78118
0.02953,0.65980,0.08652,0.86777,-0.00045,-0.33842,0.79368,3.42835,0.30782,7.65491,-3.53865,-3.48800,-0.64820,0.03043,-0.13926,-0.74801,15.31941,13.61889,7.13394
0.04723,0.65747,0.07890,0.96405,-0.04013,-0.38841,0.87456,3.40530,0.53856,6.50118,-2.26651,-3.76851,-0.65775,0.00866,-0.13044,-0.74181,9.90284,-0.33819,15.50202
0.06554,0.65565,0.07030,1.04767,-0.06141,-0.44332,0.93744,3.30876,0.66283,5.66791,-0.83611,-4.12648,-0.66644,-0.01050,-0.12197,-0.73544,6.96085,-5.95846,9.51985
0.08496,0.65433,0.06062,1.13163,-0.06928,-0.50419,0.95362,3.08844,0.86236,5.24492,-0.30589,-3.56792,-0.67376,-0.02859,-0.11822,-0.72887,4.52397,-11.50120,8.44363
0.10406,0.65362,0.05137,1.19001,-0.06463,-0.54307,0.92114,2.84700,1.12123,4.88951,0.86515,-2.99385,-0.67957,-0.04729,-0.11835,-0.72245,3.41277,-20.79015,18.10261
0.12449,0.65407,0.04158,1.25596,-0.04106,-0.58090,0.82012,2.63326,1.40168,4.45808,2.39775,-2.27600,-0.68324,-0.06727,-0.12109,-0.71693,-0.79528,-19.20817,20.70126
0.14547,0.65647,0.03174,1.31738,0.00251,-0.61039,0.67042,2.53348,1.62250,4.23662,3.63090,-1.64988,-0.68514,-0.08907,-0.12264,-0.71247,-5.67989,-11.09320,17.29388
0.16624,0.66332,0.02205,1.37234,0.06801,-0.62869,0.44857,2.53216,1.83032,3.92121,4.66718,-0.59271,-0.68447,-0.11372,-0.12332,-0.70948,-11.32952,-3.76874,16.97300
