posX, posY, posZ, velX, velY, velZ, angVelX, angVelY, angVelZ, accX, accY, accZ, rotX, rotY, rotZ, rotW, angAccX, angAccY, angAccZ
0.33391,1.26332,-0.45749,-0.49605,1.84142,-0.88795,1.44854,0.83181,2.89082,-6.07385,-3.44386,3.50260,-0.31238,-0.86411,-0.17729,-0.35257,5.72505,-0.64968,-9.84825
0.32220,1.28606,-0.46700,-0.57910,1.79365,-0.83969,1.52283,0.76602,2.78052,-5.83616,-3.42357,3.36803,-0.30288,-0.86842,-0.19251,-0.34213,4.42339,-3.37887,-9.64157
0.30917,1.30755,-0.47564,-0.66654,1.73664,-0.78697,1.68640,0.73639,2.65531,-5.27660,-3.76755,2.94885,-0.29535,-0.87167,-0.20954,-0.33023,8.51370,-0.52692,-7.83170
0.29607,1.32837,-0.48429,-0.73557,1.68162,-0.74620,1.96402,0.81424,2.50872,-4.77553,-4.14920,2.65571,-0.29084,-0.87416,-0.22874,-0.31455,16.67794,7.25562,-10.00928
0.28256,1.34818,-0.49261,-0.79441,1.62080,-0.70934,2.23508,0.91170,2.33355,-3.81873,-4.56602,2.64115,-0.28851,-0.87551,-0.24847,-0.29749,19.02033,11.77072,-11.34389
0.26927,1.36736,-0.50078,-0.83481,1.56614,-0.67978,2.40665,0.98913,2.15469,-3.11613,-4.53192,2.48037,-0.28699,-0.87610,-0.26683,-0.28086,13.90886,10.28279,-13.81652
0.25518,1.38485,-0.50816,-0.88009,1.49659,-0.64300,2.59780,1.10530,1.93027,-2.74780,-4.33652,2.17703,-0.28847,-0.87543,-0.28531,-0.26268,11.14357,10.34406,-13.71827
0.24141,1.40256,-0.51578,-0.90789,1.44547,-0.61946,2.68141,1.22462,1.75486,-1.95870,-4.17453,1.93949,-0.28952,-0.87487,-0.30187,-0.24424,6.62299,12.16791,-12.48110
0.22764,1.41924,-0.52290,-0.92902,1.39148,-0.59283,2.68325,1.34680,1.52036,-1.36807,-3.63769,2.21582,-0.29290,-0.87374,-0.31564,-0.22617,0.31724,12.54180,-14.86680
0.21380,1.43562,-0.52945,-0.94669,1.34471,-0.56249,2.60151,1.40463,1.30126,-1.12471,-3.02620,2.39263,-0.29629,-0.87236,-0.32719,-0.21012,-6.96501,6.88275,-13.90780
0.19979,1.45196,-0.53494,-0.96206,1.30616,-0.52092,2.49495,1.42940,1.10576,-0.94745,-1.68703,2.92430,-0.29982,-0.87068,-0.33754,-0.19517,-8.88667,3.52859,-12.25440
0.18577,1.46899,-0.54010,-0.97546,1.29025,-0.48312,2.47235,1.41925,1.03669,-1.11006,-0.75901,3.36664,-0.30136,-0.86850,-0.35012,-0.17974,-4.26230,0.73432,-8.24095
0.17132,1.48631,-0.54371,-0.99346,1.28406,-0.42684,2.38569,1.32359,1.04077,-0.98246,0.03740,3.80710,-0.30024,-0.86662,-0.36209,-0.16649,-2.94536,-4.06034,-0.99746
0.15679,1.50428,-0.54732,-1.00705,1.28778,-0.38554,2.22450,1.19303,1.10089,-1.20910,0.51006,3.44359,-0.29639,-0.86568,-0.37242,-0.15510,-10.33830,-11.50416,2.55250
0.14186,1.52241,-0.55027,-1.02560,1.29576,-0.34139,2.01600,1.09338,1.19605,-1.57492,0.68509,2.94401,-0.29063,-0.86596,-0.38067,-0.14406,-15.03176,-11.62844,6.33074
0.12641,1.54058,-0.55251,-1.04914,1.30236,-0.29416,1.91295,1.12592,1.26901,-1.57012,0.26671,2.81296,-0.28611,-0.86593,-0.38923,-0.12965,-7.80451,-1.15147,6.62507
0.11097,1.55862,-0.55465,-1.06499,1.30286,-0.25876,1.88147,1.21248,1.27790,-1.36673,-0.18367,3.06684,-0.28367,-0.86497,-0.39808,-0.11357,-2.90049,6.39391,2.84150
0.09522,1.57632,-0.55577,-1.08291,1.29874,-0.21382,1.83843,1.28490,1.26459,-1.35186,-0.32448,3.59271,-0.28171,-0.86380,-0.40615,-0.09763,-3.40676,5.85331,-0.05224
0.07903,1.59389,-0.55571,-1.10399,1.29309,-0.15940,1.84723,1.31637,1.27242,-1.70368,-0.35851,4.16361,-0.27911,-0.86190,-0.41539,-0.08175,-1.95209,2.18224,0.59344
0.06229,1.61124,-0.55447,-1.12881,1.28475,-0.09934,1.95847,1.38259,1.31744,-1.76335,-0.60885,4.26788,-0.27623,-0.85874,-0.42690,-0.06340,6.92602,3.74635,2.19930
0.04557,1.62812,-0.55248,-1.14883,1.27262,-0.04045,2.04666,1.43806,1.37279,-1.18688,-1.13851,4.35079,-0.27273,-0.85527,-0.43835,-0.04453,7.89208,6.00661,4.49370
0.02898,1.64464,-0.55020,-1.16131,1.25665,0.00868,2.02472,1.39108,1.41595,-0.82867,-1.64076,4.24304,-0.26778,-0.85244,-0.44813,-0.02871,2.02302,-0.77743,3.10552
0.01217,1.66043,-0.54611,-1.17344,1.23074,0.07364,1.96144,1.29219,1.43254,-0.94097,-1.50916,4.00662,-0.26228,-0.84977,-0.45702,-0.01529,-5.40190,-9.07623,-0.01621
-0.00484,1.67597,-0.54136,-1.18586,1.20538,0.13255,2.04893,1.35943,1.46708,-0.98696,-1.85836,3.98588,-0.25812,-0.84521,-0.46795,0.00333,4.32606,2.55480,2.57305
-0.02176,1.69116,-0.53643,-1.19337,1.18029,0.18035,2.12406,1.46592,1.50572,-0.45197,-2.35843,3.87485,-0.25422,-0.84018,-0.47844,0.02372,6.76221,8.43570,3.90669
-0.03814,1.70460,-0.52982,-1.19002,1.13069,0.24935,2.14549,1.55682,1.48938,0.93481,-3.32684,4.03103,-0.25149,-0.83486,-0.48771,0.04356,1.59315,7.06919,0.80150
-0.05352,1.71749,-0.52344,-1.17181,1.08272,0.30208,2.06006,1.46465,1.38320,1.73172,-3.86878,3.83315,-0.24888,-0.83014,-0.49564,0.05718,-4.55943,-3.24439,-6.01742
-0.06867,1.73025,-0.51728,-1.15362,1.04465,0.33647,1.92832,1.33334,1.27097,2.01177,-4.07273,3.37896,-0.24623,-0.82608,-0.50232,0.06809,-9.58956,-10.30072,-10.17793
-0.08271,1.74101,-0.51012,-1.12231,0.98359,0.38101,1.63745,1.08317,1.07237,1.75117,-3.63106,2.43258,-0.24448,-0.82432,-0.50553,0.07190,-18.04947,-16.74462,-13.14335
-0.09654,1.75139,-0.50316,-1.09483,0.92879,0.41684,1.45689,1.03784,0.93488,1.35265,-2.94320,2.10801,-0.24431,-0.82172,-0.50861,0.08003,-14.36036,-5.68298,-9.78413
-0.11054,1.76182,-0.49583,-1.07527,0.88635,0.44874,1.47837,1.21697,0.87790,1.05804,-2.90300,2.33150,-0.24566,-0.81646,-0.51377,0.09532,-2.13491,9.22899,-3.58412
-0.12466,1.77206,-0.48794,-1.06228,0.85051,0.47980,1.57769,1.41760,0.84941,0.91672,-2.99230,2.87849,-0.24742,-0.80952,-0.52026,0.11312,5.34813,17.60013,-1.54042
-0.13875,1.78136,-0.47894,-1.05251,0.80765,0.52306,1.71682,1.58721,0.85720,0.65664,-3.18012,3.50860,-0.24852,-0.80130,-0.52790,0.13226,9.29647,14.55508,0.26310
-0.15286,1.78991,-0.46887,-1.04453,0.76230,0.57301,1.83300,1.64954,0.87425,0.78362,-3.47546,3.84120,-0.24815,-0.79283,-0.53606,0.14990,9.13899,7.18120,1.13541
-0.16680,1.79766,-0.45793,-1.03532,0.71456,0.62421,1.85943,1.55435,0.87361,0.83187,-3.64390,3.63782,-0.24605,-0.78556,-0.54377,0.16332,4.18170,-3.80149,-1.21232
-0.18052,1.80465,-0.44659,-1.02436,0.66527,0.67036,1.79197,1.41034,0.88158,0.89678,-3.70746,3.15562,-0.24287,-0.77995,-0.54977,0.17446,-2.68553,-9.53198,-0.19676
-0.19409,1.81090,-0.43496,-1.01345,0.61521,0.70987,1.63427,1.16257,0.90064,0.79087,-3.63810,2.69821,-0.23760,-0.77676,-0.55422,0.18173,-8.76487,-17.01475,0.29346
-0.20756,1.81652,-0.42328,-1.00350,0.56558,0.74389,1.52635,0.99907,0.92603,0.42376,-3.50632,2.20354,-0.23237,-0.77329,-0.55857,0.18980,-9.24593,-16.04170,0.92250
-0.22096,1.82149,-0.41153,-0.99472,0.51675,0.77093,1.48895,0.96048,0.96491,0.46715,-3.37963,1.55831,-0.22783,-0.76861,-0.56311,0.20062,-2.87470,-5.40989,2.72315
-0.23421,1.82598,-0.39994,-0.98505,0.47152,0.78728,1.50029,1.05099,1.02783,0.64866,-3.08410,0.76395,-0.22421,-0.76261,-0.56737,0.21508,-0.31485,3.69897,4.28102
-0.24693,1.82962,-0.38875,-0.96828,0.42170,0.79410,1.48743,1.22637,1.12244,1.49981,-3.42407,0.17736,-0.22131,-0.75638,-0.56992,0.23258,-0.50722,11.54435,7.58553
-0.25904,1.83269,-0.37802,-0.94490,0.37330,0.79131,1.38450,1.21337,1.10560,2.26846,-3.92597,-0.45188,-0.21863,-0.75183,-0.57192,0.24466,-4.23529,3.58115,1.64075
-0.27040,1.83483,-0.36788,-0.91418,0.32089,0.77771,1.15560,1.04106,0.99317,2.33363,-3.91990,-1.38643,-0.21644,-0.75027,-0.57234,0.25035,-14.47025,-13.06770,-6.20932
-0.28119,1.83619,-0.35858,-0.88081,0.26754,0.75459,0.96739,1.06356,0.88485,2.01053,-3.74767,-1.89500,-0.21738,-0.74779,-0.57146,0.25882,-16.19480,-4.80150,-8.73906
-0.29181,1.83718,-0.34956,-0.85310,0.22145,0.73219,0.86471,1.17463,0.82119,2.37649,-3.84206,-1.81279,-0.21929,-0.74390,-0.57059,0.27012,-10.16749,9.69800,-3.67102
-0.30161,1.83660,-0.34113,-0.81815,0.15988,0.70456,0.76774,1.29059,0.74821,2.13971,-3.87998,-1.62054,-0.22242,-0.73981,-0.56918,0.28150,-7.20317,7.68381,-4.48983
-0.31127,1.83581,-0.33280,-0.78832,0.10858,0.68142,0.72927,1.35472,0.69535,2.24175,-3.48691,-1.81544,-0.22471,-0.73516,-0.56872,0.29257,-3.57733,5.04171,-3.36727
-0.32073,1.83489,-0.32480,-0.76261,0.06773,0.65810,0.67000,1.37404,0.67534,2.20213,-3.46129,-2.00769,-0.22627,-0.73129,-0.56758,0.30310,-4.13442,3.24541,-1.87359
-0.32951,1.83261,-0.31772,-0.73170,0.01391,0.62416,0.56132,1.33988,0.67583,2.01201,-3.31815,-2.28139,-0.22719,-0.72892,-0.56521,0.31240,-5.69427,-0.41712,0.18311
-0.33835,1.83059,-0.31067,-0.70905,-0.02287,0.59732,0.42748,1.25787,0.67637,1.92232,-3.07698,-2.02869,-0.22753,-0.72792,-0.56208,0.32005,-10.09410,-7.35620,0.98699
-0.34682,1.82789,-0.30364,-0.68621,-0.06123,0.57725,0.35516,1.18491,0.66390,1.97258,-3.08557,-1.29021,-0.22774,-0.72643,-0.55971,0.32736,-8.74356,-6.37597,0.41089
-0.35399,1.82388,-0.29694,-0.64712,-0.11227,0.55504,0.38249,1.16308,0.62614,2.21356,-2.55880,-1.42962,-0.22835,-0.72289,-0.55925,0.33545,2.01465,-2.81596,-2.54419
-0.36126,1.82059,-0.29031,-0.61840,-0.14067,0.53641,0.37397,1.16475,0.60514,2.65962,-2.34629,-1.74980,-0.22939,-0.71962,-0.55785,0.34400,1.02416,2.49365,-1.17680
-0.36736,1.81676,-0.28457,-0.57710,-0.17125,0.50755,0.24535,1.03077,0.54963,2.65948,-1.72122,-1.71143,-0.23021,-0.71951,-0.55510,0.34809,-7.72865,-8.22904,-3.27519
-0.37309,1.81282,-0.27900,-0.53738,-0.19702,0.48200,0.16582,0.94092,0.49219,2.26345,-1.38517,-1.58422,-0.23136,-0.71882,-0.55284,0.35233,-5.62181,-7.22891,-3.91818
-0.37874,1.80907,-0.27362,-0.50535,-0.21374,0.45884,0.14143,1.02634,0.46132,2.00908,-0.78095,-1.73130,-0.23431,-0.71602,-0.55015,0.36019,-2.82023,1.88295,-3.03451
-0.38403,1.80560,-0.26859,-0.47491,-0.22177,0.43541,0.11480,1.15668,0.45150,2.30039,-0.44516,-1.62352,-0.23812,-0.71263,-0.54662,0.36969,-1.45188,11.26781,0.17051
-0.38884,1.80230,-0.26358,-0.44383,-0.22532,0.41651,0.09010,1.25401,0.40333,2.25397,-0.00910,-1.12136,-0.24275,-0.70900,-0.54333,0.37840,-3.00539,6.63406,-2.20348
-0.39322,1.79922,-0.25846,-0.41303,-0.22427,0.40444,0.11013,1.35005,0.35334,2.14859,0.25504,-0.61666,-0.24759,-0.70432,-0.54078,0.38755,0.25529,7.44639,-3.51753
-0.39805,1.79658,-0.25319,-0.38777,-0.21951,0.39982,0.13533,1.35890,0.31019,1.89917,0.35011,-0.09261,-0.25144,-0.70002,-0.53891,0.39538,1.88078,3.09293,-3.55260
-0.40677,1.79555,-0.24815,-0.37846,-0.20973,0.40256,0.14932,1.22739,0.26925,1.27485,0.68000,0.23574,-0.25343,-0.69731,-0.53800,0.40010,0.95057,-7.14047,-3.43276
-0.41560,1.79484,-0.24258,-0.37523,-0.19567,0.41170,0.21973,1.12645,0.28159,0.80612,0.94179,0.78879,-0.25379,-0.69403,-0.53780,0.40580,2.88214,-9.07991,-0.23302
-0.42178,1.79342,-0.23637,-0.36743,-0.18215,0.42314,0.31619,1.03997,0.31643,0.92000,0.91670,0.69371,-0.25292,-0.69023,-0.53828,0.41214,7.73980,-5.19307,1.54193
-0.42626,1.79161,-0.23004,-0.35661,-0.16978,0.43049,0.35594,0.94056,0.33808,1.02985,1.04538,0.58329,-0.25191,-0.68729,-0.53839,0.41749,5.44745,-7.10363,1.71307
-0.43042,1.79019,-0.22364,-0.34315,-0.15411,0.43723,0.38400,0.80688,0.34687,0.97272,1.15541,0.28213,-0.25009,-0.68506,-0.53900,0.42146,2.57197,-10.04377,0.57125
-0.43424,1.78923,-0.21741,-0.32708,-0.13398,0.43956,0.38448,0.72373,0.37557,0.94587,1.25781,0.21131,-0.24841,-0.68310,-0.53871,0.42598,-0.02824,-6.34218,1.22210
-0.43802,1.78811,-0.21112,-0.31393,-0.12148,0.44244,0.41354,0.68567,0.39456,1.27286,1.00090,0.22497,-0.24686,-0.68028,-0.53880,0.43125,1.81065,-2.11385,1.97086
-0.44132,1.78724,-0.20482,-0.29618,-0.10785,0.44478,0.42604,0.60715,0.39407,1.27149,0.87421,0.17333,-0.24491,-0.67813,-0.53926,0.43515,1.28763,-6.08476,-0.11623
-0.44417,1.78645,-0.19829,-0.27464,-0.09595,0.45064,0.50054,0.62410,0.39713,1.33154,0.88887,0.63745,-0.24330,-0.67403,-0.54035,0.44103,3.11451,-0.73724,0.05512
-0.44672,1.78585,-0.19146,-0.25266,-0.08311,0.46008,0.62440,0.67745,0.39916,1.81542,1.04280,0.70999,-0.24149,-0.66821,-0.54243,0.44827,8.82136,4.86263,0.19627
-0.44887,1.78547,-0.18441,-0.22970,-0.07007,0.47105,0.71943,0.63815,0.37805,2.28179,1.10290,1.14105,-0.23882,-0.66319,-0.54536,0.45357,7.53954,0.64470,-0.33383
-0.45002,1.78535,-0.17659,-0.19513,-0.05578,0.49246,0.86855,0.46231,0.30435,2.32287,0.79448,1.44860,-0.23396,-0.65837,-0.55160,0.45558,9.23697,-9.03308,-4.91789
-0.45102,1.78511,-0.16854,-0.16588,-0.04670,0.51275,1.01225,0.27757,0.25053,1.93868,0.48392,1.45906,-0.22784,-0.65375,-0.55865,0.45675,9.91269,-13.66263,-5.87727
-0.45213,1.78466,-0.16057,-0.14606,-0.04357,0.52656,1.12179,0.17343,0.22577,1.97860,0.17111,1.31593,-0.22184,-0.64865,-0.56527,0.45880,11.18542,-11.08749,-4.37963
-0.45196,1.78438,-0.15220,-0.10968,-0.03781,0.54325,1.26353,0.01799,0.14768,2.00506,0.54631,0.49968,-0.21491,-0.64310,-0.57434,0.45866,8.54229,-8.99895,-5.46673
-0.45195,1.78431,-0.14447,-0.08392,-0.03014,0.54601,1.32429,-0.03272,0.10556,2.19246,0.62243,-0.02503,-0.20941,-0.63752,-0.58156,0.45990,6.15915,-4.64949,-3.36744
-0.45098,1.78459,-0.13708,-0.04813,-0.01853,0.54241,1.39757,-0.03190,0.04258,2.12126,0.79464,-0.27813,-0.20477,-0.63073,-0.58936,0.46142,3.29296,-1.59066,-4.49245
-0.45001,1.78476,-0.12980,-0.02075,-0.01142,0.53786,1.47696,0.04124,0.00412,2.30288,0.44658,-0.44166,-0.20083,-0.62247,-0.59689,0.46467,6.91891,5.83639,-2.32108
-0.44836,1.78493,-0.12273,0.01114,-0.00594,0.53094,1.53354,0.07563,-0.05325,2.44734,0.28971,-0.47558,-0.19710,-0.61423,-0.60482,0.46697,5.60318,5.02771,-2.92097
-0.44609,1.78520,-0.11532,0.04648,-0.00002,0.53159,1.63536,0.00463,-0.13414,2.15557,0.54929,0.50156,-0.19158,-0.60606,-0.61478,0.46694,4.75212,-3.87487,-5.87769
-0.44369,1.78565,-0.10744,0.07620,0.00772,0.53968,1.78188,-0.12375,-0.19785,2.31923,0.59615,0.55414,-0.18378,-0.59745,-0.62627,0.46590,10.82673,-5.52114,-4.81606
-0.44123,1.78619,-0.09950,0.09935,0.01483,0.54677,1.86919,-0.37324,-0.29161,1.98446,0.53354,0.53005,-0.17430,-0.59096,-0.63873,0.46089,7.78288,-16.47837,-8.20472
-0.43835,1.78697,-0.09141,0.12404,0.02429,0.55474,1.94159,-0.76438,-0.40884,1.20635,0.53764,0.43076,-0.16176,-0.58662,-0.65280,0.45118,5.12343,-23.81923,-10.61825
-0.43585,1.78764,-0.08334,0.13692,0.02981,0.56046,2.01849,-0.96523,-0.45626,0.64812,0.49115,0.64043,-0.14983,-0.58062,-0.66580,0.44401,4.13511,-21.30832,-8.03248
-0.43307,1.78854,-0.07500,0.15154,0.03818,0.56938,2.19108,-1.06410,-0.43899,0.79371,0.49799,0.37557,-0.13636,-0.57165,-0.67942,0.43933,10.22322,-4.42774,1.62241
-0.43045,1.78954,-0.06674,0.16039,0.04634,0.57528,2.30155,-1.15544,-0.45423,0.46244,0.74400,0.46110,-0.12346,-0.56297,-0.69270,0.43357,6.83604,-7.54279,-2.02744
-0.42791,1.79072,-0.05846,0.16565,0.05557,0.57983,2.38909,-1.20799,-0.42877,0.35387,0.71128,0.25432,-0.11009,-0.55388,-0.70523,0.42865,8.16514,-4.72317,1.18595
-0.42538,1.79205,-0.05023,0.16934,0.06474,0.58241,2.46564,-1.30547,-0.41637,0.24068,0.54712,0.10805,-0.09547,-0.54497,-0.71793,0.42245,5.85370,-6.40596,0.90458
-0.42296,1.79325,-0.04213,0.17029,0.06971,0.58235,2.51349,-1.49112,-0.45894,0.24257,0.18947,-0.18971,-0.07958,-0.53715,-0.73108,0.41312,4.32253,-9.61744,-1.76995
-0.42079,1.79447,-0.03430,0.16692,0.07408,0.57760,2.49426,-1.78904,-0.60758,-0.44701,0.45685,-0.37943,-0.06302,-0.53170,-0.74481,0.39822,-0.05409,-19.42926,-12.86210
-0.41897,1.79589,-0.02657,0.15848,0.08055,0.57235,2.51956,-1.92883,-0.66636,-1.40234,0.91554,-0.35232,-0.04673,-0.52427,-0.75776,0.38569,0.12876,-15.75105,-12.45633
-0.41792,1.79819,-0.01916,0.13919,0.10026,0.56306,2.62688,-1.86696,-0.52858,-1.63390,1.44412,-0.82011,-0.02987,-0.51310,-0.76906,0.37997,6.08206,0.28213,7.74895
-0.41702,1.80104,-0.01200,0.12184,0.12462,0.55166,2.70215,-1.71340,-0.27601,-1.13511,1.86448,-0.98561,-0.01314,-0.50091,-0.77792,0.37915,3.81797,7.14260,20.35961
-0.41615,1.80414,-0.00509,0.10836,0.14710,0.53894,2.72510,-1.62143,-0.12787,-1.05187,1.78191,-1.19509,0.00294,-0.48935,-0.78650,0.37676,1.56210,6.54786,16.64333
-0.41606,1.80775,0.00136,0.08462,0.17274,0.52166,2.75840,-1.52101,0.14027,-1.82217,1.42702,-0.94256,0.02081,-0.47702,-0.79310,0.37816,0.26468,4.95489,16.76654
-0.41678,1.81109,0.00784,0.05277,0.18822,0.50853,2.75014,-1.65155,0.28816,-2.26928,0.62022,-1.01049,0.04204,-0.46733,-0.79956,0.37489,-0.63748,-5.13543,14.99806
-0.41796,1.81395,0.01436,0.02172,0.19201,0.49960,2.71741,-1.91329,0.26933,-3.26030,0.05942,-0.69892,0.06485,-0.45988,-0.80663,0.36558,-2.89387,-19.86571,-1.08153
-0.42165,1.81599,0.02045,-0.04209,0.18144,0.48577,2.75095,-2.35989,0.29219,-4.61878,-1.27377,-0.91867,0.09494,-0.45339,-0.81299,0.35280,1.53146,-27.88078,-4.73152
-0.42682,1.81676,0.02629,-0.11740,0.15218,0.47052,2.88634,-2.80851,0.36671,-4.94340,-2.41183,-0.99789,0.12927,-0.44452,-0.81877,0.33957,7.26583,-29.20177,0.46982
-0.43299,1.81578,0.03128,-0.19421,0.09931,0.44370,3.15834,-3.15377,0.51310,-4.95867,-4.00625,-2.28587,0.16615,-0.43064,-0.82431,0.32781,15.15899,-23.45704,7.50797
-0.43969,1.81361,0.03488,-0.26311,0.03801,0.39888,3.43314,-3.40199,0.73097,-4.96081,-4.48743,-4.25103,0.20428,-0.41384,-0.82818,0.31799,18.89052,-19.99066,13.24645
-0.44664,1.81109,0.03694,-0.31838,-0.01347,0.33948,3.60675,-3.62837,0.86520,-4.13868,-4.29905,-5.83646,0.24235,-0.39743,-0.83025,0.30658,13.60445,-20.61844,15.46107
-0.45458,1.80760,0.03622,-0.37666,-0.06815,0.24863,3.81195,-3.90214,0.87062,-4.03237,-3.47978,-7.24095,0.28181,-0.37967,-0.83192,0.29043,15.46263,-18.68797,1.10541
-0.46361,1.80432,0.03218,-0.44048,-0.10677,0.12167,3.96550,-4.26233,0.89321,-3.97537,-1.29856,-8.86380,0.32429,-0.36231,-0.83038,0.27210,12.39943,-21.04885,-1.43102
-0.47261,1.80251,0.02623,-0.48948,-0.11168,-0.00991,3.97023,-4.60831,0.99961,-3.13508,0.60177,-10.48490,0.36765,-0.34694,-0.82421,0.25526,3.96000,-24.68747,0.79769
-0.48115,1.80191,0.01830,-0.51827,-0.09531,-0.14131,3.83569,-4.89232,1.23439,-2.20711,2.15059,-11.91758,0.41140,-0.33318,-0.81299,0.24247,-6.33099,-26.91800,3.52864
-0.48894,1.80296,0.00621,-0.52718,-0.05569,-0.30919,3.50730,-5.22083,1.60203,0.96027,3.45323,-12.66226,0.45732,-0.32342,-0.79441,0.23487,-26.71953,-31.50918,16.44021
-0.49451,1.80560,-0.00890,-0.49714,0.00109,-0.48779,3.22199,-5.51106,1.64329,3.99213,4.71380,-12.79180,0.50016,-0.31605,-0.77529,0.22108,-21.35486,-25.37046,-3.99797
-0.49724,1.81037,-0.02635,-0.42716,0.08023,-0.66375,3.05592,-5.71000,1.43024,6.48010,6.63306,-12.45200,0.53914,-0.30903,-0.75730,0.20083,-6.24031,-14.52360,-17.75791
-0.49616,1.81870,-0.04714,-0.30840,0.20190,-0.85736,2.83035,-5.88329,1.27003,8.41078,9.02639,-12.09448,0.57667,-0.30375,-0.73641,0.18133,-5.18422,-7.77076,-18.41800
-0.49353,1.82876,-0.06714,-0.19194,0.32392,-0.99241,2.53799,-6.00941,1.18535,11.13386,11.51779,-11.01205,0.61261,-0.30010,-0.71244,0.16455,-16.35628,-11.95923,-12.66652
-0.48607,1.84409,-0.08946,-0.02451,0.50283,-1.13209,2.13212,-6.13001,0.87171,13.36647,14.11615,-9.25134,0.64440,-0.30404,-0.68661,0.14446,-18.26306,-6.78989,-29.18179
-0.47407,1.86382,-0.11203,0.17939,0.71306,-1.24360,1.62501,-6.21785,0.51987,16.78410,16.71583,-7.56454,0.67287,-0.31349,-0.65824,0.12527,-20.59762,-4.91426,-28.88439
-0.45715,1.88815,-0.13421,0.41714,0.95006,-1.32280,1.11919,-6.30032,-0.14176,18.14983,17.28896,-4.08885,0.69589,-0.33192,-0.62904,0.09937,-18.44847,-4.06631,-62.98277
-0.43244,1.91814,-0.15505,0.73348,1.23004,-1.36152,0.63152,-6.21986,-0.84218,21.61158,18.11598,-0.13717,0.71274,-0.35434,-0.60088,0.07339,-16.05849,5.00072,-49.37843
-0.40415,1.95031,-0.17295,1.04085,1.48569,-1.34311,0.29345,-5.96007,-1.64979,23.25166,18.75018,2.61571,0.72215,-0.37940,-0.57674,0.04384,3.55146,18.96112,-59.79601
-0.37256,1.98438,-0.18848,1.32635,1.70892,-1.28972,-0.16815,-5.66771,-2.39647,24.92418,18.93616,5.78860,0.72612,-0.41056,-0.55127,0.01714,-7.13820,24.41432,-66.78917
-0.32984,2.02597,-0.19901,1.73083,2.00489,-1.16492,-0.70640,-5.16621,-3.69585,26.72715,17.93031,9.45774,0.71431,-0.45785,-0.52903,-0.01601,-1.69788,30.15966,-85.14732
-0.28293,2.06739,-0.20660,2.11753,2.23279,-1.01845,-1.13816,-4.65527,-4.85162,29.14966,14.75195,11.55701,0.69596,-0.50672,-0.50643,-0.04910,5.53463,32.57759,-91.23101
-0.23512,2.10655,-0.21330,2.41681,2.36362,-0.89561,-1.40977,-4.22996,-5.60990,31.02215,11.62642,12.99739,0.67572,-0.55124,-0.48286,-0.07984,9.86146,35.23202,-86.54780
-0.16565,2.14869,-0.21005,3.00451,2.51267,-0.63794,-1.68493,-3.39523,-6.91011,34.62489,5.07329,16.08062,0.63268,-0.60843,-0.46551,-0.11330,16.41373,40.35720,-75.89838
-0.09417,2.18572,-0.20482,3.50560,2.54546,-0.39913,-1.69861,-2.43660,-7.92415,37.77300,-0.66622,17.86808,0.58222,-0.65929,-0.45325,-0.14464,36.86755,37.56447,-76.56236
-0.01766,2.21865,-0.19689,3.96527,2.50290,-0.17547,-1.80665,-1.35335,-8.83635,39.73189,-6.53468,18.70669,0.51970,-0.71109,-0.44261,-0.16839,46.43324,65.56153,-79.03508
0.08919,2.24375,-0.18099,4.62330,2.32260,0.12724,-2.07799,0.27540,-10.17050,40.67992,-16.47676,18.63766,0.42767,-0.77128,-0.43505,-0.18155,40.27308,82.44859,-96.15569
0.19952,2.25571,-0.16406,5.20650,2.00780,0.37522,-1.86966,1.54915,-11.22689,40.78982,-29.13048,17.70473,0.32951,-0.81791,-0.42805,-0.19802,51.94325,66.47527,-94.47124
0.31128,2.25168,-0.14544,5.77356,1.50314,0.59654,-1.08176,2.72074,-12.23469,38.30731,-43.43876,14.44771,0.21789,-0.84896,-0.42871,-0.21910,80.11938,24.91098,-90.16196
0.42112,2.23078,-0.12638,6.26089,0.79396,0.77386,-0.25356,3.83861,-13.03902,30.92636,-58.15409,10.65763,0.09796,-0.86664,-0.42981,-0.23367,82.72596,15.05198,-81.85253
0.53064,2.18855,-0.10761,6.62771,-0.10431,0.90564,0.64735,5.10865,-13.65415,21.17260,-71.18871,6.93828,-0.03061,-0.86939,-0.43304,-0.23603,84.74196,12.81898,-65.24892
0.63474,2.12319,-0.08933,6.81773,-1.17880,0.99821,1.85142,7.38467,-14.17064,4.56476,-82.75437,3.83628,-0.18165,-0.85231,-0.44558,-0.20501,130.86620,50.73233,-84.39422
0.72379,2.02615,-0.07394,6.70062,-2.55152,1.01669,4.39811,9.41590,-14.41535,-21.13737,-84.59017,-0.74524,-0.33812,-0.79159,-0.48202,-0.16342,202.90620,3.75739,-108.48870
0.78852,1.92806,-0.06588,6.19217,-3.62625,0.90717,5.41650,7.82914,-14.23366,-49.91061,-68.86285,-7.81986,-0.43343,-0.73141,-0.49284,-0.18517,38.30664,-103.79620,-70.48167
0.82515,1.83189,-0.06404,5.32682,-4.40737,0.71753,4.54448,4.38668,-13.32128,-70.04841,-41.89381,-15.06840,-0.46943,-0.69495,-0.48233,-0.25306,-218.05500,-148.34450,22.55667
0.84950,1.74825,-0.06297,4.47300,-4.77592,0.55980,3.52615,3.17097,-11.49306,-71.74684,-19.59489,-15.80773,-0.49500,-0.67681,-0.47050,-0.27485,-160.18400,-121.46220,99.86560
0.85961,1.67415,-0.06125,3.59983,-4.88794,0.45642,2.08144,2.27053,-8.77268,-51.05621,4.21713,2.69210,-0.48935,-0.68691,-0.45747,-0.28182,-83.70294,35.51766,180.30310
0.86618,1.60739,-0.05374,2.86542,-4.86463,0.47504,0.59701,0.11239,-6.37109,-42.62359,-0.31684,-0.80632,-0.45018,-0.69707,-0.45408,-0.32440,-173.12410,-118.53200,180.52030
0.88037,1.53731,-0.04630,2.43219,-4.90549,0.48961,0.69871,-0.32320,-5.69448,-34.71275,-6.21139,-1.15063,-0.46233,-0.67976,-0.45528,-0.34190,-47.93314,-54.14442,94.72290
0.89167,1.46342,-0.03993,2.06369,-4.99721,0.48263,1.19854,-0.35078,-5.93440,-30.80325,-9.03049,-2.25153,-0.49764,-0.64667,-0.45484,-0.35678,37.68459,-25.00589,11.14146
0.88886,1.38785,-0.03689,1.53971,-5.09036,0.42210,1.68053,-0.24129,-6.57936,-29.72065,-2.03573,-3.34729,-0.54413,-0.60370,-0.44879,-0.37156,43.83884,-1.88696,-30.83258
0.88911,1.31864,-0.03483,1.18300,-5.05662,0.36026,1.16257,-0.25605,-6.76804,-29.46317,6.74386,-5.28068,-0.57352,-0.57635,-0.42681,-0.39590,-32.22913,9.14214,-35.05122
0.88443,1.25482,-0.03371,0.83975,-4.94441,0.29929,0.69212,-0.14637,-6.43105,-26.66428,12.48807,-4.38600,-0.59373,-0.55850,-0.40661,-0.41260,-36.60670,23.48950,11.22674
0.87107,1.19942,-0.03301,0.43504,-4.71872,0.24550,-0.17341,-0.09523,-5.61280,-23.23730,15.65051,-2.05444,-0.59762,-0.55677,-0.38397,-0.43061,-48.58340,24.91299,48.88918
0.85855,1.14615,-0.03054,0.13290,-4.50705,0.23281,-0.78895,-0.13236,-4.88172,-20.55958,14.53700,-0.15609,-0.59863,-0.55444,-0.36497,-0.44837,-47.69327,17.70270,56.04791
0.84329,1.09398,-0.02687,-0.14510,-4.32674,0.24216,-0.88662,-0.13936,-4.42523,-19.80701,11.82079,1.62392,-0.60561,-0.54520,-0.35144,-0.46096,-12.11555,5.60039,38.21636
0.82478,1.04323,-0.02224,-0.41369,-4.16648,0.26406,-1.74287,-0.01369,-4.47406,-19.68945,10.59202,2.87407,-0.61017,-0.53835,-0.31630,-0.48767,-33.88161,14.50311,5.95754
0.80138,0.99511,-0.01683,-0.70122,-3.98902,0.29450,-3.12902,0.28377,-4.74783,-16.73477,11.18411,1.23748,-0.60860,-0.53552,-0.25998,-0.52462,-88.86529,42.88652,-20.58414
0.77813,0.94810,-0.01129,-0.92679,-3.84126,0.31975,-3.16819,0.41384,-4.84019,-15.16253,12.08987,0.39723,-0.61676,-0.52217,-0.22459,-0.54453,-27.99769,21.87284,-17.16659
0.75198,0.90420,-0.00507,-1.14707,-3.67508,0.35038,-2.03191,0.03813,-4.55992,-15.23009,12.88692,1.38265,-0.63237,-0.49849,-0.22257,-0.54962,59.16765,-33.83661,18.69641
0.72355,0.86393,0.00105,-1.35513,-3.49306,0.37202,-0.97366,-0.44841,-4.30847,-14.32629,13.84538,1.93940,-0.64855,-0.47066,-0.22807,-0.55303,74.95499,-57.23325,23.79012
0.69382,0.82761,0.00693,-1.53545,-3.28208,0.38401,-0.72928,-0.66043,-4.04002,-12.06804,15.16638,1.80366,-0.65640,-0.45073,-0.22262,-0.56252,29.47921,-31.19560,24.15660
0.66373,0.79440,0.01240,-1.67829,-3.06800,0.38529,-1.05545,-0.54727,-3.95745,-8.98312,15.23649,-0.65190,-0.65957,-0.43645,-0.20176,-0.57773,-22.97538,9.99111,4.76944
0.63366,0.76370,0.01690,-1.78796,-2.86404,0.37003,-1.23479,-0.27566,-3.83314,-7.15104,14.19031,-1.68654,-0.66386,-0.42547,-0.17951,-0.58825,-9.55511,19.52597,8.55458
0.60309,0.73487,0.02039,-1.88144,-2.67643,0.34135,-1.23291,0.06047,-3.79218,-6.71711,13.29821,-2.65477,-0.67135,-0.41436,-0.15561,-0.59445,-0.60488,26.57238,2.04278
0.57115,0.70811,0.02365,-1.97513,-2.49793,0.31520,-1.09350,0.32072,-3.88060,-6.91394,12.97184,-1.16753,-0.68206,-0.39975,-0.13159,-0.59806,18.04331,14.73480,-2.63174
0.53822,0.68479,0.02704,-2.06326,-2.30338,0.29742,-1.14617,0.56247,-3.99020,-4.93371,14.58806,-0.96336,-0.69005,-0.38545,-0.10335,-0.60380,0.97258,19.51871,-15.29755
0.50641,0.66426,0.03121,-2.11223,-2.10873,0.29748,-1.15027,0.60300,-3.77704,-1.73434,12.94312,0.36684,-0.69395,-0.37452,-0.08354,-0.60925,0.69821,7.42313,12.18355
0.47560,0.64512,0.03572,-2.13272,-1.93646,0.30189,-0.80594,0.32344,-3.40721,-0.87073,12.11175,-1.02630,-0.70004,-0.36106,-0.07757,-0.61120,8.93812,-10.85831,20.95741
0.44462,0.62630,0.04005,-2.15159,-1.80181,0.30285,-0.25752,-0.14653,-3.11808,-2.17371,11.04862,0.41790,-0.71019,-0.34197,-0.08120,-0.60999,38.66743,-45.95878,33.99056
0.41249,0.61199,0.04473,-2.18471,-1.62296,0.30916,0.22659,-0.74753,-2.98825,-2.15178,11.88350,0.63073,-0.72132,-0.31610,-0.08861,-0.60985,24.09176,-42.96728,8.18689
0.38058,0.59823,0.04972,-2.20630,-1.47740,0.31893,0.33243,-1.02078,-2.95342,-1.77958,12.19445,2.27417,-0.72873,-0.29303,-0.08797,-0.61266,14.53229,-37.62945,8.71002
0.34946,0.58964,0.05598,-2.20773,-1.27981,0.34694,-0.23369,-0.69160,-3.35363,1.33813,12.97065,2.14485,-0.72997,-0.27238,-0.06126,-0.62386,-25.43803,20.70882,-24.67792
0.32193,0.58444,0.06143,-2.14818,-1.06478,0.35519,-0.71300,-0.32808,-3.34329,7.01566,12.73749,-1.33864,-0.72719,-0.26016,-0.03702,-0.63415,-31.30917,34.33378,-12.76288
0.29685,0.57811,0.06573,-2.06176,-0.92133,0.34244,-0.55899,-0.51116,-2.75495,8.74896,10.98164,-2.76185,-0.72773,-0.25106,-0.03815,-0.63712,-5.23577,6.68458,32.78849
0.27319,0.57322,0.06942,-1.97524,-0.79178,0.32299,-0.07898,-1.21844,-1.97245,6.70371,11.00447,-2.32762,-0.73094,-0.23807,-0.06201,-0.63656,24.20968,-48.81677,67.47447
0.25122,0.57373,0.07228,-1.87988,-0.60038,0.29355,0.41511,-2.32451,-1.17234,3.93169,10.53349,-0.77349,-0.73276,-0.21817,-0.10276,-0.63633,18.68034,-68.01214,49.84201
0.22791,0.57318,0.07630,-1.82687,-0.46759,0.29059,0.31946,-2.59179,-1.15446,2.09520,9.33806,2.29201,-0.73173,-0.19720,-0.11604,-0.64204,1.60862,-41.34383,20.49150
0.20570,0.57419,0.08067,-1.76737,-0.33883,0.29409,-0.40444,-1.82413,-1.87487,5.75037,9.51192,-0.30250,-0.72688,-0.18011,-0.09027,-0.65655,-37.07338,47.32190,-55.90181
0.18728,0.57673,0.08352,-1.65601,-0.21572,0.26977,-0.79899,-1.15149,-2.06011,10.87978,7.23557,-3.66032,-0.72202,-0.17197,-0.06967,-0.66653,-29.39794,60.16319,-34.18268
0.17187,0.57852,0.08483,-1.52285,-0.13645,0.22614,-0.79709,-0.85859,-1.75775,12.43789,5.72372,-4.83313,-0.71948,-0.16880,-0.06428,-0.67062,-3.49012,33.80462,12.37589
0.16080,0.58112,0.08407,-1.35105,-0.06349,0.15928,-0.49476,-0.84247,-1.16796,13.25424,4.57263,-5.74718,-0.72033,-0.16899,-0.07210,-0.66886,16.08496,13.33503,35.60452
0.15329,0.58421,0.08210,-1.15771,0.00196,0.08756,-0.13146,-1.36851,-0.28545,11.14479,3.67103,-3.68190,-0.71971,-0.16750,-0.10089,-0.66617,20.53859,-35.34254,63.95955
0.14480,0.58667,0.08062,-1.02714,0.04194,0.04103,-0.04905,-1.54643,-0.00453,10.15371,3.58420,-3.60530,-0.71788,-0.16214,-0.11616,-0.66698,8.91879,-23.90654,36.27071
0.13926,0.58964,0.07786,-0.87981,0.08039,-0.01513,-0.05659,-1.44481,0.01258,10.37784,2.36363,-3.78115,-0.71647,-0.15738,-0.12221,-0.66856,0.33225,-0.71978,7.91634
0.13666,0.59235,0.07366,-0.71888,0.10682,-0.08185,-0.08381,-1.00110,-0.13309,12.52266,1.62739,-5.44178,-0.71680,-0.15647,-0.11684,-0.66937,-2.25714,27.48679,-12.41326
0.13780,0.59490,0.06750,-0.53339,0.12413,-0.16549,0.01311,-0.51990,-0.05567,14.51155,0.54769,-6.80770,-0.71892,-0.16220,-0.11262,-0.66646,1.51427,36.46381,0.04421
0.14399,0.59712,0.05897,-0.30340,0.13241,-0.27058,0.43178,-0.51892,0.65685,14.90379,0.26146,-7.00496,-0.72306,-0.17337,-0.13042,-0.65583,21.34770,6.68626,38.10584
0.15079,0.59936,0.05018,-0.11478,0.13919,-0.35649,0.72475,-0.45159,1.14750,11.89079,1.02016,-5.06977,-0.72682,-0.18451,-0.14653,-0.64515,26.61078,-7.52245,49.53375
0.15903,0.60214,0.04075,0.05342,0.15378,-0.43297,0.79531,0.00014,1.20517,11.37486,1.41735,-5.13261,-0.73074,-0.19719,-0.14697,-0.63682,4.81577,29.47134,8.82564
0.16879,0.60544,0.03061,0.20762,0.17370,-0.50326,0.75298,0.62841,1.06053,10.37045,1.65648,-4.48839,-0.73486,-0.21158,-0.13737,-0.62956,-2.12013,39.25894,-2.19497
0.18062,0.60935,0.01960,0.36065,0.19941,-0.57183,0.57759,1.44599,0.78844,11.65531,2.04765,-5.21333,-0.73814,-0.22925,-0.11634,-0.62375,-16.50547,58.29593,-18.84180
0.19412,0.61385,0.00779,0.50328,0.22841,-0.63652,0.48275,2.03542,0.83808,12.83454,2.37791,-5.90855,-0.73996,-0.25157,-0.10060,-0.61567,-14.60754,54.11491,-3.61190
0.21069,0.61795,-0.00576,0.67294,0.26643,-0.71826,0.42110,2.66537,1.10447,12.22392,3.12256,-6.19942,-0.74018,-0.28220,-0.08524,-0.60434,-4.21272,43.35998,19.61872
0.22867,0.62093,-0.02095,0.84608,0.31603,-0.81707,0.32441,3.42280,1.39224,10.35043,3.83774,-6.42377,-0.73828,-0.31929,-0.06515,-0.59055,-5.10571,47.13200,21.06528
0.24573,0.62518,-0.03617,0.95260,0.35934,-0.89079,0.19897,3.94074,1.55248,8.49889,4.19142,-6.35747,-0.73453,-0.35339,-0.04463,-0.57757,-9.08969,44.89026,17.12578
0.26485,0.63341,-0.05352,1.05101,0.41866,-0.97338,0.04989,4.31788,1.71322,6.05175,4.54604,-5.95477,-0.72811,-0.38758,-0.02428,-0.56484,-11.02167,32.07779,15.05535
0.28360,0.64356,-0.07189,1.12147,0.49434,-1.05528,-0.06826,4.32883,1.90343,3.39700,5.01235,-5.00745,-0.71993,-0.41770,-0.01115,-0.55418,-5.97269,5.20973,13.65351
0.30101,0.65438,-0.08979,1.15320,0.56399,-1.11095,-0.09236,4.07649,2.06421,1.45632,5.20548,-3.45177,-0.71213,-0.44314,-0.00460,-0.54450,3.49331,-15.62726,12.68167
0.31784,0.66671,-0.10761,1.16589,0.64015,-1.14983,-0.24706,3.84284,2.14874,0.31803,5.89944,-1.92945,-0.70185,-0.46686,0.00312,-0.53800,-2.24050,-20.19267,8.65488
0.33416,0.68075,-0.12537,1.16727,0.72736,-1.17862,-0.58894,3.77173,2.20188,-0.18238,6.48194,-1.74888,-0.68717,-0.49174,0.01602,-0.53454,-19.06710,-10.73666,8.79020
0.35013,0.69631,-0.14355,1.16239,0.81965,-1.20805,-0.95485,3.80038,2.31427,-0.63004,6.74775,-2.29962,-0.66889,-0.51880,0.03104,-0.53148,-24.91931,-2.60102,12.94858
0.36535,0.71401,-0.16271,1.14313,0.92772,-1.24749,-1.31544,3.87551,2.48142,-1.87350,6.78888,-2.50067,-0.64730,-0.54742,0.04699,-0.52833,-19.69315,1.72587,14.96355
0.37974,0.73154,-0.18188,1.11469,1.00708,-1.27750,-1.57798,3.94661,2.60465,-3.07933,6.64620,-2.51456,-0.62496,-0.57528,0.06329,-0.52390,-20.08909,3.92737,15.62754
