posX, posY, posZ, velX, velY, velZ, angVelX, angVelY, angVelZ, accX, accY, accZ, rotX, rotY, rotZ, rotW, angAccX, angAccY, angAccZ
-0.02619,1.12700,-0.53063,-0.25074,-0.12715,-0.05632,-0.05900,0.36793,-0.24834,0.67700,0.86125,0.14901,-0.18143,-0.92690,0.08542,-0.31725,5.06239,-1.17641,-1.74248
-0.02918,1.12591,-0.53152,-0.24353,-0.11370,-0.05655,-0.04056,0.35008,-0.20993,0.43380,1.15008,-0.05867,-0.18188,-0.92743,0.08584,-0.31530,2.22330,-2.03102,1.78438
-0.03214,1.12530,-0.53265,-0.23772,-0.09390,-0.06039,-0.02404,0.34884,-0.14572,0.32188,1.43196,-0.46332,-0.18137,-0.92826,0.08598,-0.31311,0.09984,-0.46113,3.91646
-0.03520,1.12531,-0.53403,-0.23472,-0.06785,-0.06808,0.06047,0.41051,-0.10118,0.05416,1.80334,-0.56665,-0.18153,-0.92977,0.08464,-0.30890,5.45456,3.14818,2.25918
-0.03844,1.12547,-0.53546,-0.23530,-0.04632,-0.07542,0.09792,0.45947,-0.04328,-0.06549,1.88128,-0.59682,-0.18079,-0.93135,0.08373,-0.30477,4.49963,4.60564,4.18234
-0.04169,1.12601,-0.53707,-0.23578,-0.02392,-0.08348,0.12780,0.50883,0.02188,-0.01499,1.93217,-0.63049,-0.17941,-0.93317,0.08262,-0.30030,2.82374,3.91501,4.85534
-0.04491,1.12717,-0.53891,-0.23597,0.00394,-0.09324,0.10005,0.51911,0.14969,0.03118,1.59900,-0.48262,-0.17555,-0.93502,0.08198,-0.29699,-0.58176,0.93867,7.97367
-0.04794,1.12814,-0.54086,-0.23336,0.02312,-0.10236,0.05876,0.51404,0.21977,0.21085,1.18885,-0.76869,-0.17222,-0.93653,0.08211,-0.29411,-3.42836,-1.13031,6.82005
-0.05089,1.12910,-0.54289,-0.22966,0.03667,-0.11087,0.03684,0.51580,0.23197,0.25309,1.03991,-0.67756,-0.17008,-0.93790,0.08239,-0.29091,-1.74911,0.67269,1.75760
-0.05375,1.13056,-0.54520,-0.22501,0.05552,-0.12265,0.03526,0.53127,0.22606,0.22600,1.11619,-0.65322,-0.16839,-0.93933,0.08248,-0.28724,-0.70320,0.60511,0.05669
-0.05668,1.13200,-0.54736,-0.22244,0.06943,-0.12929,0.06663,0.53819,0.22498,0.20546,1.21027,-0.45844,-0.16697,-0.94079,0.08165,-0.28350,1.94889,1.56286,-1.35149
-0.05955,1.13377,-0.54958,-0.21980,0.08596,-0.13488,0.09926,0.53183,0.23426,0.19790,1.22901,-0.36036,-0.16535,-0.94221,0.08043,-0.28005,2.03351,-0.13582,0.99814
-0.06238,1.13584,-0.55174,-0.21631,0.10266,-0.13875,0.13538,0.52199,0.26404,0.30814,1.16909,-0.16620,-0.16325,-0.94371,0.07867,-0.27670,2.90383,-0.31661,0.84513
-0.06508,1.13798,-0.55387,-0.21167,0.11669,-0.14131,0.16117,0.49475,0.28126,0.31781,0.85679,-0.15046,-0.16131,-0.94500,0.07689,-0.27393,2.06456,-2.03261,1.96443
-0.06766,1.14013,-0.55599,-0.20562,0.12728,-0.14323,0.19790,0.47444,0.27433,0.48880,0.62798,-0.17148,-0.16002,-0.94623,0.07483,-0.27101,2.01427,-1.63702,-0.01795
-0.07010,1.14227,-0.55812,-0.19867,0.13468,-0.14511,0.25903,0.46437,0.22010,0.45549,0.40862,-0.15967,-0.16029,-0.94733,0.07227,-0.26768,3.92156,-1.29796,-2.68004
-0.07246,1.14437,-0.56024,-0.19201,0.13959,-0.14621,0.32841,0.47650,0.14188,0.49440,0.30736,-0.02883,-0.16174,-0.94843,0.06945,-0.26361,4.75818,0.90174,-5.84592
-0.07470,1.14652,-0.56236,-0.18476,0.14425,-0.14686,0.36073,0.47338,0.07716,0.51407,0.44440,0.03534,-0.16321,-0.94936,0.06717,-0.25995,2.86758,-0.00248,-5.25069
-0.07699,1.14883,-0.56437,-0.18011,0.15003,-0.14599,0.35671,0.47027,0.05571,0.36844,0.62382,0.23747,-0.16372,-0.95033,0.06545,-0.25650,0.51208,0.07593,-3.06856
-0.07921,1.15143,-0.56623,-0.17558,0.16075,-0.14183,0.32584,0.42860,0.09341,0.29846,0.78323,0.33319,-0.16262,-0.95119,0.06389,-0.25438,-1.56656,-2.41441,1.50428
-0.08148,1.15412,-0.56802,-0.17269,0.16995,-0.13774,0.32056,0.39876,0.13381,0.20133,0.76917,0.32054,-0.16128,-0.95215,0.06174,-0.25215,-1.38943,-2.71435,3.70101
-0.08374,1.15705,-0.56967,-0.17040,0.18026,-0.13282,0.34147,0.38315,0.17398,0.12473,0.69229,0.30685,-0.15982,-0.95325,0.05885,-0.24963,0.98253,-1.54772,3.29057
-0.08600,1.15996,-0.57129,-0.16847,0.18784,-0.12866,0.36555,0.37093,0.21273,0.13590,0.39737,0.26164,-0.15820,-0.95437,0.05565,-0.24709,2.09517,-1.56882,2.81741
-0.08821,1.16275,-0.57290,-0.16601,0.19170,-0.12532,0.41653,0.37962,0.18921,0.15203,0.13544,0.16176,-0.15828,-0.95541,0.05204,-0.24378,2.63346,0.14517,-0.29481
-0.09030,1.16546,-0.57447,-0.16214,0.19306,-0.12192,0.46725,0.39347,0.14328,0.28137,0.00737,0.24629,-0.15926,-0.95637,0.04833,-0.24012,3.61365,1.06014,-3.49261
-0.09237,1.16808,-0.57602,-0.15905,0.19296,-0.11886,0.51002,0.40017,0.09056,0.17378,-0.03088,0.23156,-0.16072,-0.95719,0.04465,-0.23657,2.28994,0.48260,-3.80865
-0.09444,1.17063,-0.57748,-0.15640,0.19132,-0.11496,0.50930,0.38788,0.06077,0.18387,-0.15152,0.30036,-0.16168,-0.95788,0.04170,-0.23362,0.79870,-0.31791,-2.02343
-0.09650,1.17314,-0.57893,-0.15405,0.18913,-0.11159,0.50666,0.38659,0.02539,0.15389,-0.12413,0.23956,-0.16291,-0.95855,0.03895,-0.23048,-0.68743,-0.55441,-2.03474
-0.09857,1.17569,-0.58031,-0.15253,0.18799,-0.10807,0.48380,0.37542,0.02463,0.17394,-0.00882,0.43730,-0.16336,-0.95923,0.03653,-0.22773,-0.77843,-0.12258,-2.03408
-0.10064,1.17826,-0.58156,-0.15162,0.18752,-0.10325,0.41151,0.32295,0.08730,0.08194,0.04615,0.38805,-0.16171,-0.95984,0.03503,-0.22657,-4.43106,-3.16741,3.58708
-0.10279,1.18088,-0.58274,-0.15194,0.18814,-0.09859,0.29040,0.25458,0.22501,-0.01648,0.07583,0.32245,-0.15728,-0.96060,0.03455,-0.22655,-6.13233,-3.91582,6.79044
-0.10503,1.18344,-0.58411,-0.15386,0.18739,-0.09837,0.14183,0.20139,0.35004,-0.24716,-0.14383,-0.25407,-0.15179,-0.96136,0.03553,-0.22690,-11.49438,-6.14286,11.79621
-0.10744,1.18595,-0.58580,-0.15827,0.18598,-0.10370,0.03966,0.23389,0.42001,-0.44426,-0.14612,-0.72574,-0.14687,-0.96248,0.03680,-0.22521,-9.15974,-0.28515,7.08443
-0.10997,1.18852,-0.58769,-0.16340,0.18526,-0.11143,-0.01481,0.31541,0.42827,-0.37100,-0.04616,-0.53293,-0.14334,-0.96378,0.03798,-0.22167,-4.63128,5.85165,1.23479
-0.11248,1.19122,-0.58949,-0.16683,0.18704,-0.11557,-0.02378,0.37881,0.41492,-0.15956,0.25556,-0.07850,-0.14058,-0.96503,0.03838,-0.21790,-1.90154,5.33577,-0.55879
-0.11491,1.19417,-0.59092,-0.16838,0.19271,-0.11244,0.01493,0.38567,0.42092,-0.03200,0.44819,0.52952,-0.13774,-0.96611,0.03720,-0.21509,2.28405,1.95361,-0.50504
-0.11720,1.19717,-0.59201,-0.16699,0.19788,-0.10412,0.05678,0.33682,0.42232,0.22816,0.25323,0.62850,-0.13508,-0.96684,0.03547,-0.21380,2.19409,-3.24680,1.18679
-0.11921,1.20014,-0.59289,-0.16125,0.20130,-0.09414,0.16196,0.29431,0.35124,0.43242,0.11443,0.70263,-0.13495,-0.96731,0.03211,-0.21230,6.05762,-2.98796,-3.85903
-0.12107,1.20308,-0.59356,-0.15436,0.20342,-0.08320,0.30314,0.25967,0.24338,0.46022,0.12985,0.73402,-0.13675,-0.96759,0.02736,-0.21053,9.20126,-2.37374,-7.59744
-0.12288,1.20600,-0.59407,-0.14781,0.20462,-0.07198,0.49295,0.24509,0.09536,0.37708,-0.09268,0.57575,-0.14081,-0.96771,0.02078,-0.20804,11.99031,-0.98539,-8.71315
-0.12464,1.20877,-0.59474,-0.14218,0.20300,-0.06613,0.64822,0.26890,-0.06227,0.40043,-0.18019,0.28140,-0.14611,-0.96780,0.01432,-0.20449,11.78590,1.54208,-11.55362
-0.12644,1.21140,-0.59556,-0.13873,0.19935,-0.06442,0.72076,0.28641,-0.16198,0.19118,-0.21197,0.11908,-0.15063,-0.96787,0.00893,-0.20112,7.44576,2.21789,-8.74517
-0.12840,1.21396,-0.59661,-0.13889,0.19580,-0.06669,0.67892,0.28325,-0.17177,-0.04948,-0.15964,-0.13446,-0.15279,-0.96807,0.00577,-0.19864,-1.11143,0.85594,-2.39529
-0.13053,1.21655,-0.59781,-0.14194,0.19345,-0.07104,0.55077,0.25362,-0.09944,-0.19405,-0.01913,-0.25674,-0.15217,-0.96843,0.00471,-0.19738,-7.91035,-1.91170,4.14312
-0.13278,1.21921,-0.59911,-0.14646,0.19317,-0.07617,0.36957,0.18396,0.04040,-0.35002,0.14167,-0.42071,-0.14873,-0.96887,0.00530,-0.19784,-12.44838,-4.55714,8.89612
-0.13516,1.22213,-0.60058,-0.15217,0.19774,-0.08266,0.21559,0.12132,0.15612,-0.51814,0.50335,-0.55522,-0.14485,-0.96928,0.00632,-0.19867,-12.63702,-4.86152,9.56298
-0.13767,1.22542,-0.60206,-0.15844,0.20709,-0.08773,0.18097,0.11274,0.18819,-0.69249,0.94363,-0.64987,-0.14293,-0.96970,0.00556,-0.19807,-6.60237,-2.81454,5.48029
-0.14045,1.22956,-0.60378,-0.16805,0.22958,-0.09536,0.30275,0.17998,0.09586,-0.72835,1.76743,-0.64907,-0.14510,-0.97006,0.00163,-0.19475,6.15533,3.77393,-4.35484
-0.14344,1.23441,-0.60556,-0.17908,0.25952,-0.10213,0.50867,0.27339,-0.03496,-0.96427,2.49637,-0.58132,-0.14963,-0.97035,-0.00492,-0.18974,12.81159,6.37837,-8.94398
-0.14677,1.24028,-0.60742,-0.19356,0.30012,-0.10873,0.79858,0.38169,-0.19189,-1.09700,3.32017,-0.39557,-0.15651,-0.97045,-0.01471,-0.18307,19.56054,8.60081,-11.54277
-0.15039,1.24732,-0.60928,-0.20939,0.35055,-0.11400,1.06693,0.39996,-0.29590,-1.10674,4.01343,-0.25978,-0.16326,-0.97006,-0.02629,-0.17786,20.46102,4.13705,-8.85678
-0.15436,1.25559,-0.61138,-0.22741,0.41022,-0.12204,1.27875,0.34493,-0.35620,-1.44270,4.66629,-0.69953,-0.16945,-0.96919,-0.03851,-0.17455,15.62953,-3.70686,-5.40785
-0.15907,1.26527,-0.61391,-0.25414,0.47957,-0.13581,1.46951,0.33701,-0.38291,-2.42006,5.35761,-1.32864,-0.17524,-0.96833,-0.05154,-0.17021,13.94095,-3.21050,-3.04489
-0.16493,1.27639,-0.61696,-0.29437,0.55727,-0.15571,1.67534,0.45765,-0.38437,-3.28583,5.77477,-1.68508,-0.18082,-0.96786,-0.06576,-0.16194,14.46935,6.20776,-0.39867
-0.17217,1.28926,-0.62045,-0.34950,0.64773,-0.17826,1.90994,0.55867,-0.38801,-3.62285,5.22007,-0.74957,-0.18676,-0.96699,-0.08188,-0.15277,13.95929,11.24787,1.50035
-0.17968,1.30292,-0.62395,-0.39644,0.73171,-0.19643,2.03907,0.72531,-0.36331,-2.51198,7.07024,-2.02372,-0.19199,-0.96634,-0.09623,-0.14168,6.41510,6.16272,-3.95875
-0.18695,1.31752,-0.62769,-0.42707,0.80949,-0.21336,2.13099,0.83679,-0.33909,-3.02719,6.05099,-0.67630,-0.19673,-0.96539,-0.11066,-0.13067,10.81454,12.18397,9.34662
-0.19544,1.33361,-0.63099,-0.47068,0.89301,-0.21824,2.21980,0.89101,-0.29051,-2.83315,6.19004,0.20736,-0.20084,-0.96403,-0.12601,-0.12015,11.14133,7.34274,-1.06748
-0.20496,1.35151,-0.63424,-0.52281,0.98951,-0.22157,2.11046,0.81153,-0.04706,-3.70733,6.10231,-0.28000,-0.19807,-0.96377,-0.13783,-0.11364,-8.51228,-9.75296,15.62043
-0.21480,1.36943,-0.63717,-0.56762,1.06246,-0.21854,2.15958,0.91875,0.06297,-3.98694,6.14649,0.20488,-0.19821,-0.96294,-0.15197,-0.10184,-0.01249,2.30547,12.02409
-0.22578,1.38918,-0.63952,-0.62055,1.14808,-0.20630,2.30678,1.10767,0.13991,-3.74839,6.13262,1.28087,-0.19917,-0.96151,-0.16848,-0.08624,9.39984,12.57380,7.02665
-0.23731,1.40998,-0.64085,-0.67001,1.23145,-0.17930,2.52498,1.29410,0.17786,-3.51943,5.83696,2.49977,-0.20112,-0.95899,-0.18752,-0.06881,14.17787,12.98670,4.64152
-0.24941,1.43144,-0.64095,-0.71684,1.30725,-0.13772,2.73425,1.43892,0.21979,-3.14513,5.06010,3.44805,-0.20273,-0.95560,-0.20773,-0.05086,17.17492,11.86786,3.29048
-0.26178,1.45337,-0.64006,-0.75704,1.37325,-0.08913,2.86682,1.54918,0.24961,-2.57299,4.47481,3.71115,-0.20418,-0.95167,-0.22702,-0.03309,10.66021,7.06596,3.09614
-0.27422,1.47591,-0.63809,-0.78902,1.43266,-0.03390,2.96537,1.62660,0.26530,-2.06225,4.06046,4.35154,-0.20571,-0.94704,-0.24609,-0.01547,7.70999,7.09099,1.03354
-0.28684,1.49893,-0.63486,-0.81645,1.48592,0.02930,3.04570,1.66382,0.30038,-1.84239,3.70621,4.78312,-0.20633,-0.94183,-0.26531,0.00167,6.05080,2.18184,2.36090
-0.29953,1.52211,-0.63084,-0.83818,1.52849,0.09000,3.15144,1.72223,0.33925,-1.84450,3.52601,5.31407,-0.20667,-0.93565,-0.28540,0.02002,7.23802,3.15366,2.77276
-0.31282,1.54603,-0.62485,-0.86472,1.57313,0.16855,3.27082,1.76838,0.44377,-1.77282,3.00595,5.93469,-0.20475,-0.92877,-0.30646,0.03924,10.00014,3.55109,5.76854
-0.32654,1.57025,-0.61678,-0.89231,1.61361,0.26576,3.41274,1.84604,0.58619,-1.55669,2.08632,6.39159,-0.20121,-0.92092,-0.32831,0.06035,9.74724,3.30597,8.42757
-0.34007,1.59402,-0.60782,-0.91064,1.63721,0.35640,3.47558,1.84540,0.71919,-0.98224,1.27650,6.78167,-0.19644,-0.91287,-0.34889,0.07972,6.77634,0.05282,9.30680
-0.35343,1.61744,-0.59742,-0.92179,1.64954,0.45061,3.50700,1.81514,0.82278,-0.59393,0.41983,6.84347,-0.19118,-0.90430,-0.36888,0.09813,4.27750,-4.33654,7.08784
-0.36652,1.64024,-0.58520,-0.92473,1.65099,0.55764,3.51151,1.82908,0.88673,0.15336,-0.21125,6.72735,-0.18652,-0.89502,-0.38782,0.11724,1.12291,-0.47185,4.42827
-0.37912,1.66269,-0.57220,-0.91862,1.64476,0.65349,3.51393,1.88041,0.88294,0.53135,-0.59686,7.18558,-0.18354,-0.88465,-0.40619,0.13683,-0.97253,2.98918,0.97466
-0.39160,1.68488,-0.55801,-0.91226,1.63504,0.74385,3.56526,1.94145,0.89265,0.53529,-0.89000,8.03863,-0.18020,-0.87288,-0.42528,0.15730,2.19225,5.20698,0.68331
-0.40414,1.70627,-0.54097,-0.90821,1.61489,0.86041,3.69704,1.92938,0.98707,0.38318,-1.77542,8.70686,-0.17350,-0.85968,-0.44646,0.17754,9.13234,0.68278,3.80832
-0.41654,1.72636,-0.52111,-0.90277,1.57525,0.99887,3.86224,1.85354,1.12726,0.44906,-3.09552,8.78999,-0.16379,-0.84534,-0.46882,0.19694,10.89450,-6.60644,6.59831
-0.42877,1.74566,-0.50108,-0.89680,1.53151,1.10397,4.01727,1.80923,1.22156,0.54650,-4.17991,8.80437,-0.15422,-0.82946,-0.49125,0.21653,13.54663,-3.91805,4.95658
-0.44087,1.76285,-0.47867,-0.89016,1.46345,1.22242,4.18600,1.68545,1.34833,0.52078,-5.53783,8.22009,-0.14158,-0.81249,-0.51457,0.23457,14.00002,-7.74819,5.62078
-0.45289,1.77749,-0.45454,-0.88394,1.36607,1.34413,4.34521,1.52366,1.52692,0.39176,-6.77909,7.04321,-0.12568,-0.79474,-0.53771,0.25190,12.89595,-10.69151,6.41906
-0.46483,1.79069,-0.43100,-0.87675,1.26491,1.43077,4.41314,1.32579,1.68766,0.96377,-7.91343,5.53365,-0.10830,-0.77736,-0.55897,0.26744,9.08367,-13.86005,8.62503
-0.47636,1.80278,-0.40797,-0.86442,1.17029,1.48588,4.38309,1.07378,1.75870,1.23648,-8.35099,3.86710,-0.09093,-0.76099,-0.57847,0.27927,3.19773,-20.51200,2.23419
-0.48722,1.81135,-0.38476,-0.84398,1.03789,1.53052,4.24900,0.73453,1.84796,1.39831,-8.59962,1.82911,-0.07115,-0.74704,-0.59513,0.28756,-6.01739,-22.71621,0.21060
-0.49764,1.81906,-0.36265,-0.82085,0.91969,1.54474,4.07980,0.45842,1.89269,1.93033,-8.49233,0.26327,-0.05201,-0.73364,-0.60996,0.29499,-8.49795,-21.55929,-0.43648
-0.50748,1.82622,-0.34137,-0.79378,0.82236,1.54111,3.92712,0.25347,1.86261,2.50896,-8.04849,-0.97579,-0.03442,-0.72007,-0.62416,0.30123,-9.96368,-20.03032,-4.45331
-0.51562,1.83075,-0.32147,-0.74363,0.70371,1.51434,3.65782,0.16098,1.69467,3.36001,-7.16417,-2.51235,-0.02218,-0.70823,-0.63581,0.30605,-15.28261,-8.57362,-11.09976
-0.52256,1.83468,-0.30307,-0.68377,0.59883,1.46765,3.33079,0.27007,1.48054,3.91054,-6.14562,-3.41131,-0.01567,-0.69671,-0.64517,0.31322,-20.77543,6.65878,-11.14319
-0.52938,1.83934,-0.28509,-0.63625,0.53287,1.42452,3.03977,0.37326,1.28999,3.97214,-5.26018,-3.85263,-0.01056,-0.68557,-0.65373,0.32019,-23.37526,9.84096,-13.07166
-0.53525,1.84296,-0.26838,-0.58481,0.46607,1.37096,2.68761,0.55556,1.09617,3.19880,-4.40667,-3.80153,-0.00967,-0.67598,-0.65978,0.32810,-27.62746,11.23891,-13.73104
-0.54096,1.84601,-0.25224,-0.54312,0.40506,1.32059,2.37746,0.85373,1.04787,2.46336,-4.39115,-3.38826,-0.01009,-0.66565,-0.66377,0.34090,-24.77320,19.64606,-2.24043
-0.54681,1.84800,-0.23626,-0.51405,0.34024,1.27971,2.14737,1.03468,1.09194,1.92832,-4.92977,-2.38243,-0.00812,-0.65541,-0.66699,0.35426,-19.56444,15.95249,6.45302
-0.55285,1.84838,-0.22010,-0.49542,0.26413,1.25096,2.06272,0.99896,1.11057,1.26308,-5.63819,-1.43235,-0.00248,-0.64488,-0.67213,0.36382,-9.34683,0.63126,2.45146
-0.55898,1.84721,-0.20349,-0.48335,0.17947,1.23644,2.13081,0.79921,1.12951,0.85737,-6.31063,-0.44601,0.00774,-0.63330,-0.67967,0.37002,2.04532,-11.14890,-0.60938
-0.56513,1.84506,-0.18660,-0.47423,0.09976,1.23019,2.26897,0.49160,1.08543,1.17116,-6.90077,-0.49744,0.02087,-0.62135,-0.68933,0.37192,11.99385,-19.92706,-3.14380
-0.57059,1.83923,-0.17008,-0.45535,-0.02516,1.21902,2.51585,-0.00504,0.92302,0.88135,-6.92614,-0.92771,0.03809,-0.60909,-0.70253,0.36607,15.01548,-27.54442,-14.21168
-0.57610,1.83437,-0.15391,-0.44163,-0.10448,1.20420,2.64557,-0.16194,0.90863,0.75286,-6.48185,-1.75905,0.05251,-0.59538,-0.71308,0.36643,14.53391,-17.58173,-8.52620
-0.58128,1.82787,-0.13861,-0.42565,-0.19167,1.17800,2.74855,-0.10138,1.06255,0.70956,-6.16104,-2.21256,0.06652,-0.57929,-0.72167,0.37309,7.73679,-0.31892,7.68852
-0.58647,1.82048,-0.12409,-0.41280,-0.27259,1.14476,2.80285,0.01366,1.28864,1.03482,-5.59097,-2.73914,0.08081,-0.56236,-0.72829,0.38316,5.24804,6.97957,18.59105
-0.59140,1.81258,-0.11050,-0.39897,-0.34329,1.10517,2.79417,0.04020,1.43734,1.27332,-4.72140,-2.92522,0.09520,-0.54688,-0.73382,0.39161,-0.17231,2.05669,13.60233
-0.59624,1.80472,-0.09715,-0.38695,-0.39522,1.07062,2.75273,-0.06826,1.43132,1.32984,-4.24082,-2.92842,0.10979,-0.53353,-0.73961,0.39531,-2.61504,-5.70442,3.39849
-0.60068,1.79492,-0.08533,-0.37072,-0.46899,1.01763,2.73617,-0.37344,1.25285,0.75335,-4.10674,-2.94649,0.12617,-0.52255,-0.74683,0.39149,-0.84253,-15.05416,-13.18723
-0.60542,1.78508,-0.07371,-0.36330,-0.52794,0.97219,2.79145,-0.64678,1.08964,0.32192,-4.34889,-3.60590,0.14365,-0.51030,-0.75479,0.38633,4.65721,-16.57137,-14.52404
-0.61033,1.77465,-0.06289,-0.36084,-0.58152,0.92450,2.86613,-0.85720,1.01255,-0.03147,-4.49407,-4.30494,0.16238,-0.49701,-0.76223,0.38159,6.99821,-16.59653,-12.05889
-0.61538,1.76298,-0.05389,-0.36129,-0.64279,0.85828,2.99388,-1.10181,0.95685,-0.26647,-4.20865,-5.21762,0.18374,-0.48275,-0.76980,0.37497,10.13505,-15.81484,-8.01495
-0.62045,1.75049,-0.04723,-0.36185,-0.70416,0.76579,3.11855,-1.34265,0.98877,0.14194,-3.38962,-6.39445,0.20754,-0.46776,-0.77597,0.36879,9.40848,-14.78287,-0.72807
-0.62511,1.73879,-0.04111,-0.35527,-0.73686,0.68668,3.18396,-1.51519,0.97908,1.13598,-2.14739,-7.01181,0.23022,-0.45308,-0.78145,0.36200,7.21563,-14.01193,0.16575
-0.62856,1.72739,-0.03749,-0.32919,-0.75593,0.58503,3.21269,-1.65159,0.89141,2.74432,-0.63071,-7.77436,0.25161,-0.43907,-0.78689,0.35314,4.09933,-11.41764,-7.25874
-0.62987,1.71702,-0.03665,-0.27172,-0.75240,0.45800,3.17329,-1.58586,0.82334,4.02496,1.15150,-8.46399,0.26851,-0.42448,-0.79214,0.34675,-0.43741,2.52522,-6.20418
-0.63044,1.70786,-0.03613,-0.21594,-0.72960,0.35649,3.05210,-1.39488,0.90017,4.87548,2.65679,-8.85838,0.28287,-0.40959,-0.79541,0.34574,-8.54693,11.99648,5.41256
-0.62944,1.70064,-0.03831,-0.14783,-0.67899,0.23471,2.84792,-1.20314,0.91503,4.90975,4.50849,-8.91996,0.29425,-0.39697,-0.79790,0.34523,-14.64223,14.40466,5.50227
-0.62788,1.69559,-0.04228,-0.08643,-0.60366,0.11157,2.58833,-1.11816,0.90381,4.07816,6.27061,-8.93826,0.30556,-0.38748,-0.79884,0.34402,-17.28513,7.50537,-1.28560
-0.62604,1.69283,-0.04788,-0.03492,-0.50737,-0.00988,2.26919,-1.14327,0.91690,3.38183,7.46690,-8.65452,0.31789,-0.38157,-0.79728,0.34307,-22.39254,-1.00961,-1.56918
-0.62392,1.69226,-0.05501,0.00932,-0.39688,-0.12854,1.95946,-1.27273,0.84026,3.37100,8.42643,-8.40526,0.33106,-0.37894,-0.79473,0.33942,-22.26044,-8.38425,-3.42927
-0.62134,1.69393,-0.06353,0.05086,-0.27449,-0.24274,1.66756,-1.49410,0.57334,3.10841,9.19495,-8.01978,0.34395,-0.38060,-0.79248,0.32989,-19.09206,-13.41703,-20.33635
-0.61822,1.69788,-0.07330,0.09184,-0.14262,-0.35089,1.37101,-1.72582,0.26377,2.88039,9.72106,-7.65007,0.35627,-0.38546,-0.78965,0.31772,-16.92255,-14.84069,-26.26672
-0.61409,1.70492,-0.08481,0.14096,0.01272,-0.46469,0.99042,-1.95172,0.01091,3.14731,9.76750,-6.77758,0.36801,-0.39434,-0.78447,0.30606,-21.26143,-14.08143,-21.47881
-0.60960,1.71167,-0.09571,0.18466,0.12577,-0.54087,0.67265,-2.04281,-0.05290,3.77687,9.21467,-6.15763,0.37910,-0.40185,-0.77821,0.29865,-24.36651,-9.89405,-13.33446
-0.60308,1.72141,-0.10852,0.25277,0.26274,-0.63124,0.27331,-2.11251,-0.05583,4.42757,8.04590,-5.27568,0.38919,-0.41245,-0.76947,0.29384,-24.88865,-4.53682,-5.65120
-0.59558,1.73100,-0.12120,0.32257,0.36606,-0.69899,-0.04878,-2.10870,0.06170,5.52460,6.90470,-4.39899,0.39924,-0.42147,-0.75983,0.29263,-25.44802,-1.26008,5.26592
-0.58644,1.74114,-0.13421,0.40353,0.45338,-0.75550,-0.26141,-2.07166,0.10585,6.20409,5.73116,-3.53157,0.40826,-0.42983,-0.75110,0.29055,-18.01107,2.26447,2.50610
-0.57590,1.75169,-0.14753,0.48914,0.52694,-0.80407,-0.32642,-2.09409,0.01945,6.33006,4.91726,-3.22280,0.41771,-0.43760,-0.74381,0.28421,-6.69161,0.24728,-4.41963
-0.56422,1.76266,-0.16140,0.57406,0.59000,-0.85081,-0.31956,-2.22694,-0.12729,6.15837,4.21142,-3.31416,0.42898,-0.44586,-0.73632,0.27390,0.85800,-7.88184,-10.32025
-0.55193,1.77360,-0.17556,0.64815,0.63700,-0.89101,-0.29889,-2.41750,-0.24415,6.39200,3.72532,-3.37544,0.44206,-0.45441,-0.72764,0.26199,2.67999,-13.07264,-9.46726
-0.53676,1.78576,-0.19108,0.75352,0.69323,-0.94435,-0.25585,-2.72967,-0.44264,6.97888,3.37079,-3.43784,0.45728,-0.46470,-0.71760,0.24495,5.62820,-19.45912,-12.60978
-0.52022,1.79806,-0.20676,0.85888,0.73919,-0.98808,-0.30761,-3.00864,-0.52500,8.18210,3.27758,-2.94550,0.47317,-0.47594,-0.70484,0.22978,-2.06382,-20.55132,-6.76065
-0.50130,1.81101,-0.22268,0.97990,0.78537,-1.02560,-0.31924,-3.28515,-0.71105,9.42293,3.37459,-2.48614,0.48859,-0.48816,-0.69181,0.21069,-0.50309,-19.63729,-10.47550
-0.48078,1.82433,-0.23857,1.09720,0.82589,-1.05282,-0.36496,-3.51575,-0.87964,10.39822,3.40408,-2.18000,0.50333,-0.50130,-0.67746,0.19082,0.71961,-20.67972,-14.75634
-0.45499,1.83898,-0.25485,1.27711,0.87971,-1.08038,-0.41280,-3.82436,-1.16174,12.49767,3.42437,-1.25230,0.51790,-0.51697,-0.66105,0.16594,-1.76436,-19.57738,-15.54553
-0.42647,1.85395,-0.27056,1.46352,0.92689,-1.09156,-0.53374,-4.00737,-1.36708,14.37596,3.41705,-0.55461,0.53032,-0.53321,-0.64344,0.14290,-0.80749,-15.81944,-18.42654
-0.39528,1.86933,-0.28558,1.64777,0.96887,-1.08841,-0.68443,-4.10644,-1.55849,16.66134,3.59828,0.92253,0.54045,-0.55044,-0.62482,0.12059,-11.57441,-8.15740,-15.31860
-0.35543,1.88616,-0.29927,1.93612,1.02549,-1.06295,-0.85438,-4.20626,-1.89190,20.13258,3.45391,2.41922,0.54713,-0.57076,-0.60490,0.09478,-5.12515,-8.00046,-22.94738
-0.31101,1.90319,-0.31114,2.23834,1.07312,-1.01167,-0.90189,-4.21387,-2.28005,23.63227,3.53872,5.31904,0.55013,-0.59037,-0.58685,0.06647,-0.36597,-2.76100,-26.26865
-0.25929,1.92148,-0.31946,2.59411,1.13135,-0.91129,-0.91280,-3.99551,-2.84040,28.40060,4.81516,9.04065,0.54439,-0.61187,-0.57266,0.03638,8.81975,2.99698,-32.07388
-0.19898,1.94181,-0.32329,3.01168,1.21050,-0.75777,-0.93861,-3.40718,-3.73655,32.44093,6.19827,12.44287,0.52221,-0.63870,-0.56509,0.00520,18.10999,33.69882,-57.18556
-0.12966,1.96375,-0.32311,3.48414,1.29788,-0.57304,-0.98782,-2.68408,-4.97760,36.43646,5.54236,13.30209,0.48358,-0.67193,-0.56012,-0.03048,26.31324,40.54143,-83.41476
-0.05055,1.98515,-0.32028,4.01120,1.35410,-0.38743,-1.33881,-1.85959,-6.34260,40.02184,1.70485,12.36298,0.42928,-0.71308,-0.55064,-0.06355,17.62241,47.12980,-102.12790
0.03472,2.00329,-0.31662,4.50871,1.34076,-0.23467,-1.71098,-1.18587,-7.66001,44.05927,-4.82892,13.18585,0.36502,-0.75566,-0.53496,-0.09773,-0.24167,60.66715,-109.23300
0.13984,2.01194,-0.30796,5.22398,1.16727,-0.03320,-1.76921,-0.70618,-9.67499,44.31817,-17.37293,14.09159,0.27600,-0.79797,-0.51399,-0.15126,7.12274,18.24833,-133.18480
0.24504,2.01042,-0.29953,5.77150,0.86475,0.11634,-1.54234,-0.56802,-10.99873,46.89917,-33.82056,11.05692,0.19259,-0.82442,-0.49028,-0.20704,29.48314,-16.14808,-103.92460
0.36410,1.98479,-0.28792,6.41081,0.23509,0.28219,-1.53417,0.20376,-12.92727,42.83423,-56.45555,12.39179,0.07303,-0.84833,-0.45679,-0.25757,17.66747,17.87107,-131.49900
0.48634,1.92373,-0.27133,6.95997,-0.85536,0.49559,-1.07772,1.43612,-14.74665,23.78833,-79.79728,13.81487,-0.06746,-0.85201,-0.42606,-0.29664,60.88681,23.11691,-133.32430
0.59344,1.84931,-0.25439,7.12747,-1.90894,0.66427,-0.18800,2.39937,-15.58590,3.01089,-94.99901,14.45709,-0.19587,-0.83333,-0.40289,-0.32386,83.24178,9.03413,-96.27647
0.68590,1.74961,-0.23543,7.01279,-3.09862,0.82164,1.34404,3.12004,-16.01171,-22.61358,-101.45320,11.47398,-0.32167,-0.78872,-0.39446,-0.34475,106.97860,-54.19559,-77.66457
0.73669,1.60304,-0.21349,6.27415,-4.86179,0.95889,3.74967,3.81287,-15.81336,-59.35128,-92.46143,3.45922,-0.44104,-0.71769,-0.41214,-0.34720,111.21170,-84.11884,-31.17038
0.77305,1.47864,-0.19798,5.43938,-5.87713,0.95601,4.99649,3.42795,-15.35748,-78.85990,-77.52225,-3.21597,-0.53135,-0.64569,-0.41382,-0.35987,61.90063,-108.46330,-9.91179
0.76678,1.33971,-0.18947,4.05880,-6.88455,0.83164,6.70420,3.06157,-14.33348,-93.34000,-49.17709,-13.97505,-0.60704,-0.56254,-0.43456,-0.35525,25.46068,-116.29040,6.89473
0.73748,1.20894,-0.19098,2.56757,-7.47572,0.60159,8.82661,3.01686,-13.17574,-94.23581,-25.60555,-15.28944,-0.67896,-0.46725,-0.46556,-0.32242,101.43890,-129.98930,24.79203
0.70961,1.09353,-0.19261,1.46304,-7.66016,0.42831,10.24564,2.50063,-12.63133,-90.86310,-5.38129,-12.13960,-0.74042,-0.36027,-0.48390,-0.29636,56.82700,-109.06860,-16.80371
0.65842,0.99154,-0.19344,0.24811,-7.57136,0.31605,11.15264,0.81062,-12.16682,-82.92140,15.88170,-2.44776,-0.77254,-0.24096,-0.51216,-0.28778,6.41396,-143.20410,-48.18827
0.60050,0.91083,-0.18861,-0.78879,-7.14126,0.31880,9.37608,-1.40803,-12.01888,-65.31908,39.61906,6.30723,-0.77331,-0.14942,-0.51771,-0.33414,-144.78600,-46.22536,-70.77096
0.54468,0.85299,-0.17828,-1.54050,-6.42550,0.41379,5.98551,-2.12581,-11.36129,-41.00740,58.54547,10.74864,-0.76537,-0.11098,-0.49320,-0.39831,-230.49560,76.20718,-16.55032
0.50194,0.81219,-0.16231,-1.89189,-5.59768,0.58422,0.46142,-0.99092,-9.95984,-14.69014,57.98212,13.43266,-0.74627,-0.15461,-0.42193,-0.49107,-277.56110,261.86180,96.83862
0.46916,0.78091,-0.14425,-1.99441,-4.80756,0.75311,-3.33617,0.99884,-7.39792,-0.24629,56.26930,9.02926,-0.72501,-0.23237,-0.34970,-0.54596,-223.61590,295.01090,113.53020
0.44018,0.75375,-0.12730,-2.01158,-4.13651,0.86233,-5.24391,2.10231,-5.49788,0.01489,45.23478,4.38283,-0.70087,-0.28758,-0.29473,-0.58243,-83.24852,193.79110,132.86700
0.41103,0.72796,-0.11414,-2.02930,-3.60239,0.88083,-5.72640,2.27709,-4.13171,-1.56453,34.63390,-3.90517,-0.67896,-0.31846,-0.26247,-0.60721,-41.80537,87.26823,99.25782
0.37973,0.70095,-0.10679,-2.07938,-3.21419,0.79818,-4.99002,1.94453,-3.53297,-5.96835,23.82604,-9.28736,-0.67268,-0.32005,-0.24608,-0.62009,46.42531,-17.01129,66.29056
0.34725,0.67031,-0.10337,-2.13598,-2.98129,0.67166,-3.98820,1.75933,-3.61592,-4.03438,17.27648,-12.30830,-0.67910,-0.30596,-0.22359,-0.62866,62.27603,-30.64231,-4.96153
0.31338,0.64303,-0.10549,-2.20362,-2.74669,0.48296,-2.28156,1.46296,-3.51744,-5.08572,13.82112,-10.93470,-0.70003,-0.28442,-0.21665,-0.61816,105.50490,-45.32397,5.61751
0.27892,0.61690,-0.10722,-2.26723,-2.54259,0.34233,-1.35966,1.58985,-3.71318,-4.60829,15.20304,-8.07600,-0.71815,-0.26667,-0.19281,-0.61317,75.71006,-21.19838,-16.55445
0.24532,0.59353,-0.10825,-2.30045,-2.34328,0.24760,-0.97013,2.04485,-3.82427,-1.73008,17.42930,-6.59973,-0.73232,-0.25859,-0.15821,-0.60976,48.85272,19.69064,-21.81374
0.21315,0.58114,-0.11114,-2.30280,-2.00256,0.14426,-0.94311,2.41449,-4.04875,2.38578,19.71708,-4.63669,-0.74131,-0.24965,-0.11768,-0.61179,3.38848,18.59208,-19.64970
0.18376,0.56707,-0.11220,-2.26031,-1.76708,0.09530,-0.86209,2.61712,-3.93018,5.31478,19.64035,-3.76609,-0.74765,-0.24519,-0.08466,-0.61134,7.13953,19.34680,1.86726
0.15772,0.55861,-0.11375,-2.17222,-1.49623,0.05082,-0.67333,2.63998,-3.61744,7.72101,19.16995,-2.96534,-0.75362,-0.24269,-0.05945,-0.60797,16.10530,3.71199,17.12378
0.13555,0.55523,-0.11526,-2.03650,-1.19890,0.01597,-0.38419,2.34645,-3.14863,9.79878,18.35596,-1.76350,-0.75932,-0.23923,-0.04607,-0.60339,18.40591,-17.80508,26.19530
0.11451,0.55109,-0.11606,-1.91387,-0.98512,0.00068,-0.21675,1.99562,-2.73741,10.98228,17.32420,-0.85988,-0.76325,-0.23503,-0.03616,-0.60076,16.37930,-29.33267,31.38832
0.09620,0.54940,-0.11654,-1.77809,-0.78721,-0.00539,-0.10471,1.63737,-2.36738,11.69136,15.92165,0.09752,-0.76622,-0.23064,-0.02972,-0.59902,10.41400,-32.67916,32.92258
0.08355,0.55284,-0.11659,-1.57989,-0.55083,-0.00324,-0.10742,1.39627,-2.08928,12.73466,14.31637,0.50765,-0.76762,-0.22696,-0.02185,-0.59897,0.13701,-19.01441,20.46695
0.07322,0.55656,-0.11667,-1.38755,-0.36067,-0.00169,-0.19005,1.34396,-1.91379,14.64564,13.14966,0.28952,-0.76800,-0.22484,-0.00934,-0.59961,-2.94363,-4.99823,11.38029
0.06706,0.56204,-0.11690,-1.16942,-0.18524,-0.00295,-0.36122,1.56841,-1.73190,16.54993,12.10311,0.24293,-0.76619,-0.22855,0.00901,-0.60053,-7.94530,9.29614,14.07348
0.06551,0.56936,-0.11741,-0.92480,-0.02034,-0.00961,-0.59642,2.00288,-1.43161,18.62571,11.18080,-0.63011,-0.76119,-0.24061,0.03142,-0.60142,-11.08627,32.02509,17.06263
0.06858,0.57824,-0.11863,-0.66073,0.13210,-0.02626,-0.88146,2.41896,-0.90501,19.67841,10.30112,-2.03918,-0.75158,-0.26087,0.05116,-0.60370,-14.55523,34.00456,34.87197
0.07582,0.58802,-0.12109,-0.38856,0.26402,-0.05974,-1.01946,2.66213,-0.22479,19.54185,8.54060,-3.19834,-0.74083,-0.28585,0.06357,-0.60450,-4.02042,24.94948,46.86152
0.08607,0.59816,-0.12487,-0.13075,0.37109,-0.10648,-1.04719,2.75098,0.43181,17.52099,7.13167,-3.80878,-0.72986,-0.31192,0.07059,-0.60417,5.03028,12.48293,48.27333
0.09964,0.60944,-0.13019,0.12625,0.47421,-0.16868,-1.01219,2.64601,1.01966,14.90744,6.38174,-4.39307,-0.71891,-0.33640,0.07199,-0.60401,7.49055,-0.88963,36.86757
0.11115,0.62040,-0.13565,0.28962,0.54757,-0.22005,-0.93385,2.43127,1.39681,12.55162,6.04769,-4.51998,-0.70931,-0.35668,0.07115,-0.60382,12.05114,-12.49155,33.70975
0.12593,0.63331,-0.14293,0.46892,0.63625,-0.28858,-0.78287,2.04657,1.78593,10.15390,5.52018,-4.17749,-0.70048,-0.37521,0.06294,-0.60381,14.46106,-19.86979,23.83220
0.14000,0.64678,-0.15023,0.59685,0.71510,-0.34283,-0.68520,1.71246,2.06920,8.23140,5.99275,-3.47657,-0.69117,-0.39238,0.05435,-0.60445,14.80936,-23.76746,21.56873
0.15517,0.66245,-0.15842,0.71474,0.81428,-0.40065,-0.69403,1.44287,2.32390,6.72899,6.48219,-3.79930,-0.67953,-0.40972,0.04581,-0.60685,3.11227,-16.16905,16.13608
0.16952,0.67823,-0.16699,0.78982,0.89067,-0.45067,-0.62345,1.27126,2.55247,5.89961,6.19052,-4.53124,-0.66832,-0.42817,0.03659,-0.60719,5.68905,-14.28922,18.01638
0.18492,0.69560,-0.17725,0.86323,0.97477,-0.51640,-0.43757,1.15754,2.79923,4.47106,6.08329,-4.65236,-0.65811,-0.44830,0.02475,-0.60441,15.29620,-8.14960,18.25987
0.20047,0.71471,-0.18872,0.92347,1.07046,-0.58893,-0.31521,1.17010,2.94808,3.01638,6.22770,-4.09363,-0.64744,-0.46898,0.01576,-0.60053,10.12557,1.04787,9.85224
0.21510,0.73404,-0.19987,0.95330,1.14678,-0.63825,-0.30270,1.24423,3.02645,1.93264,6.57653,-3.93071,-0.63526,-0.48974,0.00966,-0.59708,2.75055,6.25196,6.03165
