posX, posY, posZ, velX, velY, velZ, angVelX, angVelY, angVelZ, accX, accY, accZ, rotX, rotY, rotZ, rotW, angAccX, angAccY, angAccZ
-0.06540,1.05592,-0.54936,-0.27917,0.28739,-0.21892,0.42853,0.62525,0.29731,0.43976,2.74313,0.11817,-0.25830,-0.91627,0.09805,-0.29002,4.66018,-3.53954,6.34630
-0.06886,1.06221,-0.55214,-0.27118,0.32511,-0.21584,0.56734,0.56466,0.31191,0.54823,2.58454,0.15017,-0.25781,-0.91833,0.09161,-0.28604,8.22915,-4.16574,1.57534
-0.07215,1.06906,-0.55480,-0.26206,0.36432,-0.21106,0.77451,0.48318,0.28835,0.52245,2.19484,0.32722,-0.25913,-0.92003,0.08257,-0.28209,12.88730,-4.70641,-1.22276
-0.07540,1.07555,-0.55748,-0.25490,0.38870,-0.20720,0.95218,0.43095,0.21222,0.52122,1.89470,0.15897,-0.26208,-0.92134,0.07351,-0.27756,13.52749,-4.46887,-4.58091
-0.07850,1.08252,-0.56007,-0.24720,0.41531,-0.20315,1.19465,0.38307,0.09385,0.49934,1.90616,0.37968,-0.26764,-0.92220,0.06192,-0.27220,17.60003,-2.32790,-9.82057
-0.08158,1.08982,-0.56259,-0.24095,0.44117,-0.19849,1.38578,0.31956,-0.00604,0.41105,1.91027,0.35238,-0.27350,-0.92258,0.05001,-0.26746,13.92408,-3.61556,-7.89878
-0.08471,1.09758,-0.56502,-0.23752,0.46894,-0.19340,1.58085,0.27194,-0.07321,0.20678,2.17394,0.39537,-0.27948,-0.92290,0.03671,-0.26231,13.84295,-3.10434,-7.17711
-0.08802,1.10589,-0.56745,-0.23771,0.49892,-0.18948,1.72806,0.23201,-0.07514,-0.10512,2.18916,0.20573,-0.28404,-0.92335,0.02296,-0.25733,10.91689,-3.68986,-1.18149
-0.09149,1.11433,-0.56999,-0.24052,0.52384,-0.18812,1.79572,0.23745,-0.04241,-0.19073,2.04798,0.20584,-0.28723,-0.92414,0.01032,-0.25171,9.55568,-0.52585,0.40968
-0.09522,1.12324,-0.57270,-0.24728,0.55143,-0.18985,1.72252,0.23642,0.10471,-0.44594,1.54924,-0.12117,-0.28610,-0.92571,0.00007,-0.24741,-3.44872,-1.07679,8.63079
-0.09907,1.13192,-0.57559,-0.25462,0.56900,-0.19423,1.59051,0.24225,0.27052,-0.57190,1.01058,-0.40306,-0.28293,-0.92766,-0.00842,-0.24356,-8.49799,-1.18006,11.44232
-0.10304,1.14032,-0.57866,-0.26193,0.57749,-0.20043,1.47085,0.27172,0.38848,-0.70822,0.38215,-0.66152,-0.27969,-0.92969,-0.01605,-0.23914,-9.86029,0.09573,11.85401
-0.10712,1.14838,-0.58211,-0.27011,0.57906,-0.21111,1.35644,0.34888,0.45568,-0.67935,-0.18024,-0.91402,-0.27682,-0.93189,-0.02233,-0.23336,-9.49553,3.84590,6.91359
-0.11126,1.15608,-0.58590,-0.27747,0.57419,-0.22494,1.23813,0.45097,0.46749,-0.41399,-0.40152,-0.86230,-0.27487,-0.93401,-0.02716,-0.22658,-7.57268,6.10120,2.13608
-0.11530,1.16376,-0.58957,-0.28079,0.56973,-0.23384,1.15557,0.51271,0.44243,-0.25029,-0.32930,-0.62050,-0.27396,-0.93565,-0.03210,-0.22016,-7.11863,5.56949,-0.56404
-0.11925,1.17139,-0.59324,-0.28273,0.56843,-0.23981,1.11161,0.54702,0.41026,-0.12899,0.21559,-0.29774,-0.27357,-0.93701,-0.03753,-0.21393,-4.73680,3.10917,-2.45519
-0.12322,1.17944,-0.59667,-0.28472,0.57481,-0.24041,1.08073,0.52348,0.41506,-0.09868,0.60937,0.15931,-0.27237,-0.93821,-0.04369,-0.20899,-1.79428,-0.20733,-0.00688
-0.12720,1.18782,-0.59992,-0.28572,0.58383,-0.23796,1.06988,0.47568,0.42494,-0.00928,0.72212,0.14403,-0.27101,-0.93918,-0.05050,-0.20479,-1.22513,-3.69817,0.48528
-0.13103,1.19637,-0.60317,-0.28432,0.59456,-0.23579,1.08089,0.41651,0.40318,0.07099,0.82444,0.12915,-0.27052,-0.93970,-0.05784,-0.20107,0.12323,-3.54354,-0.70641
-0.13478,1.20505,-0.60638,-0.28195,0.60440,-0.23367,1.15137,0.37166,0.34442,0.17231,0.80448,0.04821,-0.27159,-0.93970,-0.06664,-0.19686,4.30982,-3.25651,-3.81636
-0.13837,1.21415,-0.60971,-0.27715,0.61790,-0.23441,1.27362,0.36194,0.20798,0.24135,0.95465,-0.31279,-0.27562,-0.93887,-0.07656,-0.19156,6.61040,-1.00960,-8.33515
-0.14203,1.22345,-0.61332,-0.27495,0.63250,-0.23970,1.41080,0.42839,0.06706,-0.00210,1.22347,-0.60855,-0.28093,-0.93793,-0.08684,-0.18392,8.90484,3.69055,-9.76874
-0.14579,1.23313,-0.61715,-0.27494,0.65001,-0.24716,1.53135,0.52896,-0.05040,0.09649,1.36887,-0.37779,-0.28669,-0.93694,-0.09713,-0.17469,10.27950,8.45628,-9.21465
-0.14954,1.24327,-0.62100,-0.27374,0.66927,-0.25387,1.51678,0.55730,-0.08848,0.20395,1.52636,-0.29639,-0.29028,-0.93626,-0.10519,-0.16758,1.48113,3.63535,-3.02291
-0.15317,1.25396,-0.62474,-0.27095,0.69341,-0.25704,1.52331,0.56549,-0.12651,0.17465,1.96632,-0.12790,-0.29411,-0.93527,-0.11373,-0.16072,-0.69782,1.48326,-2.42104
-0.15678,1.26540,-0.62837,-0.26839,0.72443,-0.25780,1.50974,0.53757,-0.13655,0.21782,2.63874,0.10768,-0.29726,-0.93420,-0.12216,-0.15488,0.23004,-0.64753,-2.49136
-0.16063,1.27794,-0.63186,-0.27063,0.76702,-0.25593,1.48712,0.47444,-0.07868,-0.40094,3.64473,0.18261,-0.29835,-0.93344,-0.13088,-0.15018,-2.82177,-4.93746,2.94532
-0.16500,1.29182,-0.63511,-0.28143,0.82245,-0.25032,1.54326,0.44176,0.03394,-1.07519,4.40871,0.37412,-0.29787,-0.93294,-0.14186,-0.14415,3.38502,-3.31184,7.12118
-0.16995,1.30712,-0.63824,-0.29917,0.88826,-0.24419,1.69939,0.49229,0.10960,-1.56542,5.06603,0.28349,-0.29832,-0.93203,-0.15519,-0.13507,8.49851,0.27684,6.73215
-0.17529,1.32372,-0.64108,-0.31922,0.96154,-0.23431,1.94961,0.59864,0.13557,-1.43954,5.54207,0.96452,-0.30041,-0.93021,-0.17138,-0.12288,17.65490,8.08641,2.74017
-0.18101,1.34167,-0.64340,-0.34105,1.04022,-0.21788,2.18281,0.65523,0.16131,-1.74539,5.85881,1.36441,-0.30225,-0.92771,-0.18889,-0.11098,16.68133,3.40286,2.18186
-0.18719,1.36153,-0.64491,-0.36581,1.13406,-0.19092,2.51398,0.70258,0.12877,-1.56638,5.74571,2.23529,-0.30594,-0.92343,-0.21008,-0.09773,20.55070,5.87223,-1.07810
-0.19339,1.38091,-0.64628,-0.38595,1.20201,-0.16608,2.63120,0.68647,0.10418,-1.54344,6.37488,1.83724,-0.30886,-0.91921,-0.22812,-0.08727,16.84034,-5.47244,-7.75389
-0.20023,1.40334,-0.64696,-0.41292,1.30732,-0.13349,2.76287,0.80940,0.21864,-2.34300,6.81710,2.63078,-0.30870,-0.91592,-0.24627,-0.07180,8.11400,8.68253,8.41821
-0.20834,1.42674,-0.64665,-0.45473,1.40288,-0.09272,2.83354,0.81627,0.45262,-3.27330,7.18299,3.35088,-0.30404,-0.91329,-0.26474,-0.05813,7.51846,0.02297,12.92233
-0.21725,1.45081,-0.64572,-0.49900,1.48779,-0.05013,2.92682,0.85652,0.72468,-4.00592,7.23771,3.77267,-0.29675,-0.91076,-0.28398,-0.04251,5.47416,-3.55111,21.08051
-0.22788,1.47717,-0.64282,-0.56219,1.59290,0.01788,3.07944,0.92288,1.10660,-3.92496,6.04351,4.78739,-0.28490,-0.90833,-0.30528,-0.02375,12.75923,1.48138,23.82895
-0.23882,1.50344,-0.63882,-0.61573,1.66808,0.08619,3.13586,0.95355,1.41494,-3.73586,4.67475,5.27504,-0.27225,-0.90575,-0.32476,-0.00589,6.28483,-1.45678,22.71532
-0.25016,1.52927,-0.63375,-0.66310,1.72300,0.16061,3.14313,0.95577,1.65327,-3.23889,3.24558,5.68498,-0.25908,-0.90277,-0.34315,0.01125,2.34328,-3.04685,18.54829
-0.26141,1.55467,-0.62783,-0.69707,1.75484,0.23004,3.15401,0.95587,1.78116,-2.64482,2.14313,6.08705,-0.24712,-0.89867,-0.36131,0.02803,1.65900,-2.40492,12.75231
-0.27316,1.58006,-0.61902,-0.73073,1.77696,0.33080,3.18619,0.94813,1.85195,-1.71734,0.78728,6.67565,-0.23557,-0.89346,-0.37980,0.04462,1.26063,-1.44810,5.94900
-0.28437,1.60466,-0.60984,-0.74708,1.78031,0.41349,3.28270,0.96086,1.83648,-1.24409,-0.06891,7.15911,-0.22594,-0.88622,-0.39972,0.06156,5.36832,0.45356,-0.08789
-0.29550,1.62873,-0.59896,-0.75804,1.77377,0.50251,3.44835,1.06773,1.77921,-0.81453,-0.85992,7.69826,-0.21829,-0.87660,-0.42107,0.08134,10.68700,6.59496,-2.81975
-0.30623,1.65140,-0.58332,-0.76024,1.74609,0.65127,3.87174,1.38525,1.60350,0.27326,-2.11926,8.79702,-0.21597,-0.86088,-0.44787,0.10796,20.30447,21.88130,-7.03398
-0.31640,1.67343,-0.56820,-0.75336,1.71370,0.75734,4.15126,1.54786,1.48614,1.11228,-3.18002,9.15530,-0.21202,-0.84463,-0.47352,0.13199,22.71538,22.84450,-7.57075
-0.32590,1.69437,-0.55134,-0.73710,1.67127,0.86446,4.38743,1.65254,1.37415,1.76092,-3.90190,9.10983,-0.20809,-0.82654,-0.49945,0.15514,18.19448,13.69476,-7.58793
-0.33406,1.71252,-0.53013,-0.70200,1.59013,1.02112,4.63701,1.61106,1.24147,2.29914,-5.24844,8.51817,-0.20334,-0.80621,-0.52740,0.17473,14.68970,2.92367,-9.70148
-0.34217,1.72993,-0.50993,-0.67286,1.51234,1.12875,4.69700,1.44810,1.23054,2.19455,-6.17756,7.24106,-0.19450,-0.78808,-0.55193,0.19100,7.00148,-8.34099,-5.78868
-0.34965,1.74485,-0.48881,-0.63944,1.40764,1.22697,4.58112,1.12359,1.29129,2.43658,-7.17699,5.46242,-0.18165,-0.77297,-0.57318,0.20244,-3.07112,-18.96235,-1.01163
-0.35661,1.75881,-0.46815,-0.60481,1.30888,1.29078,4.35097,0.71977,1.28467,2.69877,-7.29521,3.87276,-0.16817,-0.76013,-0.59192,0.20869,-12.71780,-28.57093,-5.09781
-0.36316,1.77210,-0.44802,-0.57201,1.22382,1.32909,4.14386,0.49180,1.24174,2.40116,-6.97972,2.40745,-0.15661,-0.74696,-0.60910,0.21568,-17.00825,-25.85838,-10.59181
-0.36888,1.78353,-0.42797,-0.53344,1.12860,1.35582,3.92674,0.46896,1.24962,2.55845,-6.72649,1.40779,-0.14663,-0.73388,-0.62345,0.22635,-15.02474,-6.23029,-1.92720
-0.37386,1.79291,-0.40807,-0.49126,1.01953,1.37538,3.69615,0.47199,1.30324,2.77837,-7.06903,1.12516,-0.13631,-0.72160,-0.63564,0.23806,-14.05674,1.28073,4.47999
-0.37899,1.80225,-0.38831,-0.46158,0.93589,1.38732,3.51891,0.33011,1.32628,2.62466,-7.01537,1.10034,-0.12392,-0.70978,-0.64829,0.24612,-14.63345,-10.04723,0.32356
-0.38330,1.80939,-0.36816,-0.42534,0.83581,1.40229,3.37746,0.13847,1.32953,2.70772,-7.33742,1.14278,-0.11025,-0.69830,-0.66088,0.25191,-10.29648,-15.31228,-1.63982
-0.38657,1.81415,-0.34757,-0.37881,0.71719,1.42192,3.33328,-0.02640,1.29087,3.15926,-7.49818,1.36701,-0.09664,-0.68517,-0.67472,0.25682,-2.96184,-10.48745,-4.13973
-0.38961,1.81878,-0.32681,-0.34000,0.62477,1.43918,3.36696,-0.12746,1.22358,3.31989,-7.90488,1.55534,-0.08373,-0.67001,-0.68964,0.26168,1.15594,-7.37938,-6.46131
-0.39172,1.82083,-0.30563,-0.29538,0.51228,1.45888,3.46879,-0.29775,1.12150,3.27524,-8.18321,1.28319,-0.06948,-0.65331,-0.70629,0.26365,7.40381,-8.45791,-8.77388
-0.39325,1.82116,-0.28448,-0.25125,0.39804,1.47213,3.58408,-0.50959,0.99321,3.23531,-8.22432,0.60042,-0.05420,-0.63578,-0.72371,0.26285,9.70117,-11.72370,-10.81284
-0.39421,1.82011,-0.26379,-0.20807,0.28750,1.47471,3.69039,-0.70222,0.86233,2.89892,-7.71188,-0.36804,-0.03867,-0.61749,-0.74118,0.26051,9.22348,-12.46215,-13.57037
-0.39534,1.81839,-0.24406,-0.16774,0.18632,1.46342,3.75381,-0.78568,0.78844,3.03495,-7.08020,-1.43684,-0.02386,-0.59873,-0.75730,0.25971,6.84727,-6.33636,-7.14283
-0.39760,1.81638,-0.22579,-0.12513,0.08707,1.43753,3.77242,-0.69302,0.77417,2.90017,-6.23842,-2.17059,-0.01166,-0.57925,-0.77167,0.26240,1.25442,3.49353,-2.43866
-0.39932,1.81404,-0.20811,-0.08981,0.00825,1.40553,3.77290,-0.53439,0.83392,3.16678,-5.85402,-2.70383,-0.00011,-0.55911,-0.78455,0.26809,-0.42024,10.72151,7.74585
-0.39833,1.80984,-0.19090,-0.04744,-0.06834,1.36504,3.73343,-0.41569,0.79564,3.25332,-5.35644,-3.11711,0.00962,-0.53931,-0.79697,0.27183,-2.53586,9.30998,1.90996
-0.39663,1.80493,-0.17453,-0.00655,-0.13695,1.31933,3.67630,-0.35186,0.68360,2.82739,-4.60684,-3.41720,0.01822,-0.51994,-0.80918,0.27306,-3.95129,7.15221,-6.43117
-0.39491,1.80003,-0.15859,0.02420,-0.18788,1.27768,3.62433,-0.32079,0.59033,2.25637,-3.97842,-3.55853,0.02696,-0.50064,-0.82087,0.27351,-4.61357,3.80803,-8.33528
-0.39275,1.79387,-0.14406,0.05498,-0.24833,1.22215,3.58021,-0.20706,0.65454,1.24779,-3.56165,-3.42040,0.03578,-0.48050,-0.83093,0.27820,-3.27763,5.30929,1.80641
-0.39107,1.78747,-0.12972,0.07065,-0.29928,1.17589,3.59136,-0.11765,0.84729,0.95711,-3.68634,-3.24795,0.04712,-0.45883,-0.83987,0.28613,-0.08842,4.91191,16.07682
-0.38959,1.78042,-0.11597,0.07926,-0.34920,1.13073,3.61160,-0.13286,0.96144,0.54130,-3.54942,-3.08216,0.05987,-0.43718,-0.84859,0.29188,0.96438,-1.27298,9.59116
-0.38837,1.77317,-0.10233,0.08113,-0.38971,1.09488,3.64502,-0.23044,0.99036,0.05807,-3.34808,-2.90218,0.07392,-0.41548,-0.85734,0.29477,2.64329,-6.19754,3.35649
-0.38764,1.76471,-0.08987,0.07398,-0.44120,1.04771,3.70320,-0.44670,0.98554,-0.78193,-3.14064,-2.94762,0.09122,-0.39381,-0.86587,0.29473,4.43136,-11.90801,-3.42736
-0.38745,1.75613,-0.07772,0.05942,-0.48328,1.00553,3.74498,-0.68263,0.99933,-1.41426,-2.90060,-3.27705,0.11040,-0.37242,-0.87330,0.29403,4.83115,-15.84304,-3.21837
-0.38770,1.74750,-0.06617,0.04104,-0.51539,0.96393,3.74420,-0.89893,1.05627,-1.72059,-2.48272,-3.77895,0.13086,-0.35178,-0.87906,0.29389,2.48258,-17.51399,-0.66978
-0.38867,1.73837,-0.05604,0.01526,-0.54801,0.90894,3.70451,-1.17948,1.11622,-2.02779,-2.41314,-4.24754,0.15410,-0.33286,-0.88307,0.29266,-1.78555,-19.74764,-0.22968
-0.39056,1.72845,-0.04762,-0.02042,-0.58677,0.83705,3.70498,-1.54855,1.09646,-2.36380,-2.48295,-4.75157,0.18051,-0.31425,-0.88649,0.28776,0.86997,-22.10611,-5.76004
-0.39266,1.71852,-0.03951,-0.05113,-0.61655,0.77701,3.73418,-1.86180,1.03025,-2.65867,-2.54384,-5.33789,0.20728,-0.29497,-0.88945,0.28092,4.10287,-23.20043,-9.01502
-0.39610,1.70746,-0.03433,-0.09742,-0.65850,0.68135,3.82512,-2.32388,0.85976,-3.15245,-2.73686,-6.69321,0.23882,-0.27586,-0.89165,0.26801,7.91511,-24.80869,-15.89436
-0.40051,1.69574,-0.03169,-0.15090,-0.70304,0.56113,3.99381,-2.79821,0.82233,-3.85077,-2.66792,-8.35490,0.27442,-0.25424,-0.89150,0.25552,12.64758,-26.90339,-10.48024
-0.40504,1.68416,-0.03009,-0.19338,-0.73418,0.45247,4.15358,-3.16850,1.01257,-3.87005,-2.30562,-9.87777,0.31213,-0.23011,-0.88777,0.24795,13.48747,-31.08923,3.48070
-0.41046,1.67244,-0.03234,-0.23992,-0.75950,0.30575,4.29457,-3.64236,1.30919,-2.97038,-1.18004,-11.30007,0.35562,-0.20513,-0.87914,0.24203,10.50035,-36.65234,15.55949
-0.41590,1.66157,-0.03753,-0.27560,-0.76421,0.14368,4.35031,-4.13979,1.38900,-1.61822,0.42461,-12.17294,0.40011,-0.18287,-0.86774,0.23129,6.19635,-37.45889,3.93439
-0.42081,1.65201,-0.04563,-0.29356,-0.74520,-0.02926,4.36160,-4.61898,1.23022,-0.29385,2.26523,-12.88805,0.44425,-0.16345,-0.85448,0.21400,7.65824,-31.37962,-15.25420
-0.42467,1.64416,-0.05662,-0.28911,-0.70159,-0.21011,4.33487,-5.01376,0.91974,1.25643,3.99147,-13.41572,0.48654,-0.14664,-0.83967,0.19167,8.67786,-23.69203,-27.52876
-0.42679,1.63816,-0.07045,-0.25604,-0.63685,-0.39620,4.34874,-5.27912,0.68997,3.62661,5.71198,-13.58642,0.52711,-0.12847,-0.82284,0.16908,7.89548,-17.48616,-22.24017
-0.42663,1.63510,-0.08685,-0.19200,-0.53732,-0.58156,4.15200,-5.48957,0.34300,5.38238,8.24762,-12.87926,0.56451,-0.11741,-0.80416,0.14446,-0.22813,-8.35300,-30.03328
-0.42472,1.63391,-0.10355,-0.11482,-0.43164,-0.72551,3.89433,-5.63319,0.27714,6.97811,9.71867,-11.81519,0.60084,-0.10647,-0.78212,0.12628,-10.00636,-6.88699,-22.82457
-0.41914,1.63664,-0.12274,0.00380,-0.28724,-0.87461,3.44319,-5.77760,0.37503,9.53549,11.29772,-9.82981,0.63648,-0.09987,-0.75602,0.11553,-29.60390,-13.27882,-6.85126
-0.40951,1.64409,-0.14290,0.16454,-0.09526,-1.00723,2.84406,-5.82073,0.35328,10.93349,12.99385,-7.28493,0.66801,-0.09998,-0.72961,0.10690,-34.12711,-3.02846,-13.22536
-0.40045,1.65087,-0.16090,0.27577,0.03811,-1.07253,2.44741,-5.81938,0.26863,11.74316,14.01459,-5.93552,0.69758,-0.09932,-0.70306,0.09603,-34.26108,0.25389,-20.05686
-0.38493,1.66582,-0.18047,0.46481,0.27152,-1.14670,1.79260,-5.77141,-0.00343,12.27783,15.55111,-3.61896,0.72307,-0.11049,-0.67631,0.08699,-31.29906,5.63320,-28.62274
-0.36633,1.68505,-0.19886,0.66745,0.52985,-1.18636,1.02339,-5.74343,-0.50878,13.58841,17.13424,-1.51830,0.74588,-0.13216,-0.64832,0.07661,-34.89531,4.71645,-42.34239
-0.34724,1.70485,-0.21581,0.83079,0.73686,-1.19321,0.48647,-5.65084,-1.04352,14.38857,17.78460,0.39663,0.76564,-0.15513,-0.62112,0.06284,-29.77473,8.62070,-54.76620
-0.32140,1.73255,-0.23110,1.06888,1.02764,-1.17036,-0.17654,-5.43253,-1.93438,16.12037,18.94774,2.56410,0.77825,-0.19243,-0.59604,0.04508,-19.56314,15.96369,-64.58373
-0.29267,1.76255,-0.24434,1.30367,1.29308,-1.11805,-0.70087,-5.11851,-2.85345,18.15513,19.38703,5.14205,0.78531,-0.23394,-0.57269,0.02446,-13.20811,20.05192,-72.96159
-0.26326,1.79233,-0.25613,1.48777,1.48552,-1.05611,-1.08227,-4.76171,-3.57547,19.44546,19.66814,7.32237,0.78792,-0.27559,-0.55066,0.00413,-4.96438,28.01084,-77.77422
-0.22038,1.83424,-0.26096,1.85083,1.83191,-0.89347,-1.93188,-3.87553,-5.06322,22.08881,19.25594,10.54565,0.76847,-0.34665,-0.53756,-0.01761,-9.39369,45.41009,-94.29688
-0.17525,1.87488,-0.26364,2.17835,2.08692,-0.72848,-2.72560,-2.94336,-6.34761,25.74730,17.60304,12.65778,0.73963,-0.42018,-0.52457,-0.03501,-11.18729,58.25080,-106.31470
-0.12207,1.91733,-0.26284,2.56461,2.31171,-0.54393,-3.35108,-1.77079,-7.74368,30.47705,14.61345,14.06572,0.69328,-0.49990,-0.51632,-0.05361,-4.24550,68.86623,-116.46170
-0.05970,1.95992,-0.25946,3.01447,2.48570,-0.35999,-3.52080,-0.46042,-9.17421,34.16648,9.72616,12.79271,0.62922,-0.57770,-0.51392,-0.07896,31.55673,66.22144,-123.88640
0.01427,2.00047,-0.25501,3.55451,2.58372,-0.20149,-3.43827,0.74767,-10.82637,43.32964,3.38344,10.26959,0.54566,-0.65583,-0.50937,-0.11263,44.43815,43.15059,-126.11700
0.10179,2.03523,-0.25048,4.19512,2.56064,-0.07904,-3.17033,1.82561,-12.65573,48.86929,-7.48819,7.24238,0.44023,-0.73039,-0.49914,-0.15356,46.14790,25.20710,-148.01160
0.20473,2.05728,-0.24405,4.91212,2.35083,0.00518,-2.78569,2.51445,-14.44858,54.25958,-23.26396,4.93421,0.32000,-0.79381,-0.47671,-0.20053,28.42542,7.55943,-134.49040
0.32039,2.06138,-0.23843,5.68174,1.89296,0.05682,-1.96704,2.84259,-16.35537,54.54181,-43.22611,2.47453,0.18242,-0.83674,-0.44552,-0.26096,21.81589,-34.82840,-140.07010
0.43753,2.04819,-0.23513,6.29793,1.25205,0.07584,-1.58097,3.18810,-17.71644,46.94441,-63.83174,-0.82944,0.03999,-0.86205,-0.40139,-0.30686,15.18866,-34.52658,-138.67470
0.56281,1.99031,-0.23518,6.90010,-0.00357,0.05132,-1.11538,3.91960,-18.92912,24.40517,-91.86932,-3.65538,-0.11622,-0.86497,-0.35302,-0.33718,25.16645,-1.50217,-93.34074
0.66673,1.90769,-0.23672,7.01362,-1.38812,0.01019,-0.51843,5.18124,-18.86843,-9.12250,-103.07110,-3.28301,-0.25653,-0.85032,-0.31703,-0.33264,74.44996,6.33226,-43.94312
0.74451,1.80216,-0.23885,6.66891,-2.82592,-0.03095,0.92582,6.02724,-18.12341,-39.88248,-99.11572,-2.19635,-0.38046,-0.81229,-0.30483,-0.32016,121.67050,-66.56437,2.38283
0.78603,1.67803,-0.24036,5.77436,-4.25161,-0.05712,3.34263,6.76869,-16.71153,-71.59531,-77.20179,-2.39282,-0.49083,-0.75509,-0.32401,-0.28972,103.67150,-106.29330,8.97741
0.81168,1.56968,-0.24118,4.83650,-5.07197,-0.06223,6.37455,7.35989,-15.09365,-83.56254,-57.36240,-2.04808,-0.59144,-0.67673,-0.36847,-0.23762,183.33250,-191.69140,-8.67732
0.80857,1.46050,-0.24307,3.66264,-5.70758,-0.08199,10.21485,7.43429,-13.42787,-84.49651,-35.07813,-0.40852,-0.67703,-0.56448,-0.44222,-0.16567,204.00500,-225.47800,-73.16852
0.78269,1.36014,-0.24332,2.36333,-6.05294,-0.07083,12.46904,5.53124,-11.97240,-76.34426,-12.63414,7.63571,-0.72221,-0.44762,-0.51094,-0.13033,69.62977,-203.95700,-77.02094
0.76419,1.27422,-0.23836,1.49475,-6.07583,0.02730,11.31268,2.50336,-11.19647,-67.48319,2.88693,14.25504,-0.73787,-0.36680,-0.54224,-0.16424,-151.03250,-152.42630,-78.46858
0.73258,1.19878,-0.22735,0.62741,-5.91825,0.20333,6.88578,-0.25502,-10.90873,-56.21902,14.85309,15.82374,-0.73456,-0.33984,-0.52377,-0.26568,-342.06140,0.36658,0.54189
0.69718,1.14014,-0.21227,-0.10843,-5.50431,0.40837,0.62147,-1.82160,-10.17811,-35.98837,36.64783,8.25478,-0.70626,-0.36282,-0.45608,-0.40194,-431.52220,125.39550,-56.06193
0.67739,1.08409,-0.20138,-0.40848,-5.15774,0.49463,-1.72519,-1.69712,-9.25705,-26.19211,39.45192,5.73225,-0.69832,-0.36121,-0.40762,-0.46445,-262.49850,205.48050,68.69514
0.65167,1.04935,-0.18877,-0.72700,-4.55124,0.58921,-4.22923,-0.72916,-6.43529,-12.69663,37.25128,4.20248,-0.66573,-0.42150,-0.35747,-0.50136,-132.86220,140.03220,120.64370
0.62964,1.01613,-0.17746,-0.92284,-4.04206,0.64472,-6.08207,0.45424,-4.49687,-12.66208,28.89140,2.74365,-0.63569,-0.47496,-0.29774,-0.53072,-79.76017,150.43730,85.86944
0.60643,0.97927,-0.16707,-1.09637,-3.71097,0.67076,-7.16064,1.24172,-3.65637,-12.96012,20.00995,0.44820,-0.61030,-0.50578,-0.23713,-0.56168,-67.61625,115.00870,50.99031
0.58157,0.93952,-0.15798,-1.25614,-3.51176,0.66944,-7.48677,1.53680,-3.55664,-14.47737,15.16104,-2.20356,-0.59229,-0.51477,-0.18205,-0.59251,-37.24773,54.24601,4.85338
0.55141,0.90072,-0.15106,-1.46289,-3.34612,0.63353,-7.00338,1.26679,-3.95263,-14.29683,10.47908,-4.70529,-0.58644,-0.50021,-0.14087,-0.62131,13.30140,-19.83493,-14.87891
0.51952,0.86194,-0.14686,-1.65260,-3.21554,0.55860,-5.67341,1.11337,-4.09816,-10.11000,7.50686,-6.17781,-0.59570,-0.48269,-0.11580,-0.63147,70.90723,-31.47218,-9.58004
0.48876,0.82343,-0.14486,-1.78347,-3.10967,0.46513,-4.28469,0.99239,-3.97045,-8.21981,7.82944,-7.07146,-0.60832,-0.46792,-0.09984,-0.63327,97.09300,-35.57399,4.75583
0.45798,0.78713,-0.14498,-1.88364,-2.99086,0.35798,-3.15726,1.04157,-3.69243,-6.02493,8.99783,-7.30536,-0.62053,-0.45890,-0.08498,-0.63018,83.74732,-15.73104,12.33228
0.42649,0.75463,-0.14688,-1.97422,-2.83253,0.24249,-2.10819,1.18173,-3.23547,-5.39849,10.49176,-6.34869,-0.63309,-0.45578,-0.07470,-0.62119,71.13545,-1.94173,23.81914
0.39483,0.72418,-0.14842,-2.04775,-2.67495,0.16145,-1.36583,1.25741,-2.87009,-5.52461,12.48086,-4.99570,-0.64378,-0.45294,-0.06401,-0.61343,58.63269,-0.96297,22.17232
0.36237,0.69605,-0.14977,-2.11583,-2.51769,0.10354,-0.90781,1.36748,-2.64188,-6.01160,13.80870,-3.79514,-0.65321,-0.45063,-0.05027,-0.60640,48.23801,-0.03331,20.18219
0.32758,0.67438,-0.15226,-2.20704,-2.28692,0.04048,-0.62709,1.62309,-2.55468,-5.88736,15.24049,-3.18782,-0.66262,-0.44972,-0.03097,-0.59810,23.54926,8.84538,5.95950
0.29272,0.65486,-0.15460,-2.27796,-2.07182,-0.00554,-0.62252,2.08411,-2.61588,-4.59794,15.56796,-2.37994,-0.66979,-0.45108,-0.00155,-0.58984,7.20085,27.68931,-4.17479
0.25841,0.63661,-0.15637,-2.32114,-1.89033,-0.03072,-0.79220,2.76218,-2.80852,-3.27889,15.12259,-0.48119,-0.67512,-0.45490,0.03907,-0.57944,1.77802,44.33484,-11.36227
0.22426,0.62273,-0.15748,-2.35019,-1.68082,-0.03966,-1.38869,3.93028,-3.28344,-1.52478,15.32336,0.58958,-0.67402,-0.46218,0.10471,-0.56669,-27.34489,82.31178,-29.71646
0.19101,0.61368,-0.15728,-2.35531,-1.43578,-0.02289,-2.20228,5.20417,-3.82940,1.25177,15.70046,1.49035,-0.66433,-0.46891,0.18502,-0.55186,-43.01986,92.90997,-33.17648
0.15976,0.60716,-0.15611,-2.32461,-1.20104,0.00519,-2.52549,5.78999,-3.99863,3.81345,17.58540,0.86628,-0.65447,-0.47217,0.24906,-0.53544,-26.72571,59.22616,-19.23993
0.13050,0.60329,-0.15475,-2.26972,-0.98163,0.02805,-2.50366,5.70505,-3.83312,6.24884,18.24733,0.81783,-0.64620,-0.47286,0.29402,-0.52190,-1.30965,14.41125,4.95420
0.10518,0.60488,-0.15303,-2.15990,-0.72678,0.05185,-2.07524,5.05951,-3.46035,9.95120,17.77914,1.01293,-0.64496,-0.47132,0.31800,-0.51065,22.83099,-37.44538,20.50089
0.08327,0.60737,-0.15103,-2.02186,-0.52011,0.07383,-1.63481,4.15383,-3.03328,13.52723,16.44559,1.76771,-0.64698,-0.46716,0.32953,-0.50457,34.06511,-69.77151,28.86203
0.06971,0.61536,-0.14856,-1.77699,-0.27053,0.09781,-1.22481,2.72660,-2.22648,17.30688,14.76252,0.71000,-0.65008,-0.46243,0.31831,-0.51209,22.28630,-89.80002,51.00255
0.06159,0.62475,-0.14797,-1.48952,-0.04908,0.08402,-0.99117,1.69137,-1.28097,19.13252,12.88342,-1.63016,-0.64711,-0.46428,0.30504,-0.52216,18.70306,-71.89342,61.50310
0.05777,0.63470,-0.15022,-1.18840,0.13574,0.02299,-0.83734,1.23319,-0.32726,18.97167,10.34769,-5.09346,-0.63778,-0.47483,0.29579,-0.52942,10.44855,-30.28600,60.38511
0.05344,0.64300,-0.15398,-0.97165,0.24669,-0.04924,-0.63497,1.13803,0.27045,17.60462,8.57113,-6.38576,-0.62915,-0.48740,0.29170,-0.53059,20.22874,-12.17891,55.68362
0.05319,0.65230,-0.16026,-0.73966,0.34527,-0.14624,-0.40806,1.24342,0.72404,15.90228,6.23746,-6.82465,-0.61980,-0.50330,0.28951,-0.52793,18.84314,5.60691,37.25239
0.05521,0.66142,-0.16766,-0.52472,0.41783,-0.23882,-0.28763,1.37285,0.98854,14.98149,4.90193,-6.29827,-0.61019,-0.51792,0.29017,-0.52463,12.69569,11.98853,19.77957
0.06100,0.67157,-0.17652,-0.29255,0.49157,-0.33683,-0.28123,1.38650,1.26634,14.28402,4.60455,-6.36998,-0.59867,-0.53167,0.28944,-0.52455,0.73868,3.94938,16.10769
0.06638,0.68180,-0.18531,-0.12504,0.54944,-0.40967,-0.19060,1.23759,1.54476,14.11831,5.28765,-6.59276,-0.58860,-0.54473,0.28356,-0.52575,5.59930,-7.01934,19.45218
0.07562,0.69391,-0.19616,0.06507,0.62508,-0.49890,-0.00632,1.01703,1.97946,13.55310,5.41818,-6.62279,-0.57747,-0.56084,0.27030,-0.52814,16.85652,-14.25949,29.62201
0.08685,0.70744,-0.20838,0.24209,0.70741,-0.59080,0.26487,0.78838,2.47550,12.02988,6.13008,-6.70683,-0.56575,-0.57944,0.25117,-0.53018,21.49006,-14.44712,33.37000
0.09918,0.72237,-0.22181,0.39537,0.79401,-0.68135,0.50810,0.65028,2.92539,10.02704,6.42686,-6.11298,-0.55254,-0.59950,0.23057,-0.53116,23.37069,-9.82716,32.95700
0.11204,0.73868,-0.23619,0.51966,0.88375,-0.76631,0.64249,0.61448,3.28344,7.69937,6.76141,-5.80154,-0.53710,-0.61986,0.21150,-0.53156,12.93900,-2.73205,26.72401
0.12507,0.75644,-0.25151,0.61259,0.97452,-0.84637,0.66595,0.69277,3.55970,5.51482,6.44956,-5.47052,-0.51893,-0.64078,0.19512,-0.53108,3.79823,3.06180,22.12006
0.13761,0.77509,-0.26757,0.67607,1.05982,-0.92106,0.66350,0.82090,3.73855,3.27286,6.10621,-5.12799,-0.50009,-0.66139,0.18063,-0.52900,-0.82349,8.01914,14.89898
0.14923,0.79495,-0.28426,0.70945,1.14510,-0.98891,0.64411,0.96190,3.83161,1.44983,6.25409,-4.72866,-0.48106,-0.68130,0.16770,-0.52563,-3.60286,9.62768,7.39145
0.16035,0.81623,-0.30128,0.72186,1.23175,-1.05067,0.64236,1.11086,3.94122,0.04879,6.01067,-4.43345,-0.46086,-0.70168,0.15446,-0.52095,-3.36214,9.55139,8.39286
0.17045,0.83863,-0.31885,0.71383,1.31465,-1.10545,0.72887,1.23804,4.04602,-1.70462,5.79155,-3.64233,-0.44096,-0.72240,0.13913,-0.51413,3.71935,9.99160,8.15549
0.17852,0.86235,-0.33676,0.67429,1.40234,-1.15205,0.74831,1.37564,4.07581,-3.41466,5.35343,-2.13613,-0.42077,-0.74209,0.12574,-0.50641,1.37502,9.60809,3.06303
0.18547,0.88647,-0.35389,0.62080,1.47160,-1.17557,0.59801,1.48786,4.08030,-4.72369,4.56767,-1.15611,-0.39816,-0.76014,0.11580,-0.50024,-10.13741,6.45419,2.09260
