posX, posY, posZ, velX, velY, velZ, angVelX, angVelY, angVelZ, accX, accY, accZ, rotX, rotY, rotZ, rotW, angAccX, angAccY, angAccZ
0.11570,1.02948,-0.52506,-0.27713,0.33433,-0.22808,0.86179,0.38743,0.77202,1.96194,-3.65656,-4.25878,-0.28114,-0.82808,-0.06145,-0.48112,-53.84478,24.86670,-21.90715
0.11300,1.03219,-0.53081,-0.25869,0.30305,-0.26979,0.38648,0.62582,0.55950,1.80157,-2.59955,-4.18085,-0.27830,-0.83294,-0.05173,-0.47549,-52.86976,20.54256,-20.75105
0.11071,1.03443,-0.53835,-0.23729,0.27144,-0.33243,-0.24347,0.98498,0.27403,0.43653,-0.84595,-2.30032,-0.27471,-0.83947,-0.03234,-0.46774,-33.14526,19.05830,-11.99207
0.10771,1.03819,-0.54406,-0.23218,0.27272,-0.35028,-0.44855,1.06288,0.27010,0.76219,0.97191,-1.08371,-0.26993,-0.84437,-0.02443,-0.46214,-21.83810,7.76381,-6.38512
0.10462,1.04306,-0.54901,-0.23010,0.29290,-0.35002,-0.41451,1.03512,0.39803,-0.28368,1.70380,0.57062,-0.26441,-0.84899,-0.02330,-0.45690,-2.52634,0.89768,9.66812
0.10108,1.04852,-0.55295,-0.23600,0.31778,-0.33223,-0.31842,0.85732,0.50339,-0.51988,1.72787,1.84722,-0.25954,-0.85155,-0.02533,-0.45483,9.18248,-9.33719,8.00409
0.09753,1.05421,-0.55615,-0.24049,0.34072,-0.30580,-0.13148,0.63257,0.54412,-0.28825,1.48555,1.66320,-0.25695,-0.85249,-0.03017,-0.45424,8.97175,-16.57791,4.26355
0.09404,1.05997,-0.55916,-0.24298,0.35862,-0.28362,0.17451,0.49434,0.53533,-0.23106,1.34615,1.61120,-0.25766,-0.85331,-0.03840,-0.45166,23.59591,-12.72884,-0.89111
0.09051,1.06596,-0.56198,-0.24506,0.37589,-0.26415,0.53897,0.37971,0.47698,-0.08067,1.06472,1.03748,-0.26145,-0.85335,-0.04942,-0.44832,26.09742,-7.98597,-4.22476
0.08713,1.07209,-0.56523,-0.24396,0.39181,-0.25644,0.94555,0.37065,0.37052,0.18013,1.01737,-0.00775,-0.26839,-0.85360,-0.06211,-0.44212,25.92111,-1.47197,-7.34715
0.08380,1.07829,-0.56907,-0.24273,0.40528,-0.26105,1.18810,0.45032,0.30316,0.07033,1.02162,-0.35219,-0.27414,-0.85502,-0.07265,-0.43417,21.03400,5.91447,-5.80460
0.08032,1.08473,-0.57330,-0.24339,0.42021,-0.27073,1.26494,0.54310,0.26773,-0.03508,1.34554,-0.66374,-0.27815,-0.85703,-0.08050,-0.42620,7.43171,6.79461,-3.24853
0.07668,1.09168,-0.57772,-0.24662,0.44052,-0.28123,1.29656,0.63557,0.29871,-0.28314,1.57692,-0.64987,-0.28040,-0.85969,-0.08826,-0.41775,3.42459,6.64065,2.12980
0.07292,1.09901,-0.58221,-0.25176,0.46220,-0.29065,1.19144,0.71248,0.35988,-0.33677,1.67822,-0.28376,-0.28015,-0.86297,-0.09330,-0.40999,-4.05603,6.61419,4.22038
0.06908,1.10653,-0.58653,-0.25724,0.48185,-0.29502,1.04176,0.71897,0.43775,-0.51402,1.71641,-0.28380,-0.27807,-0.86601,-0.09727,-0.40403,-12.32818,1.23593,5.74581
0.06502,1.11447,-0.59091,-0.26494,0.50406,-0.29944,0.89710,0.72848,0.53173,-0.52032,1.41477,-0.38550,-0.27464,-0.86942,-0.10083,-0.39813,-9.93218,-0.62835,7.86536
0.06093,1.12242,-0.59554,-0.27140,0.52131,-0.30711,0.70220,0.75212,0.59152,-0.34788,0.79605,-0.59578,-0.27056,-0.87311,-0.10201,-0.39251,-12.33692,0.40880,4.64817
0.05694,1.13003,-0.60027,-0.27438,0.53017,-0.31397,0.56400,0.80096,0.60707,-0.29421,0.77824,-0.66839,-0.26747,-0.87685,-0.10276,-0.38605,-12.63497,2.44005,2.97422
0.05273,1.13793,-0.60520,-0.28032,0.54198,-0.32225,0.43991,0.88170,0.63878,-0.47277,1.02631,-0.70376,-0.26371,-0.88125,-0.10284,-0.37852,-9.85469,4.60579,2.58887
0.04830,1.14642,-0.61018,-0.28866,0.55993,-0.33015,0.45167,1.02107,0.67484,-0.70383,1.59201,-0.72666,-0.26110,-0.88618,-0.10515,-0.36803,-2.34111,8.13365,2.62762
0.04348,1.15568,-0.61508,-0.30096,0.58759,-0.33511,0.49293,1.17429,0.74669,-0.88986,2.57480,0.03622,-0.25790,-0.89172,-0.10849,-0.35574,4.52724,12.77776,3.58428
0.03819,1.16613,-0.61966,-0.31852,0.62861,-0.33333,0.37574,1.22424,0.90253,-1.41944,3.42386,0.67753,-0.25015,-0.89760,-0.10963,-0.34600,-3.94433,5.51541,9.67434
0.03202,1.17787,-0.62369,-0.34770,0.68245,-0.32221,0.10140,1.07414,1.18454,-2.09880,3.29807,1.03176,-0.23562,-0.90313,-0.10905,-0.34197,-16.81663,-6.24057,16.84649
0.02572,1.18949,-0.62761,-0.37170,0.72198,-0.31199,-0.06091,0.95904,1.43021,-1.49272,3.44354,0.41257,-0.22070,-0.90840,-0.10994,-0.33766,-13.34043,-17.08929,19.17773
0.01962,1.20152,-0.63148,-0.38643,0.75749,-0.30348,-0.06156,0.91629,1.58305,-1.67684,2.23679,0.48027,-0.20776,-0.91340,-0.11336,-0.33120,-4.70083,-4.21598,22.44910
0.01295,1.21417,-0.63485,-0.40723,0.79576,-0.28837,0.25764,0.86816,1.52013,-0.93392,1.91988,0.66679,-0.20298,-0.91596,-0.12343,-0.32340,16.55083,0.28812,-3.07636
0.00675,1.22661,-0.63848,-0.41557,0.82342,-0.28088,0.64054,0.85696,1.29891,-0.58981,2.06226,0.15230,-0.20414,-0.91708,-0.13516,-0.31469,26.08407,0.43972,-14.46096
0.00049,1.23975,-0.64258,-0.42346,0.85671,-0.28345,0.96390,0.85332,1.04568,-0.65465,2.79155,-0.43751,-0.20793,-0.91738,-0.14697,-0.30591,24.43621,2.87081,-20.13617
-0.00622,1.25408,-0.64731,-0.43751,0.90135,-0.29634,1.14735,0.86614,0.86744,-1.26217,3.75461,-1.09297,-0.21076,-0.91794,-0.15720,-0.29709,15.01701,2.33771,-15.80497
-0.01388,1.26952,-0.65250,-0.46464,0.95575,-0.31334,1.27169,0.89287,0.75679,-2.60992,4.16206,-1.16408,-0.21271,-0.91871,-0.16708,-0.28779,7.64636,3.87454,-8.17856
-0.02263,1.28659,-0.65789,-0.50372,1.02422,-0.32992,1.42579,1.04656,0.74854,-2.43539,6.09942,-1.45780,-0.21373,-0.92048,-0.17828,-0.27433,7.37974,7.20097,-6.00593
-0.03214,1.30576,-0.66305,-0.54655,1.11111,-0.33904,1.79678,1.28756,0.88817,-3.77118,6.31402,-0.24656,-0.21333,-0.92238,-0.19669,-0.25497,23.04274,16.90961,10.12456
-0.04315,1.32614,-0.66753,-0.60481,1.19853,-0.33417,2.19338,1.46485,1.00894,-4.39658,6.38273,0.89676,-0.21339,-0.92292,-0.21824,-0.23466,30.13488,16.24752,7.18840
-0.05530,1.34776,-0.67163,-0.66867,1.28496,-0.32425,2.39613,1.57710,1.18859,-4.67249,6.15433,1.01588,-0.20999,-0.92362,-0.23793,-0.21500,19.51074,7.92809,10.92935
-0.06806,1.36950,-0.67564,-0.72634,1.35467,-0.31462,2.37193,1.61470,1.41190,-4.82886,5.63635,1.22263,-0.20241,-0.92513,-0.25360,-0.19708,5.59668,4.78549,16.71479
-0.08236,1.39231,-0.67931,-0.79508,1.42478,-0.30101,2.20444,1.59583,1.70516,-4.90282,4.54761,1.08791,-0.18978,-0.92765,-0.26616,-0.18059,-9.12672,-6.34836,22.15514
-0.09786,1.41567,-0.68209,-0.86949,1.48827,-0.27543,2.14319,1.69631,1.91991,-4.69567,3.39582,1.96791,-0.17858,-0.92969,-0.27939,-0.16042,-4.79909,1.99300,16.17370
-0.11315,1.43825,-0.68411,-0.92237,1.52471,-0.24278,2.24621,1.82775,1.99638,-4.48025,2.83371,3.04683,-0.17113,-0.92965,-0.29558,-0.13818,3.22884,8.54401,9.04077
-0.12965,1.46113,-0.68440,-0.98227,1.55742,-0.18901,2.46463,2.07354,2.04327,-4.19025,2.17211,4.49849,-0.16574,-0.92808,-0.31451,-0.11085,14.60935,17.29505,4.35916
-0.14729,1.48413,-0.68235,-1.04788,1.58545,-0.10682,2.48676,2.10610,2.25770,-3.56445,1.15859,6.56286,-0.15357,-0.92696,-0.33107,-0.08688,7.99748,10.27777,10.76822
-0.16495,1.50591,-0.67942,-1.09747,1.59209,-0.02431,2.12656,1.66070,2.58612,-2.79264,-0.16570,6.52867,-0.13118,-0.92793,-0.34039,-0.07667,-15.58222,-32.68243,21.88055
-0.18204,1.52684,-0.67493,-1.12609,1.58203,0.06548,1.89751,1.26927,2.74949,-1.58028,-1.23907,6.18452,-0.11062,-0.92756,-0.35030,-0.06846,-14.43287,-38.72657,13.98745
-0.19821,1.54689,-0.66800,-1.13232,1.55272,0.17270,1.95429,1.15051,2.65876,0.17174,-2.50793,6.55305,-0.09820,-0.92431,-0.36452,-0.05604,2.10485,-10.26463,-4.09982
-0.21350,1.56621,-0.66093,-1.12140,1.51786,0.25563,2.13443,1.22613,2.43644,1.36143,-3.31920,6.90413,-0.09192,-0.91908,-0.38111,-0.03989,9.63295,6.54251,-14.59719
-0.22787,1.58448,-0.65247,-1.09841,1.47481,0.33978,2.38136,1.37209,2.11511,2.19936,-3.91180,6.93279,-0.09118,-0.91171,-0.39996,-0.02243,15.18780,15.79926,-23.65396
-0.24098,1.60084,-0.64125,-1.06075,1.40787,0.44903,2.70156,1.62589,1.70641,2.59376,-4.36634,6.96556,-0.09672,-0.90172,-0.42136,-0.00230,16.95854,24.82236,-25.39984
-0.25413,1.61666,-0.62961,-1.03194,1.34518,0.54032,2.85123,1.66125,1.49675,1.95526,-4.52950,6.54717,-0.09722,-0.89226,-0.44071,0.01398,10.08793,9.39065,-18.12624
-0.26733,1.63200,-0.61764,-1.01164,1.29043,0.61461,2.93896,1.70872,1.38559,1.58204,-4.57688,5.95459,-0.09639,-0.88262,-0.45905,0.03107,6.27749,3.28165,-10.50890
-0.27973,1.64512,-0.60415,-0.98336,1.21467,0.70433,3.01293,1.84900,1.30577,2.27978,-4.87541,5.47509,-0.09664,-0.87212,-0.47692,0.05113,5.02014,12.29737,-4.42079
-0.29157,1.65832,-0.59143,-0.95205,1.15765,0.76227,2.99065,1.88080,1.21317,2.95624,-4.90867,4.76823,-0.09665,-0.86213,-0.49267,0.06833,-0.81371,4.50647,-4.29013
-0.30256,1.67061,-0.57820,-0.91507,1.09998,0.81324,2.94781,1.89171,1.12001,3.17977,-4.78366,4.15164,-0.09713,-0.85196,-0.50750,0.08468,-4.92752,2.93503,-7.49606
-0.31174,1.68037,-0.56334,-0.85530,1.01434,0.87852,2.90362,1.96899,1.02346,3.46799,-4.65302,3.42338,-0.09909,-0.84125,-0.52153,0.10235,-3.82024,3.20280,-3.91470
-0.32081,1.69021,-0.54864,-0.80525,0.94796,0.92992,2.94918,2.12575,0.94528,3.75093,-4.83566,4.19087,-0.10230,-0.82839,-0.53688,0.12272,0.67140,13.98718,-2.92648
-0.32966,1.69955,-0.53330,-0.76426,0.88802,0.97702,2.99073,2.02745,0.85905,3.65713,-5.11801,4.21938,-0.10301,-0.81536,-0.55300,0.13697,3.13479,1.61821,-6.76279
-0.33708,1.70710,-0.51622,-0.71155,0.80825,1.03397,3.01120,1.80504,0.74141,3.27210,-4.91749,3.11561,-0.10272,-0.80247,-0.56925,0.14646,1.32107,-12.41969,-10.16668
-0.34399,1.71412,-0.49938,-0.66106,0.73588,1.07478,2.96493,1.56998,0.66008,3.16453,-4.34625,2.00988,-0.10131,-0.79048,-0.58394,0.15453,-1.73453,-12.33405,-8.12142
-0.35076,1.72109,-0.48329,-0.61924,0.67900,1.09388,2.83438,1.29280,0.61181,2.99750,-4.00767,0.83485,-0.09819,-0.78026,-0.59655,0.16024,-6.95863,-19.39241,-5.95243
-0.35685,1.72763,-0.46741,-0.57709,0.62738,1.10139,2.65889,1.13374,0.57703,2.69833,-3.52781,0.10715,-0.09599,-0.77100,-0.60704,0.16685,-12.49550,-15.46404,-5.21137
-0.36248,1.73354,-0.45181,-0.53764,0.57770,1.10307,2.52624,1.16038,0.58934,2.43640,-3.56810,-0.15413,-0.09524,-0.76102,-0.61667,0.17748,-10.40174,-2.15557,0.49981
-0.36818,1.73898,-0.43638,-0.50847,0.53314,1.10270,2.46210,1.30238,0.65629,2.20496,-3.73650,-0.06488,-0.09509,-0.74963,-0.62621,0.19204,-6.60169,9.30933,5.19279
-0.37317,1.74279,-0.42078,-0.47542,0.47089,1.10299,2.41741,1.37129,0.76388,2.15548,-4.06566,0.14917,-0.09301,-0.73815,-0.63540,0.20677,-2.26192,6.44370,8.97990
-0.37822,1.74612,-0.40519,-0.45049,0.41480,1.10373,2.38260,1.17630,0.81215,1.87927,-4.06446,0.11467,-0.08741,-0.72767,-0.64538,0.21525,-1.82858,-10.02241,3.22043
-0.38324,1.74876,-0.38988,-0.43003,0.36054,1.10103,2.33453,0.78768,0.83328,1.53011,-3.74753,-0.33652,-0.07797,-0.71878,-0.65554,0.21807,-1.80093,-24.07540,-1.30194
-0.38825,1.75102,-0.37494,-0.41462,0.31245,1.09237,2.25784,0.28302,0.84692,0.83710,-3.26985,-0.79662,-0.06491,-0.71173,-0.66523,0.21611,-3.97944,-35.26351,-4.71112
-0.39342,1.75321,-0.36029,-0.40533,0.27557,1.08149,2.20014,-0.14621,0.87310,0.78342,-2.91206,-1.11220,-0.05037,-0.70483,-0.67465,0.21337,-2.69838,-35.73868,-2.33143
-0.39830,1.75463,-0.34649,-0.39283,0.23473,1.05915,2.11209,-0.70420,0.87064,0.74708,-2.22836,-1.72029,-0.03203,-0.69987,-0.68345,0.20506,-3.51311,-36.93214,-5.14934
-0.40304,1.75640,-0.33300,-0.38049,0.20937,1.03810,2.05587,-0.97782,0.87524,0.89934,-2.02437,-2.00012,-0.01633,-0.69360,-0.69178,0.20022,-3.75433,-28.24199,-3.95455
-0.40735,1.75758,-0.32017,-0.36402,0.18059,1.01097,2.02804,-1.14905,0.89332,1.10159,-2.03423,-2.09771,-0.00085,-0.68662,-0.69998,0.19642,-1.93174,-14.76044,-1.37828
-0.41110,1.75798,-0.30808,-0.34171,0.14503,0.97773,2.07618,-1.07735,0.98878,1.20173,-2.15375,-2.23271,0.01273,-0.67694,-0.70866,0.19847,2.09404,-0.91070,3.88971
-0.41460,1.75843,-0.29586,-0.32059,0.11858,0.95429,2.15235,-0.86477,1.09787,1.95859,-2.16183,-1.89215,0.02404,-0.66526,-0.71759,0.20476,3.83979,14.99690,12.75760
-0.41732,1.75841,-0.28414,-0.29169,0.09113,0.92840,2.22715,-0.66707,1.15534,2.37521,-1.82060,-1.76800,0.03406,-0.65265,-0.72680,0.21129,4.80179,15.33887,8.08925
-0.41908,1.75810,-0.27284,-0.25236,0.06414,0.90095,2.27402,-0.45858,1.17581,1.98520,-1.41815,-1.20295,0.04234,-0.63980,-0.73573,0.21810,1.49334,11.26533,2.01185
-0.42136,1.75793,-0.26100,-0.23114,0.04573,0.88880,2.33754,-0.33933,1.22858,1.64297,-1.57645,-0.77337,0.05229,-0.62630,-0.74464,0.22475,2.74238,11.97344,5.31436
-0.42351,1.75698,-0.24926,-0.21287,0.01799,0.87788,2.42919,-0.35308,1.25782,0.94536,-1.91272,-0.40166,0.06435,-0.61221,-0.75403,0.22911,5.19811,1.48664,2.41541
-0.42619,1.75556,-0.23737,-0.20815,-0.01154,0.87210,2.57021,-0.49641,1.27866,-0.19750,-2.22894,-0.25310,0.07955,-0.59708,-0.76417,0.23067,9.93975,-8.11310,-1.01346
-0.42961,1.75336,-0.22536,-0.21759,-0.04762,0.86975,2.76036,-0.65915,1.44563,-1.37906,-2.79566,0.02137,0.09912,-0.57983,-0.77408,0.23404,12.84858,-11.95950,6.66100
-0.43393,1.75010,-0.21315,-0.24047,-0.09352,0.87178,3.01041,-0.85320,1.71617,-1.97699,-3.68978,0.40558,0.12335,-0.55980,-0.78380,0.23889,17.15726,-14.03784,17.52477
-0.43907,1.74544,-0.20077,-0.27228,-0.15293,0.87601,3.33187,-1.09729,1.98903,-2.48808,-4.75215,0.14872,0.15153,-0.53642,-0.79390,0.24294,23.02927,-17.03476,17.81640
-0.44496,1.73952,-0.18897,-0.30918,-0.21947,0.86873,3.64376,-1.53730,2.04841,-2.01694,-4.94539,-1.05806,0.18308,-0.51261,-0.80403,0.23926,25.26919,-24.58606,10.31566
-0.45112,1.73332,-0.17813,-0.34117,-0.27361,0.84679,3.86372,-2.06895,1.85160,-2.64016,-4.57711,-2.56509,0.21495,-0.49056,-0.81360,0.22629,26.54831,-35.53017,-18.92305
-0.45840,1.72544,-0.16959,-0.38478,-0.34364,0.79005,4.11221,-2.78093,1.54104,-2.55629,-4.33000,-4.59390,0.25157,-0.46826,-0.82210,0.20394,23.40297,-37.31422,-24.77516
-0.46572,1.71751,-0.16284,-0.41896,-0.39852,0.71515,4.31174,-3.32498,1.22056,-2.57092,-3.55371,-6.36342,0.28660,-0.44528,-0.82910,0.17940,24.48309,-32.94386,-31.38238
-0.47283,1.70959,-0.15756,-0.44072,-0.43927,0.63466,4.39980,-3.52236,1.27069,-2.37679,-2.99496,-7.81197,0.32039,-0.42022,-0.83286,0.16466,15.94858,-23.04622,-16.24686
-0.47979,1.70060,-0.15623,-0.45452,-0.48861,0.50511,4.31159,-3.49502,2.00315,-0.48443,-2.92966,-9.14922,0.35837,-0.39238,-0.82996,0.16962,-11.49774,-9.76252,39.32767
-0.48545,1.69132,-0.15689,-0.44231,-0.53191,0.37038,4.15523,-3.47086,2.74820,2.26436,-3.12170,-10.22587,0.39711,-0.36393,-0.82317,0.17959,-22.55001,-14.17496,50.87870
-0.48915,1.68173,-0.16035,-0.39873,-0.56968,0.21981,4.10109,-3.57769,3.09214,4.93138,-2.61423,-11.08530,0.43513,-0.33515,-0.81555,0.18223,-13.53252,-14.93856,32.37360
-0.48996,1.67211,-0.16801,-0.31387,-0.59925,0.02912,4.24266,-3.79260,2.99493,6.54600,-1.25177,-12.56279,0.47175,-0.30523,-0.80898,0.17275,11.03186,-10.91862,-5.56354
-0.48962,1.66348,-0.17629,-0.23031,-0.60412,-0.12483,4.39838,-3.95478,2.82428,7.72248,0.46030,-13.20382,0.50652,-0.27456,-0.80153,0.16004,17.08273,-7.58818,-11.51887
-0.48629,1.65639,-0.18871,-0.11630,-0.58041,-0.31073,4.54857,-4.13860,2.58430,8.70797,3.05060,-13.63096,0.54063,-0.24410,-0.79224,0.14317,18.81800,-5.75158,-16.26653
-0.48060,1.65162,-0.20361,0.01106,-0.52229,-0.49431,4.53034,-4.33602,2.42310,9.50160,5.36696,-13.19143,0.57458,-0.21642,-0.77894,0.12758,7.17714,-8.80559,-14.98752
-0.47352,1.64861,-0.21937,0.12938,-0.44914,-0.64569,4.41951,-4.51834,2.30973,10.25681,7.06730,-12.56915,0.60785,-0.19078,-0.76245,0.11312,-1.52080,-11.90006,-14.49602
-0.46200,1.64980,-0.23927,0.29515,-0.32168,-0.83124,4.13430,-4.77358,2.24804,10.37323,9.04696,-11.01587,0.64190,-0.16959,-0.74094,0.10101,-9.73869,-14.53011,-15.61266
-0.44931,1.65323,-0.25893,0.44394,-0.18411,-0.97098,3.60026,-5.08747,2.10641,10.91814,10.48366,-9.46571,0.67571,-0.15694,-0.71445,0.09133,-27.41117,-21.25124,-18.79274
-0.43659,1.65685,-0.27765,0.55352,-0.08070,-1.05789,3.23755,-5.31444,1.97005,11.44788,10.43215,-8.19468,0.70796,-0.14382,-0.68673,0.08068,-29.41250,-24.29372,-32.09502
-0.41604,1.66714,-0.30052,0.76865,0.11039,-1.19321,2.75876,-5.63384,1.59771,12.59319,10.81723,-6.69453,0.73980,-0.14016,-0.65464,0.06707,-16.24570,-15.54003,-30.85161
-0.39497,1.67747,-0.32204,0.94805,0.26241,-1.27768,2.49462,-5.83490,1.18907,13.59706,11.12871,-5.25202,0.76879,-0.13564,-0.62297,0.04980,-9.77020,-12.29942,-34.34740
-0.37062,1.69041,-0.34350,1.14074,0.42282,-1.34070,2.36599,-5.93462,0.65355,14.40020,11.97070,-3.66263,0.79433,-0.13370,-0.59197,0.02717,3.34258,-3.03303,-38.89353
-0.34300,1.70637,-0.36431,1.34332,0.59683,-1.37695,2.25178,-6.02804,0.03973,14.99179,13.27431,-1.63374,0.81755,-0.13621,-0.55951,0.00106,7.77537,-0.42049,-42.00532
-0.31202,1.72572,-0.38372,1.55509,0.78748,-1.38043,2.05441,-6.13558,-0.68195,15.71867,14.40628,1.02983,0.83827,-0.14622,-0.52458,-0.02729,7.10866,-1.57637,-51.01489
-0.27580,1.74987,-0.40045,1.81052,1.01842,-1.33550,1.72981,-6.20771,-1.63782,16.94610,14.89433,4.28643,0.85477,-0.16767,-0.48772,-0.05827,5.14775,1.80477,-61.14940
-0.23670,1.77530,-0.41412,2.05849,1.21853,-1.24698,1.23758,-6.21713,-2.50887,18.89664,14.18160,8.20770,0.86766,-0.19596,-0.44894,-0.08491,-7.07720,3.90643,-69.66643
-0.19487,1.80158,-0.42468,2.28859,1.38110,-1.12736,0.78352,-6.05445,-3.29268,20.00433,13.32988,11.82107,0.87518,-0.22858,-0.41201,-0.10979,-10.45865,16.97291,-72.30693
-0.14473,1.83239,-0.42771,2.60825,1.58292,-0.90478,0.25524,-5.55472,-4.45598,20.65050,12.19242,16.26403,0.87176,-0.27701,-0.38064,-0.13569,0.26436,34.09245,-75.84310
-0.09450,1.86234,-0.42791,2.85107,1.72076,-0.68782,-0.19384,-5.02061,-5.47920,20.75797,11.38824,20.15286,0.86228,-0.32900,-0.35028,-0.15977,4.04360,42.33702,-84.85387
-0.03823,1.89510,-0.41980,3.13433,1.87096,-0.38372,-0.44135,-4.10468,-6.89891,21.08917,10.19354,24.05963,0.83637,-0.39571,-0.32880,-0.18922,24.73407,57.39140,-99.06260
0.02214,1.92861,-0.40343,3.43233,2.00018,-0.03110,-0.32970,-2.99276,-8.48570,22.89648,8.10151,27.00769,0.79335,-0.46963,-0.31465,-0.22592,58.19975,58.84212,-105.78240
0.08685,1.96142,-0.37665,3.76204,2.08393,0.36913,0.18053,-1.82053,-10.18880,25.62364,3.24770,30.20393,0.73043,-0.54731,-0.30549,-0.27130,85.46750,47.33104,-113.13810
0.15842,1.99052,-0.34175,4.13148,2.07300,0.81752,0.83208,-0.53096,-11.80974,28.30568,-5.55809,32.92323,0.64699,-0.62486,-0.30134,-0.31647,100.47030,35.03325,-117.15770
0.23997,2.01017,-0.30159,4.55285,1.90926,1.29492,1.47585,0.87830,-13.13399,32.19442,-18.36971,35.29549,0.54638,-0.69664,-0.30246,-0.35310,101.86950,43.90894,-97.00771
0.32998,2.01594,-0.25403,5.00875,1.55252,1.79804,2.60017,2.49669,-14.09135,32.24355,-33.51842,36.96858,0.42639,-0.75381,-0.31795,-0.38585,127.12320,38.64664,-79.58824
0.42179,2.00867,-0.20345,5.38060,1.06701,2.22544,3.85875,3.73898,-14.57120,29.23564,-48.21288,35.08861,0.29951,-0.79079,-0.33646,-0.41442,141.74800,0.97476,-66.76593
0.52047,1.96835,-0.14156,5.78208,0.14059,2.74377,6.00482,4.86841,-14.60790,19.51572,-67.67532,30.91166,0.15894,-0.79759,-0.37523,-0.44473,139.55020,-35.50701,-43.61461
0.61124,1.91756,-0.08464,5.96115,-0.73990,3.05967,7.98695,4.75861,-14.38506,9.17736,-79.69488,22.97681,0.02781,-0.77586,-0.40314,-0.48451,113.98230,-110.09400,-53.97346
0.69577,1.83478,-0.02862,5.99344,-1.93428,3.28055,9.69328,3.99338,-14.25416,-4.82725,-91.01628,8.52645,-0.10057,-0.73042,-0.42057,-0.52868,37.00214,-122.38040,-77.46478
0.76801,1.72822,0.01790,5.81486,-3.24212,3.29962,10.59680,3.68086,-14.48995,-20.32189,-96.25903,-7.85710,-0.23305,-0.68086,-0.42088,-0.55225,11.12562,-66.34101,-56.92836
0.81715,1.59338,0.04874,5.29323,-4.74051,3.06293,11.35559,4.80785,-14.58362,-44.07755,-90.99644,-23.18543,-0.37670,-0.63283,-0.41983,-0.53043,60.63278,16.07249,-13.12924
0.85176,1.46504,0.07280,4.64823,-5.78756,2.76250,13.09993,6.24649,-13.80941,-62.64721,-83.78443,-29.64438,-0.51720,-0.56112,-0.44211,-0.47137,156.83610,-46.96862,20.01166
0.84456,1.31199,0.07842,3.44713,-6.99019,2.22863,17.08883,6.74978,-12.13621,-87.82401,-64.59908,-37.89069,-0.64772,-0.42468,-0.50796,-0.37694,200.27880,-152.50750,-73.43784
0.81222,1.17200,0.07299,2.08830,-7.70458,1.63069,20.52531,4.57324,-10.45323,-104.30170,-36.61923,-43.51795,-0.71994,-0.24178,-0.57761,-0.29932,140.11360,-218.29930,-194.57380
0.77672,1.05202,0.06577,1.03701,-7.92171,1.15187,21.27914,1.85454,-10.01089,-105.83900,-9.88973,-45.66081,-0.75001,-0.06938,-0.60491,-0.25836,1.50844,-143.36010,-275.85970
0.68313,0.95913,0.03208,-0.71400,-7.62516,0.36279,18.86230,-2.56331,-10.27539,-87.79513,36.60906,-35.46863,-0.71577,0.07962,-0.62570,-0.29972,-184.00960,5.04461,-210.74940
0.61183,0.89625,0.01200,-1.74123,-6.91326,-0.03529,14.16591,-3.81060,-11.09702,-62.04791,59.35791,-19.83294,-0.69585,0.15417,-0.59677,-0.36863,-273.08030,176.35130,-114.91130
0.54931,0.85252,0.00265,-2.38319,-6.04486,-0.16800,9.22401,-2.99065,-11.05994,-32.30061,63.97538,-0.94078,-0.68802,0.17215,-0.54995,-0.44108,-244.48730,277.14040,3.64265
0.49673,0.81730,0.00409,-2.70517,-5.22347,-0.09691,5.33292,-1.89578,-10.01017,-14.12204,56.04682,9.47540,-0.67850,0.16451,-0.51383,-0.49856,-207.54360,220.63680,91.15244
0.45209,0.78575,0.01204,-2.82166,-4.53700,0.06521,2.11277,-0.42578,-8.87839,-3.17309,43.64611,13.01403,-0.67108,0.13932,-0.47205,-0.55444,-157.31420,196.42810,91.80052
0.41193,0.75450,0.02238,-2.83678,-4.00411,0.22561,-0.04719,0.94417,-7.87872,1.59582,36.39190,9.35325,-0.66573,0.11318,-0.42695,-0.60142,-104.91760,188.96020,86.18530
0.37300,0.72575,0.03132,-2.83077,-3.55414,0.32456,-1.18668,1.55280,-6.96222,0.77979,30.46225,4.68893,-0.65705,0.09952,-0.39323,-0.63542,-55.79118,96.50418,75.53494
0.33379,0.69922,0.03795,-2.83100,-3.17135,0.36162,-1.67563,1.57168,-6.40269,0.65436,26.35203,0.67685,-0.64515,0.10216,-0.36573,-0.66301,-29.72529,33.54733,45.82502
0.29546,0.67593,0.04220,-2.81424,-2.82244,0.34902,-1.86576,1.28913,-5.99972,2.60513,24.50392,-2.37452,-0.63089,0.11355,-0.34362,-0.68630,-19.83328,-10.93204,34.03166
0.26057,0.65582,0.04435,-2.74494,-2.50244,0.30327,-1.94558,1.20745,-5.52485,7.25856,21.78268,-4.21919,-0.61949,0.12060,-0.32160,-0.70588,-7.00333,-3.30808,29.36277
0.23001,0.63759,0.04460,-2.61949,-2.22550,0.23646,-1.96187,1.37355,-4.65884,9.79126,18.28128,-5.39306,-0.61332,0.11445,-0.30512,-0.71947,1.80911,8.89884,55.40613
0.20382,0.62175,0.04256,-2.44717,-1.96917,0.14519,-1.58381,2.55306,-3.94882,9.70807,15.06381,-6.31807,-0.62524,0.09168,-0.26888,-0.72690,39.22689,60.18510,42.69773
0.17728,0.60416,0.04035,-2.32252,-1.80231,0.07198,-1.08797,3.69395,-3.71877,10.37977,13.59187,-6.01068,-0.64060,0.07121,-0.21985,-0.73228,66.00529,88.36074,3.20724
0.15310,0.59044,0.03682,-2.19037,-1.61198,-0.00474,-0.74036,4.53638,-3.30740,9.47203,13.28963,-5.08564,-0.65418,0.04542,-0.17549,-0.73429,51.99298,63.96418,9.70623
0.13028,0.58112,0.03217,-2.06319,-1.38897,-0.08401,-0.61987,5.04281,-2.81684,7.65729,14.44478,-4.88416,-0.66201,0.01750,-0.13787,-0.73650,24.23672,33.67505,24.19003
0.10739,0.57386,0.02701,-1.96570,-1.18033,-0.15561,-0.53367,5.32414,-2.51011,6.08399,15.62203,-5.70660,-0.66682,-0.00707,-0.10110,-0.73830,14.52804,17.93419,26.28289
0.08383,0.56644,0.02151,-1.90383,-1.02988,-0.21259,-0.36017,5.53370,-2.55854,6.02206,15.46069,-6.14914,-0.67174,-0.02563,-0.05778,-0.73808,17.79582,20.37238,1.29991
0.06392,0.56797,0.01226,-1.79700,-0.76643,-0.31987,0.09646,5.62121,-2.68476,5.67122,14.05463,-5.87447,-0.68176,-0.03930,-0.01369,-0.73039,21.93545,0.85635,-12.41988
0.04327,0.56650,0.00430,-1.72519,-0.61071,-0.38170,0.46231,5.62190,-2.87716,6.74086,12.49582,-4.74281,-0.69031,-0.04977,0.03101,-0.72114,23.13525,-2.19813,-25.88981
0.02470,0.56701,-0.00359,-1.63815,-0.46295,-0.42566,0.69638,5.44459,-2.81426,8.45243,11.64705,-2.79762,-0.69705,-0.06077,0.06736,-0.71126,20.15508,-11.15079,-15.17505
0.01193,0.57310,-0.01030,-1.47558,-0.25125,-0.44306,0.64185,4.97280,-2.36988,10.50758,11.24781,0.36948,-0.69865,-0.07324,0.08824,-0.70621,1.80425,-25.58212,20.61558
-0.00044,0.57750,-0.01541,-1.34293,-0.11325,-0.43056,0.39467,4.54519,-1.84775,11.86546,11.49492,1.35860,-0.69539,-0.08833,0.10407,-0.70555,-7.56772,-33.23290,40.98561
-0.00842,0.58518,-0.01989,-1.17114,0.04543,-0.41064,0.02344,4.26511,-1.40915,12.20740,11.39659,1.75067,-0.68748,-0.10510,0.11975,-0.70851,-17.43763,-26.18809,43.87476
-0.01236,0.59618,-0.02386,-0.96617,0.20601,-0.38679,-0.36443,4.08091,-1.14882,13.45093,8.88287,1.12789,-0.67675,-0.12051,0.13856,-0.71295,-21.89158,-7.30975,20.49873
-0.01272,0.60743,-0.02805,-0.74340,0.33398,-0.37319,-0.64991,3.89831,-0.80942,14.27043,6.62405,0.35647,-0.66586,-0.13737,0.15379,-0.71701,-13.74393,-11.38639,25.90052
-0.01297,0.61642,-0.03304,-0.57085,0.40134,-0.37237,-0.83408,3.79958,-0.53049,14.57564,4.66599,-0.45108,-0.65491,-0.15535,0.16931,-0.71993,-9.75535,-6.37878,25.22482
-0.00894,0.62505,-0.03908,-0.36812,0.45311,-0.38843,-0.80712,3.69449,-0.14499,14.48804,2.92547,-1.69767,-0.64646,-0.17646,0.17990,-0.72013,0.25045,-6.93094,26.90705
-0.00109,0.63337,-0.04622,-0.14559,0.48782,-0.41976,-0.77194,3.70422,0.24662,13.32618,1.48578,-2.10245,-0.63698,-0.20114,0.18994,-0.71953,5.89954,-0.12411,26.04552
0.00727,0.64093,-0.05338,0.03573,0.50144,-0.44371,-0.70595,3.54215,0.62184,13.06344,0.65951,-2.08821,-0.62833,-0.22373,0.19546,-0.71899,8.68325,-3.59491,19.66761
0.01654,0.64863,-0.06077,0.18451,0.51461,-0.46594,-0.67260,3.29653,1.02921,12.00540,1.44856,-2.11710,-0.61898,-0.24597,0.19567,-0.71977,13.41825,-17.99366,33.14589
0.02879,0.65711,-0.06897,0.34542,0.53727,-0.49619,-0.68935,3.05451,1.48227,10.86866,1.66169,-2.00042,-0.60769,-0.26939,0.19163,-0.72210,7.71235,-17.88246,33.86422
0.04207,0.66568,-0.07740,0.48606,0.55629,-0.52295,-0.68838,2.83062,1.84490,9.23184,1.32097,-1.85656,-0.59620,-0.29211,0.18637,-0.72421,5.91729,-13.41219,28.26780
0.05635,0.67458,-0.08597,0.60622,0.57703,-0.54709,-0.61918,2.51135,2.22239,7.83404,1.91533,-1.95089,-0.58580,-0.31363,0.17581,-0.72633,10.21170,-19.09554,25.26476
0.07098,0.68443,-0.09505,0.70407,0.60860,-0.57390,-0.61163,2.30135,2.43660,5.47492,3.09461,-1.71345,-0.57434,-0.33406,0.16737,-0.72837,10.35196,-18.13402,24.16644
0.08521,0.69457,-0.10425,0.77508,0.63687,-0.59539,-0.76568,2.32494,2.27062,4.48088,1.72580,-0.95547,-0.56077,-0.35149,0.17073,-0.72996,-9.82691,-0.90249,-6.84442
0.10001,0.70499,-0.11308,0.83802,0.66373,-0.60775,-0.91622,2.37478,2.14390,4.30145,2.40517,-0.95657,-0.54606,-0.36921,0.17497,-0.73136,-11.15468,0.02008,-10.28578
0.11527,0.71641,-0.12240,0.89382,0.70070,-0.62506,-1.19872,2.53523,1.98938,3.67524,2.79139,-1.29512,-0.52720,-0.38747,0.18403,-0.73353,-20.49044,8.33174,-8.63606
0.13055,0.72856,-0.13213,0.93854,0.74130,-0.64503,-1.37477,2.52943,2.01538,2.86086,2.79600,-2.14058,-0.50805,-0.40538,0.18758,-0.73645,-19.24059,2.37255,-1.37733
0.14596,0.74158,-0.14227,0.97368,0.78646,-0.66885,-1.33930,2.29080,2.27789,2.25552,3.08523,-2.22325,-0.49123,-0.42288,0.18014,-0.73988,3.57252,-12.75295,15.99679
0.16131,0.75506,-0.15311,0.99948,0.82825,-0.69837,-1.16722,1.99617,2.61027,1.38594,2.63713,-2.46970,-0.47631,-0.44051,0.16631,-0.74257,15.48994,-16.64568,23.58520
0.17609,0.76883,-0.16489,1.01168,0.86590,-0.73670,-0.88836,1.71864,2.89366,-0.00222,2.32132,-2.23131,-0.46410,-0.45786,0.14927,-0.74343,23.80193,-14.65693,19.74273
0.19028,0.78257,-0.17661,1.01038,0.89422,-0.76650,-0.67934,1.58603,2.97102,-0.36607,2.13044,-2.02108,-0.45264,-0.47440,0.13660,-0.74256,17.07261,-7.87797,5.39409
0.20406,0.79684,-0.18860,1.00226,0.92442,-0.79316,-0.52543,1.52293,2.99265,-0.95736,2.40568,-1.79361,-0.44112,-0.49090,0.12514,-0.74079,14.83623,-3.30811,1.90356
0.21692,0.81198,-0.20123,0.97974,0.96331,-0.82564,-0.54542,1.56601,2.90513,-2.09162,2.66402,-1.93324,-0.42739,-0.50705,0.11865,-0.73902,1.30919,1.63537,-3.47718
0.22918,0.82709,-0.21385,0.95310,0.99170,-0.84890,-0.67195,1.62975,2.79059,-2.49972,2.27019,-1.92594,-0.41156,-0.52251,0.11517,-0.73779,-11.54386,3.54389,-9.48367
