posX, posY, posZ, velX, velY, velZ, angVelX, angVelY, angVelZ, accX, accY, accZ, rotX, rotY, rotZ, rotW, angAccX, angAccY, angAccZ
-0.00105,1.07365,-0.46587,-0.50667,-0.20388,-0.01453,-0.38180,0.77984,-0.05528,2.16666,0.35634,1.26249,-0.10160,-0.90563,0.18400,-0.36832,11.01732,-6.13972,-6.03084
-0.00612,1.07132,-0.46529,-0.47464,-0.19249,0.00297,-0.13840,0.73464,-0.19056,1.82046,1.08117,0.95452,-0.10648,-0.90743,0.18211,-0.36341,13.86560,-3.69521,-9.37251
-0.01150,1.06938,-0.46489,-0.45476,-0.17779,0.01356,0.02866,0.71453,-0.25186,1.63979,1.43986,0.95161,-0.11000,-0.90942,0.18019,-0.35830,16.07552,-1.65486,-7.25234
-0.01651,1.06802,-0.46443,-0.43397,-0.15655,0.02276,0.16276,0.69238,-0.26768,1.45551,1.80341,0.60044,-0.11283,-0.91144,0.17767,-0.35353,9.60078,-2.29291,-2.72794
-0.02146,1.06730,-0.46390,-0.41615,-0.13076,0.02880,0.22548,0.68238,-0.22189,1.26658,2.06033,0.42073,-0.11365,-0.91349,0.17560,-0.34897,6.37623,-0.80063,0.98596
-0.02630,1.06713,-0.46345,-0.40061,-0.10247,0.03191,0.22442,0.67360,-0.13093,1.07492,2.18451,0.22330,-0.11239,-0.91545,0.17426,-0.34490,1.09153,-0.74032,5.84011
-0.03105,1.06755,-0.46306,-0.38686,-0.07102,0.03307,0.20599,0.67156,-0.01650,0.93519,2.37558,0.06214,-0.10967,-0.91748,0.17295,-0.34100,-1.16985,-0.43961,7.72799
-0.03579,1.06835,-0.46267,-0.37642,-0.04123,0.03292,0.21402,0.67622,0.08230,0.86572,2.65932,-0.20203,-0.10677,-0.91971,0.17093,-0.33692,-0.29098,-0.40346,9.24979
-0.04042,1.07059,-0.46263,-0.36602,0.00586,0.02936,0.30798,0.72161,0.22696,0.44722,3.13335,-0.16564,-0.10272,-0.92299,0.16586,-0.33170,6.65759,2.70249,7.76117
-0.04523,1.07356,-0.46271,-0.36082,0.05597,0.02419,0.35729,0.75929,0.42078,0.34476,3.33235,-0.41265,-0.09622,-0.92632,0.16070,-0.32687,2.62540,2.14598,11.95625
-0.05009,1.07676,-0.46265,-0.35792,0.09735,0.02053,0.43759,0.78933,0.56018,0.12964,3.49868,-0.14115,-0.09035,-0.92975,0.15445,-0.32179,6.49315,2.71146,11.52829
-0.05498,1.08120,-0.46258,-0.35530,0.15048,0.01974,0.53343,0.76432,0.74587,0.26698,3.10035,0.08474,-0.08283,-0.93299,0.14632,-0.31823,6.36410,-1.11901,11.93727
-0.05963,1.08537,-0.46237,-0.34954,0.18616,0.02067,0.63207,0.70156,0.79787,0.48993,2.66832,0.15730,-0.07819,-0.93559,0.13825,-0.31536,7.98726,-3.63492,7.27257
-0.06399,1.09007,-0.46206,-0.34036,0.22103,0.02193,0.76284,0.61754,0.76620,0.60790,2.16747,0.02693,-0.07619,-0.93782,0.12919,-0.31304,9.09901,-5.71760,-0.70815
-0.06816,1.09519,-0.46187,-0.32888,0.25423,0.02038,0.94393,0.54142,0.61150,0.70859,1.88859,-0.32376,-0.07857,-0.93988,0.11915,-0.31025,11.58568,-4.30801,-9.53169
-0.07240,1.10017,-0.46197,-0.32195,0.27785,0.01424,1.08590,0.52720,0.45084,0.44271,2.05955,-0.75540,-0.08199,-0.94214,0.10951,-0.30605,11.08079,-1.65472,-13.34994
-0.07682,1.10603,-0.46240,-0.31996,0.31034,0.00361,1.27551,0.54622,0.29466,-0.03763,2.62938,-0.81428,-0.08709,-0.94470,0.09794,-0.30060,12.38938,2.25889,-12.83518
-0.08163,1.11269,-0.46300,-0.32435,0.34830,-0.00757,1.43851,0.56120,0.20577,-0.34460,2.91371,-0.77626,-0.09147,-0.94721,0.08551,-0.29515,12.86915,2.94021,-7.95183
-0.08662,1.12045,-0.46393,-0.33051,0.39665,-0.02210,1.63596,0.58004,0.13310,-0.42956,3.08024,-1.10425,-0.09641,-0.94970,0.07121,-0.28931,10.29515,0.67169,-4.07950
-0.09165,1.12822,-0.46498,-0.33654,0.43356,-0.03543,1.76314,0.59639,0.07955,-0.45758,3.14552,-1.09416,-0.10115,-0.95193,0.05744,-0.28338,13.85436,3.02549,-6.19496
-0.09698,1.13682,-0.46665,-0.34510,0.47419,-0.05642,1.75841,0.57751,0.09425,-0.62843,2.95855,-1.69233,-0.10348,-0.95366,0.04590,-0.27879,2.28439,-1.37601,0.09351
-0.10276,1.14628,-0.46912,-0.35977,0.52085,-0.08624,1.68568,0.57919,0.17343,-1.08406,2.98950,-1.95650,-0.10328,-0.95548,0.03579,-0.27407,-3.31016,-0.13271,3.56348
-0.10881,1.15552,-0.47168,-0.37563,0.55358,-0.11010,1.58590,0.57421,0.27847,-1.33871,2.60322,-1.99717,-0.10138,-0.95723,0.02655,-0.26970,-7.05363,-0.73115,8.91794
-0.11528,1.16542,-0.47479,-0.39408,0.58891,-0.13756,1.53128,0.59723,0.34962,-1.40127,2.34793,-2.13004,-0.09974,-0.95907,0.01694,-0.26449,-6.59651,-0.91935,7.64330
-0.12221,1.17587,-0.47832,-0.41674,0.62599,-0.16575,1.58808,0.68905,0.34040,-1.43161,2.14226,-1.74476,-0.10069,-0.96123,0.00523,-0.25666,3.21179,5.47523,0.00836
-0.12938,1.18642,-0.48189,-0.43842,0.65658,-0.18925,1.66519,0.79607,0.29353,-1.24664,1.67257,-1.24526,-0.10297,-0.96334,-0.00699,-0.24764,4.95047,7.48450,-2.63190
-0.13644,1.19658,-0.48523,-0.45333,0.67358,-0.20298,1.65459,0.83756,0.28809,-1.12576,1.29698,-0.95679,-0.10395,-0.96505,-0.01766,-0.23994,1.46914,4.93627,-1.54822
-0.14372,1.20679,-0.48875,-0.46880,0.68710,-0.21598,1.57028,0.84740,0.32560,-0.99816,0.70609,-0.72993,-0.10318,-0.96661,-0.02654,-0.23306,-4.81643,0.98296,2.28746
-0.15120,1.21665,-0.49233,-0.48334,0.69151,-0.22708,1.42264,0.83856,0.35765,-0.75694,-0.12038,-0.61483,-0.10172,-0.96803,-0.03322,-0.22688,-8.22795,-1.20281,2.68258
-0.15844,1.22598,-0.49583,-0.49108,0.68619,-0.23376,1.29170,0.82917,0.37666,-0.53265,-0.79172,-0.52765,-0.10027,-0.96935,-0.03931,-0.22081,-10.46934,-1.27739,2.18739
-0.16564,1.23463,-0.49947,-0.49637,0.67042,-0.24089,1.09963,0.81675,0.37736,-0.23433,-1.44210,-0.45108,-0.09857,-0.97065,-0.04263,-0.21518,-12.88147,-1.10011,0.98707
-0.17269,1.24251,-0.50316,-0.49779,0.64455,-0.24750,0.84967,0.79316,0.39174,0.03963,-1.80593,-0.24306,-0.09581,-0.97199,-0.04325,-0.21020,-15.06932,-1.74750,1.36518
-0.17962,1.25015,-0.50665,-0.49715,0.62115,-0.24889,0.66495,0.75907,0.42292,0.20000,-2.12130,0.01644,-0.09254,-0.97324,-0.04416,-0.20563,-15.69878,-2.50977,2.43884
-0.18628,1.25690,-0.51005,-0.49208,0.58874,-0.24844,0.44856,0.71128,0.43886,0.47306,-2.56425,-0.02934,-0.08890,-0.97441,-0.04283,-0.20196,-15.80831,-4.67392,3.18348
-0.19272,1.26302,-0.51327,-0.48395,0.55393,-0.24562,0.28221,0.71896,0.40452,0.61273,-2.46153,0.26341,-0.08666,-0.97570,-0.04099,-0.19703,-13.32261,-0.61925,-1.30611
-0.19907,1.26906,-0.51617,-0.47679,0.52624,-0.23801,0.20047,0.75048,0.36908,0.63400,-2.19742,0.77805,-0.08504,-0.97703,-0.04029,-0.19120,-9.51799,1.97300,-2.63137
-0.20519,1.27452,-0.51829,-0.46765,0.49535,-0.21890,0.17974,0.79150,0.34289,0.53363,-1.60982,1.47092,-0.08369,-0.97837,-0.04073,-0.18477,-2.65010,2.19990,-2.00656
-0.21133,1.28020,-0.51979,-0.46115,0.47462,-0.19373,0.22917,0.80412,0.38830,0.54737,-1.29734,2.03549,-0.08085,-0.97963,-0.04358,-0.17860,3.12964,1.71752,1.42413
-0.21738,1.28593,-0.52093,-0.45466,0.45984,-0.16864,0.28705,0.79509,0.44050,0.52348,-1.11152,2.10531,-0.07752,-0.98074,-0.04719,-0.17293,4.01124,-1.18796,4.80853
-0.22314,1.29121,-0.52073,-0.44491,0.44113,-0.12619,0.42990,0.77299,0.54499,0.75552,-1.11192,2.61384,-0.07294,-0.98173,-0.05404,-0.16723,9.02926,0.77998,4.49645
-0.22863,1.29627,-0.52064,-0.43240,0.42263,-0.09476,0.48288,0.69039,0.64393,1.05496,-1.60509,2.04614,-0.06735,-0.98243,-0.05945,-0.16361,4.77276,-6.72105,8.16638
-0.23362,1.30072,-0.52040,-0.41431,0.39795,-0.06821,0.51100,0.63992,0.66653,1.45157,-2.10408,1.72020,-0.06318,-0.98304,-0.06421,-0.15972,3.18568,-3.81489,2.53450
-0.23800,1.30446,-0.52015,-0.38996,0.36668,-0.04799,0.52318,0.59492,0.62260,1.93650,-2.50787,1.16401,-0.06066,-0.98349,-0.06841,-0.15615,1.16028,-3.77779,-1.73329
-0.24170,1.30756,-0.52000,-0.35965,0.33132,-0.03421,0.53284,0.59473,0.48273,2.17609,-2.72222,0.78308,-0.06122,-0.98388,-0.07202,-0.15179,0.30100,-1.16050,-8.62806
-0.24512,1.31027,-0.51994,-0.33251,0.29882,-0.02545,0.53344,0.61082,0.33414,2.40044,-2.81674,0.69206,-0.06311,-0.98425,-0.07520,-0.14705,0.33399,2.12464,-12.15892
-0.24757,1.31207,-0.51984,-0.29690,0.26010,-0.01808,0.50178,0.61730,0.14222,2.64460,-2.73293,0.47354,-0.06718,-0.98447,-0.07708,-0.14270,-1.78292,1.22924,-12.93881
-0.24955,1.31365,-0.51969,-0.26171,0.22648,-0.01142,0.44669,0.60823,-0.02230,2.33944,-1.96344,0.63284,-0.07162,-0.98463,-0.07799,-0.13887,-4.89734,-0.01975,-12.81602
-0.25143,1.31534,-0.51905,-0.23294,0.20254,0.00187,0.44313,0.55176,-0.08982,2.06952,-1.32875,1.25224,-0.07446,-0.98459,-0.08040,-0.13626,-1.34631,-1.53266,-7.39171
-0.25309,1.31712,-0.51807,-0.20658,0.18547,0.01782,0.43238,0.40068,-0.07694,1.86247,-0.95333,1.12381,-0.07508,-0.98425,-0.08315,-0.13674,0.14687,-9.84847,0.02051
-0.25456,1.31905,-0.51704,-0.18348,0.17481,0.03070,0.38556,0.22694,-0.01687,1.47517,-0.53865,0.78733,-0.07393,-0.98387,-0.08509,-0.13891,-2.93448,-12.41702,2.87933
-0.25610,1.32113,-0.51615,-0.16663,0.16945,0.03834,0.36183,0.11328,0.03684,0.92003,-0.19287,0.16636,-0.07260,-0.98354,-0.08738,-0.14052,-2.02458,-10.36691,3.74865
-0.25791,1.32338,-0.51566,-0.15812,0.16870,0.03825,0.35356,0.09285,0.07165,0.22480,0.11338,-0.45361,-0.07162,-0.98344,-0.08978,-0.14017,-1.36814,-4.43192,3.75435
-0.25999,1.32600,-0.51545,-0.15613,0.17417,0.03359,0.42142,0.21338,0.04038,-0.02034,0.51442,-0.47770,-0.07300,-0.98359,-0.09380,-0.13571,3.11405,7.18311,-0.45526
-0.26214,1.32892,-0.51528,-0.15546,0.18304,0.02922,0.54176,0.34842,-0.03518,0.09806,0.76161,-0.27522,-0.07632,-0.98356,-0.09954,-0.12990,7.74938,10.17974,-4.42320
-0.26410,1.33240,-0.51503,-0.15121,0.19971,0.02770,0.74739,0.48879,-0.22375,0.34933,1.25932,0.14575,-0.08394,-0.98293,-0.10792,-0.12314,12.16341,9.77972,-10.58457
-0.26593,1.33630,-0.51451,-0.14600,0.21960,0.03084,0.90046,0.49237,-0.33739,0.55617,1.61014,0.56618,-0.09045,-0.98185,-0.11653,-0.11923,13.48874,5.33235,-11.83985
-0.26776,1.34051,-0.51404,-0.14256,0.23917,0.03175,0.93420,0.34690,-0.34768,0.21109,1.80528,0.06856,-0.09392,-0.98062,-0.12339,-0.11977,4.11868,-10.13381,-2.69418
-0.26991,1.34573,-0.51372,-0.14526,0.27111,0.02999,0.99762,0.22034,-0.38719,-0.63134,2.24077,-0.38273,-0.09833,-0.97903,-0.13123,-0.12084,2.79886,-9.51217,-2.56189
-0.27260,1.35120,-0.51358,-0.15629,0.29938,0.02572,1.07679,0.21718,-0.40686,-1.21813,2.49140,-0.58194,-0.10288,-0.97760,-0.13980,-0.11900,6.37619,-3.35853,-3.27380
-0.27614,1.35762,-0.51385,-0.17911,0.33695,0.01519,1.16874,0.24409,-0.42226,-1.57308,2.25719,-0.85090,-0.10764,-0.97604,-0.14921,-0.11617,6.63400,1.36942,-0.98551
-0.27984,1.36383,-0.51437,-0.19890,0.36189,0.00312,1.19521,0.32894,-0.44288,-1.77807,1.68556,-1.15143,-0.11268,-0.97476,-0.15711,-0.11162,3.94588,3.93743,-0.20220
-0.28402,1.37028,-0.51548,-0.22177,0.38465,-0.01574,1.17072,0.47756,-0.51424,-1.45842,1.65084,-1.70836,-0.11961,-0.97367,-0.16325,-0.10496,1.02551,7.90318,-5.44675
-0.28819,1.37709,-0.51725,-0.23945,0.40840,-0.04160,1.08573,0.66416,-0.59175,-0.94116,1.38703,-1.33373,-0.12721,-0.97293,-0.16711,-0.09644,-4.16115,12.33386,-3.78701
-0.29219,1.38383,-0.51854,-0.25045,0.42530,-0.05339,1.03345,0.72539,-0.64558,-0.84046,1.46479,-0.50605,-0.13439,-0.97179,-0.17155,-0.09023,-5.28545,9.15753,-4.02754
-0.29637,1.39096,-0.51957,-0.26144,0.44427,-0.05799,0.96934,0.69347,-0.65888,-0.80041,1.79679,-0.02025,-0.14035,-0.97057,-0.17561,-0.08633,-3.86661,1.56957,-3.02921
-0.30122,1.39932,-0.52040,-0.28089,0.47926,-0.05773,0.84218,0.56399,-0.61175,-1.40744,2.36909,0.05031,-0.14372,-0.96972,-0.17789,-0.08571,-9.59948,-9.72547,4.53386
-0.30620,1.40805,-0.52070,-0.29822,0.51267,-0.04873,0.93948,0.69588,-0.67657,-1.81817,3.13414,0.79912,-0.15179,-0.96787,-0.18469,-0.07798,1.58507,3.81807,-2.90176
-0.31202,1.41843,-0.51980,-0.32542,0.56556,-0.02189,1.26308,0.94785,-0.78360,-1.61589,3.60770,1.99977,-0.16299,-0.96440,-0.19784,-0.06503,18.45683,15.96185,-7.66365
-0.31780,1.42916,-0.51823,-0.34623,0.61312,0.00902,1.59622,1.13670,-0.84118,-1.16815,3.22108,2.40961,-0.17355,-0.96003,-0.21340,-0.05172,25.67899,14.38662,-5.51643
-0.32359,1.44014,-0.51626,-0.36227,0.65353,0.03907,1.84284,1.26427,-0.86426,-1.01963,2.53910,2.05690,-0.18327,-0.95529,-0.22875,-0.03881,19.36992,7.86747,-2.42839
-0.32922,1.45108,-0.51418,-0.37200,0.68413,0.06415,1.96443,1.31712,-0.86328,-0.19551,1.74504,1.93185,-0.19205,-0.95059,-0.24240,-0.02720,13.36652,7.73475,-1.30289
-0.33458,1.46206,-0.51196,-0.37490,0.70768,0.08521,1.89574,1.19136,-0.84012,-0.09742,1.20002,1.12966,-0.19881,-0.94678,-0.25228,-0.02101,-3.46689,-8.52996,2.68715
-0.33986,1.47283,-0.50992,-0.37597,0.72244,0.09848,1.83129,1.13158,-0.84198,-0.28611,1.17586,1.04183,-0.20630,-0.94279,-0.26153,-0.01401,-5.74898,-5.35843,-1.15603
-0.34553,1.48393,-0.50767,-0.38351,0.73916,0.11209,1.75783,1.12974,-0.82474,-0.91328,1.34000,0.73938,-0.21345,-0.93895,-0.26977,-0.00594,-6.69499,-3.68710,1.15134
-0.35188,1.49554,-0.50501,-0.40109,0.76089,0.13006,1.78661,1.30576,-0.78748,-1.34645,1.49232,1.30137,-0.22122,-0.93435,-0.27927,0.00772,1.21850,9.95962,2.22730
-0.35840,1.50709,-0.50207,-0.41738,0.77657,0.14868,1.83348,1.41872,-0.69559,-1.20162,1.25260,1.83655,-0.22704,-0.92959,-0.28956,0.02153,5.28687,11.04744,7.11310
-0.36516,1.51887,-0.49831,-0.43331,0.79228,0.17629,1.88154,1.49580,-0.57097,-0.97469,0.94374,2.22159,-0.23117,-0.92478,-0.30013,0.03563,4.25353,4.69848,9.41794
-0.37171,1.53063,-0.49363,-0.44241,0.80279,0.20987,1.93187,1.54033,-0.48961,-0.29009,0.49400,2.57753,-0.23548,-0.91944,-0.31106,0.04933,4.81342,3.38279,7.51648
-0.37783,1.54216,-0.48816,-0.44245,0.80733,0.24899,1.99002,1.54891,-0.46508,0.23675,0.10412,2.99232,-0.24058,-0.91336,-0.32254,0.06212,3.87105,1.20702,1.47172
-0.38353,1.55334,-0.48214,-0.43601,0.80602,0.28943,2.00115,1.50339,-0.45108,0.67800,-0.27641,2.81646,-0.24534,-0.90736,-0.33341,0.07319,2.18030,-3.58955,0.79515
-0.38864,1.56423,-0.47565,-0.42383,0.80148,0.32794,2.01971,1.51755,-0.46811,0.78856,-0.37291,2.62731,-0.25114,-0.90070,-0.34408,0.08534,0.57915,-1.14539,-0.34320
-0.39344,1.57506,-0.46893,-0.40881,0.79687,0.36120,2.07659,1.64468,-0.53731,1.26894,-0.21605,2.73531,-0.25940,-0.89253,-0.35498,0.10049,2.56581,7.05337,-2.90041
-0.39758,1.58582,-0.46108,-0.38360,0.79358,0.40957,2.16723,1.83751,-0.65313,1.96454,-0.13237,3.37938,-0.27019,-0.88250,-0.36639,0.11809,7.75667,16.11896,-7.80284
-0.40158,1.59678,-0.45308,-0.35871,0.79641,0.45444,2.13200,1.80651,-0.68994,1.86960,0.51118,3.56883,-0.27787,-0.87427,-0.37611,0.13034,-2.13283,-0.28346,-2.76726
-0.40551,1.60818,-0.44438,-0.33886,0.80471,0.49877,2.14276,1.79663,-0.71382,1.48865,1.11917,3.91441,-0.28533,-0.86527,-0.38654,0.14314,-2.55840,-2.14182,-2.30502
-0.40888,1.62064,-0.43303,-0.31475,0.82747,0.57653,2.27024,1.89545,-0.71414,1.15860,1.57367,4.81158,-0.29289,-0.85413,-0.39893,0.15978,6.72098,5.20822,-0.57335
-0.41259,1.63326,-0.42109,-0.30108,0.84838,0.64929,2.43884,1.92145,-0.63053,1.07949,1.54631,5.79431,-0.29733,-0.84257,-0.41295,0.17650,11.99334,2.91207,3.41640
-0.41630,1.64583,-0.40868,-0.29149,0.86188,0.70871,2.57142,1.87342,-0.54685,1.17043,1.22877,6.30752,-0.30018,-0.83092,-0.42744,0.19174,13.68143,-2.81999,6.33889
-0.41938,1.65879,-0.39291,-0.27462,0.87774,0.80705,2.75946,1.71858,-0.39497,1.17939,0.75529,5.99462,-0.29871,-0.81904,-0.44463,0.20556,12.54315,-11.74769,6.18878
-0.42200,1.67160,-0.37658,-0.25336,0.88741,0.89481,2.84984,1.58100,-0.26964,1.34803,0.31603,5.18897,-0.29696,-0.80765,-0.46017,0.21856,7.04088,-11.06078,6.30805
-0.42453,1.68412,-0.36070,-0.23603,0.88985,0.95361,2.92727,1.56870,-0.20090,1.37366,0.09497,4.68159,-0.29679,-0.79492,-0.47484,0.23355,5.59933,-5.65125,4.50701
-0.42638,1.69649,-0.34360,-0.21284,0.88870,1.01637,3.00926,1.61003,-0.13171,1.80790,-0.28903,4.43086,-0.29648,-0.78117,-0.48918,0.25014,6.77691,1.76810,4.98480
-0.42775,1.70842,-0.32574,-0.18749,0.88033,1.07689,3.10756,1.60890,-0.07124,1.92575,-0.93886,4.24952,-0.29519,-0.76663,-0.50426,0.26619,7.20635,0.39705,3.23884
-0.42865,1.71976,-0.30736,-0.16007,0.86435,1.13218,3.17432,1.54583,-0.02059,2.09685,-1.36517,3.77495,-0.29279,-0.75222,-0.51935,0.28057,5.83856,-4.51377,2.60649
-0.42895,1.73055,-0.28852,-0.12991,0.84220,1.18125,3.25771,1.52151,0.00449,2.06480,-1.86345,3.21905,-0.29060,-0.73651,-0.53465,0.29539,5.56542,-3.78929,0.68467
-0.42891,1.74084,-0.26981,-0.10129,0.81799,1.21681,3.34188,1.58637,0.00291,2.37501,-2.19449,2.78645,-0.28969,-0.71904,-0.54937,0.31187,6.46716,1.61663,1.15665
-0.42769,1.74983,-0.25002,-0.05971,0.77827,1.26204,3.49633,1.73164,-0.02326,2.79525,-2.77516,2.84824,-0.28983,-0.69824,-0.56486,0.33076,10.02853,11.81570,-0.11573
-0.42624,1.75834,-0.23008,-0.02400,0.73892,1.29940,3.61179,1.73972,-0.03414,2.48065,-2.87589,2.56353,-0.28792,-0.67793,-0.58064,0.34694,7.98669,1.53433,-2.28436
-0.42445,1.76610,-0.20981,0.00909,0.69650,1.33364,3.78578,1.78921,0.00005,2.34486,-3.14426,2.27480,-0.28461,-0.65536,-0.59682,0.36512,11.73993,3.46767,1.25726
-0.42265,1.77311,-0.18965,0.03928,0.65125,1.35988,3.89445,1.70640,0.08141,2.37932,-3.61696,1.43543,-0.27808,-0.63425,-0.61250,0.38111,10.98080,-3.27800,2.97720
-0.42204,1.77918,-0.17006,0.06929,0.59523,1.37765,3.86439,1.41604,0.18451,2.38062,-4.08899,0.83028,-0.26791,-0.61746,-0.62708,0.39209,1.02620,-16.77130,2.63484
-0.42107,1.78447,-0.15033,0.09452,0.53891,1.39187,3.79193,1.04266,0.24263,2.01507,-4.44717,1.00954,-0.25599,-0.60280,-0.64170,0.39916,-6.15445,-26.45363,-1.45239
-0.41880,1.78876,-0.13026,0.11628,0.48415,1.40430,3.77606,0.73815,0.28724,1.76904,-4.59717,1.18272,-0.24293,-0.58730,-0.65674,0.40589,-2.85828,-27.28632,-3.02174
-0.41530,1.79094,-0.10946,0.14759,0.40819,1.42516,3.91818,0.42999,0.34556,2.06146,-4.75115,1.31960,-0.22598,-0.56938,-0.67420,0.41255,7.81960,-19.08446,-0.70844
-0.41166,1.79315,-0.08881,0.17405,0.35028,1.43846,4.05601,0.22851,0.37304,2.33906,-4.92862,0.89283,-0.20931,-0.54975,-0.69138,0.41947,12.03108,-18.13948,-2.58992
-0.40718,1.79368,-0.06837,0.20773,0.27919,1.44497,4.18152,-0.00348,0.36006,2.42393,-5.41790,-0.06351,-0.19114,-0.52978,-0.70920,0.42407,10.64787,-15.74663,-4.26033
-0.40200,1.79252,-0.04882,0.24563,0.19541,1.43507,4.17371,-0.30803,0.29304,2.55212,-5.26170,-1.30384,-0.17259,-0.51262,-0.72608,0.42454,2.29868,-15.54209,-6.71999
-0.39694,1.79178,-0.02995,0.27274,0.13807,1.41666,4.06152,-0.61047,0.16271,2.18872,-4.69254,-1.94666,-0.15513,-0.49782,-0.74204,0.42128,-6.51186,-20.89955,-15.65603
-0.39130,1.78955,-0.01238,0.30314,0.06942,1.38069,3.89210,-0.98237,-0.04617,1.63897,-3.94870,-2.61001,-0.13733,-0.48561,-0.75827,0.41273,-9.74864,-19.98501,-18.43199
-0.38606,1.78777,0.00471,0.31996,0.02411,1.34504,3.82933,-1.11732,-0.17389,0.67284,-3.49525,-3.19030,-0.12105,-0.47003,-0.77362,0.40734,-7.82499,-14.87564,-19.01904
-0.38094,1.78569,0.02083,0.33050,-0.01445,1.30349,3.84638,-1.05605,-0.17766,0.31057,-2.78905,-3.60355,-0.10592,-0.45109,-0.78730,0.40676,0.34384,1.22961,-4.08731
-0.37614,1.78288,0.03472,0.33349,-0.05654,1.23408,3.91104,-0.82077,0.02548,-0.36156,-2.01989,-4.10888,-0.09115,-0.42926,-0.79773,0.41359,3.15241,10.09358,13.15419
-0.37173,1.78078,0.04897,0.32945,-0.07812,1.18561,3.92818,-0.67381,0.22424,-0.33647,-1.59491,-4.05315,-0.07540,-0.40839,-0.80670,0.42044,1.55529,9.62157,20.86067
-0.36785,1.77840,0.06120,0.31760,-0.09951,1.11399,3.89844,-0.58832,0.48006,-0.72899,-1.02514,-4.17566,-0.05823,-0.38883,-0.81342,0.42869,-1.98096,1.70956,14.89846
-0.36412,1.77617,0.07337,0.30538,-0.11423,1.05598,3.83101,-0.57273,0.65104,-0.87832,-1.13565,-4.17417,-0.04091,-0.37046,-0.81956,0.43520,-4.88990,-0.34952,14.16122
-0.36077,1.77378,0.08526,0.28979,-0.12779,1.00761,3.72466,-0.69645,0.67958,-1.28926,-1.32509,-4.16951,-0.02240,-0.35449,-0.82617,0.43736,-6.33644,-7.54230,5.05447
-0.35835,1.77066,0.09589,0.26269,-0.15042,0.95086,3.62921,-0.93295,0.62832,-2.25671,-1.86894,-3.86296,-0.00164,-0.34044,-0.83323,0.43569,-8.25095,-14.51054,-7.08852
-0.35705,1.76685,0.10581,0.22312,-0.17918,0.89588,3.60685,-1.25666,0.54682,-3.39453,-2.13565,-4.02129,0.02272,-0.32661,-0.84083,0.43106,-0.70107,-19.20743,-11.08622
-0.35708,1.76253,0.11473,0.17052,-0.20980,0.83648,3.64508,-1.62430,0.58436,-4.44173,-2.21655,-4.38540,0.05196,-0.31271,-0.84683,0.42708,2.18547,-25.27838,-7.25013
-0.35841,1.75767,0.12228,0.10866,-0.24217,0.76804,3.75741,-1.98898,0.77933,-4.71880,-2.40732,-5.45542,0.08613,-0.29739,-0.85016,0.42587,7.37188,-27.53409,6.38981
-0.36068,1.75230,0.12781,0.04568,-0.27531,0.68151,3.84856,-2.36874,0.93397,-4.07656,-2.27453,-7.11464,0.12285,-0.28263,-0.85194,0.42335,7.78548,-29.35097,9.85336
-0.36357,1.74673,0.13105,-0.01302,-0.30425,0.57724,3.87370,-2.80562,0.84055,-3.80928,-1.90053,-8.06623,0.16029,-0.27059,-0.85439,0.41364,4.52596,-28.37906,-8.43400
-0.36714,1.74113,0.13184,-0.06920,-0.32675,0.45624,3.90385,-3.25765,0.62108,-4.03940,-1.23904,-9.35130,0.19917,-0.25960,-0.85690,0.39832,7.32271,-27.57827,-23.06238
-0.37122,1.73591,0.12995,-0.12092,-0.33762,0.31898,3.92682,-3.66990,0.53171,-3.79551,-0.38040,-10.49536,0.24013,-0.24882,-0.85627,0.38370,5.91448,-26.58763,-16.20542
-0.37566,1.73120,0.12515,-0.16663,-0.33761,0.16529,3.92960,-4.07652,0.50952,-2.90788,0.36890,-11.77619,0.28322,-0.23877,-0.85243,0.36896,3.49170,-27.82488,-7.14583
-0.38008,1.72705,0.11720,-0.20112,-0.32831,-0.00501,3.90301,-4.46391,0.39592,-1.95752,0.93797,-12.79985,0.32651,-0.23033,-0.84702,0.35057,1.54911,-26.48844,-14.20324
-0.38407,1.72353,0.10618,-0.22054,-0.31073,-0.18668,3.86718,-4.80792,0.33954,-0.96075,1.55626,-13.49357,0.37032,-0.22206,-0.83864,0.33201,2.39117,-23.17578,-11.49902
-0.38734,1.72029,0.09341,-0.22362,-0.29296,-0.35246,3.85399,-5.09825,0.51561,0.02609,1.62178,-14.34329,0.41588,-0.21161,-0.82530,0.31804,-1.07252,-24.06576,-2.56204
-0.38926,1.71764,0.07567,-0.20388,-0.27014,-0.55831,3.81733,-5.42787,0.91787,2.35270,1.64022,-15.31985,0.46482,-0.19991,-0.80502,0.30970,-9.83577,-29.51829,18.17750
-0.38817,1.71582,0.05027,-0.13794,-0.23774,-0.85064,3.86141,-5.88210,1.15227,5.79803,2.51999,-17.30416,0.51691,-0.18787,-0.78080,0.29640,-2.61448,-29.35327,12.95425
-0.38589,1.71483,0.02590,-0.06706,-0.19836,-1.06092,3.99398,-6.13110,0.85219,7.19448,4.19555,-17.72914,0.56249,-0.17693,-0.76125,0.26983,14.84106,-18.33947,-15.37939
-0.38026,1.71655,-0.00391,0.04174,-0.12390,-1.30908,4.13045,-6.45731,0.45729,8.82684,6.71441,-18.10176,0.60850,-0.16804,-0.73860,0.23656,24.72138,-13.10547,-27.51198
-0.36992,1.72248,-0.03871,0.20621,0.00538,-1.58657,4.08633,-6.86483,0.12483,11.63356,9.67690,-17.25684,0.65426,-0.16404,-0.70980,0.20304,11.12506,-19.32696,-25.37888
-0.35651,1.73125,-0.07408,0.38635,0.15397,-1.81213,3.81229,-7.30320,-0.06577,14.06678,11.84478,-15.82263,0.69869,-0.16499,-0.67413,0.17364,-4.64409,-23.05440,-26.70028
-0.34011,1.74227,-0.10983,0.57118,0.30280,-1.98814,3.43549,-7.70547,-0.26218,17.02600,13.24901,-14.40835,0.74046,-0.17054,-0.63365,0.14532,-17.18840,-28.06982,-32.93411
-0.31406,1.75990,-0.14965,0.87501,0.52756,-2.18968,2.83233,-8.22415,-0.57487,21.39779,15.18665,-11.03432,0.78039,-0.18615,-0.58520,0.11781,-23.79456,-28.34791,-38.84510
-0.28288,1.78042,-0.18747,1.19850,0.75179,-2.31292,2.35496,-8.43408,-1.09702,25.72448,17.15249,-5.86544,0.81217,-0.20506,-0.53931,0.08644,-19.15272,-17.44461,-49.31803
-0.24765,1.80361,-0.22247,1.50804,0.96414,-2.35867,2.15757,-8.24547,-1.76903,27.04098,18.71634,-1.36074,0.83422,-0.22401,-0.50153,0.04872,9.75351,16.34933,-53.13559
-0.20067,1.83556,-0.25327,1.94140,1.27335,-2.32216,1.57363,-7.80895,-2.86553,27.84961,20.45420,5.33818,0.84358,-0.26195,-0.46863,0.01170,9.42726,34.37879,-67.66167
-0.15093,1.86977,-0.27804,2.32599,1.55237,-2.19242,0.49881,-7.39459,-3.99898,28.12820,20.37152,12.10854,0.84472,-0.31622,-0.43156,-0.01451,-14.19700,41.32885,-94.87115
-0.09853,1.90548,-0.29743,2.65881,1.78672,-2.00626,-0.60167,-6.75479,-5.22817,28.69196,19.43191,18.41524,0.83343,-0.38208,-0.39763,-0.03604,-30.14608,56.77084,-122.48570
-0.03728,1.94607,-0.30787,3.05518,2.04311,-1.71892,-1.57899,-5.60103,-6.98880,29.56449,17.56580,23.31320,0.79859,-0.46636,-0.37572,-0.05997,7.27247,77.58434,-141.32610
0.03474,1.98975,-0.30826,3.54612,2.29471,-1.32714,-2.26672,-3.91745,-9.30208,33.48436,13.55986,26.04002,0.73339,-0.56551,-0.36666,-0.08887,46.71406,80.21481,-155.66770
0.11376,2.03019,-0.30488,4.04762,2.43598,-0.95831,-2.46940,-2.31997,-11.29597,38.77834,6.15041,27.25582,0.65131,-0.65716,-0.35985,-0.12017,70.18297,72.19238,-158.61690
0.20514,2.06500,-0.29556,4.63986,2.44812,-0.57638,-2.17549,-0.78233,-13.19808,45.80695,-5.80177,28.33129,0.54754,-0.74053,-0.35660,-0.15701,83.83525,44.39645,-146.04750
0.31404,2.08515,-0.27690,5.40766,2.19832,-0.12776,-1.05957,0.69493,-14.85166,49.03599,-26.08398,29.29099,0.42436,-0.80399,-0.36359,-0.20327,105.87980,9.57266,-121.79750
0.42682,2.08837,-0.25372,6.08277,1.69620,0.27731,0.57617,1.54521,-15.77674,46.25683,-46.38358,28.94522,0.30163,-0.83890,-0.37304,-0.25712,115.39850,-47.02580,-84.96877
0.54094,2.07474,-0.22865,6.59520,1.03470,0.61559,2.03936,1.65792,-16.19690,38.77635,-64.05515,28.32579,0.18400,-0.85273,-0.37457,-0.31417,89.88519,-75.79411,-64.28661
0.66118,2.02962,-0.19796,7.06848,0.01981,0.97496,4.04453,0.77936,-16.55548,27.74252,-81.14645,23.63548,0.06712,-0.83537,-0.37508,-0.39618,43.10849,-137.22700,-49.95900
0.77662,1.95816,-0.16753,7.34391,-1.18819,1.25596,4.82683,-0.07070,-17.44358,12.09023,-93.13965,14.36569,-0.06082,-0.81102,-0.34518,-0.46841,-39.65733,-105.36410,-86.55244
0.88099,1.87029,-0.13950,7.36879,-2.36496,1.42784,4.83345,1.17182,-18.53307,-9.52365,-104.37000,7.09808,-0.21630,-0.79090,-0.30730,-0.48297,40.55019,28.76814,-77.66825
0.95676,1.73333,-0.11201,6.91053,-4.07952,1.54994,6.27954,4.30439,-18.40816,-46.42404,-108.89070,5.48687,-0.38259,-0.75446,-0.31438,-0.43079,216.80150,35.45839,8.41699
0.99571,1.57943,-0.08789,5.91508,-5.72243,1.58728,10.15350,6.42059,-17.49882,-78.09208,-95.28825,-1.06726,-0.54321,-0.65983,-0.37024,-0.36397,222.47230,-132.26380,-54.87185
1.02660,1.44554,-0.06732,5.04822,-6.62189,1.56012,13.75654,6.89281,-16.51237,-95.27975,-83.57281,-6.39246,-0.67401,-0.52573,-0.42599,-0.29638,209.00020,-216.35020,-127.41380
0.99416,1.28393,-0.05652,3.34746,-7.74629,1.37129,19.06815,5.08180,-15.12781,-116.60590,-55.26223,-15.43146,-0.75945,-0.30909,-0.52728,-0.22289,142.19600,-250.64310,-265.57860
0.94120,1.14604,-0.05627,1.68154,-8.22857,1.05210,19.99449,1.30308,-14.57688,-119.58080,-16.31777,-22.46098,-0.77917,-0.11863,-0.57508,-0.21935,-85.22020,-124.16540,-263.06200
0.89286,1.03164,-0.05680,0.52394,-8.21600,0.80843,18.07874,-1.21947,-14.51980,-112.68940,13.07609,-20.09783,-0.77976,0.02216,-0.57580,-0.24484,-212.44200,29.46073,-190.83130
0.79072,0.95821,-0.06241,-1.22473,-7.53984,0.54529,11.01047,-3.30385,-14.51852,-80.59242,54.27505,-6.26607,-0.75108,0.05640,-0.53600,-0.38131,-325.21560,269.44060,-34.64421
0.71415,0.90852,-0.05361,-2.21782,-6.60431,0.57262,5.51675,-2.59099,-12.78994,-45.98906,63.19763,8.39156,-0.73652,0.04146,-0.48926,-0.46524,-249.02640,274.97640,86.41906
0.65207,0.86501,-0.03582,-2.74866,-5.77454,0.74338,1.60427,-1.44125,-11.31737,-31.23270,56.30997,14.58086,-0.72177,0.02577,-0.43931,-0.53422,-185.60200,218.94670,129.94530
0.59519,0.82830,-0.01440,-3.07177,-5.03426,0.93793,-1.39144,0.03281,-10.53236,-15.93186,53.10827,11.48118,-0.70602,0.01104,-0.37023,-0.60360,-134.84760,256.65390,32.52083
0.54302,0.79268,0.00579,-3.23699,-4.45990,1.06201,-2.54177,0.33094,-9.77629,-9.32965,46.60018,7.77944,-0.68616,0.02159,-0.32636,-0.64977,-59.76792,125.31650,57.70810
0.49309,0.77067,0.02460,-3.32389,-3.79037,1.13176,-3.14574,0.27680,-8.91946,0.04374,39.46870,0.10777,-0.66348,0.03505,-0.29394,-0.68714,-35.96812,43.16367,42.09161
0.44918,0.74643,0.03854,-3.29611,-3.30896,1.10355,-2.94796,-0.42531,-7.82834,4.67975,31.27036,-4.64472,-0.64335,0.05986,-0.28565,-0.70776,-15.40081,-30.32345,82.16375
0.40968,0.72308,0.04876,-3.19956,-2.92287,1.01916,-2.35513,-1.00067,-6.52837,8.15321,25.68611,-7.03683,-0.63196,0.08178,-0.28792,-0.71487,17.45337,-39.04406,99.04512
0.37182,0.69941,0.05805,-3.09386,-2.63681,0.93913,-1.94017,-1.18782,-5.60603,7.95529,22.77990,-5.65925,-0.62272,0.10031,-0.28423,-0.72206,20.87898,-34.11295,95.54586
0.33890,0.68413,0.06684,-2.93691,-2.27694,0.87057,-1.78760,-0.44768,-4.92889,9.03595,22.43971,-2.17566,-0.61970,0.10081,-0.26276,-0.73265,24.89483,34.79331,46.85924
0.30598,0.66818,0.07755,-2.81295,-2.01169,0.84862,-1.97036,0.47112,-4.70557,10.16862,21.26292,-1.00086,-0.61204,0.09645,-0.22754,-0.75122,14.58776,75.70729,13.44410
0.27607,0.65742,0.08820,-2.66650,-1.72655,0.82980,-2.27171,1.51918,-4.64862,10.92084,19.75857,-2.18917,-0.60174,0.08478,-0.18280,-0.77285,0.16079,79.97761,-3.19570
0.25002,0.65027,0.09645,-2.48519,-1.44434,0.77297,-2.31840,2.37660,-4.46925,12.60672,16.07222,-5.75294,-0.59407,0.07089,-0.13961,-0.78903,9.04740,59.99292,-1.55200
0.22441,0.64060,0.10250,-2.33783,-1.26926,0.69366,-2.09861,2.71288,-4.14465,12.83700,13.58499,-8.23714,-0.58936,0.06217,-0.10675,-0.79837,23.72127,33.28431,14.90194
0.20257,0.63198,0.10498,-2.16834,-1.11201,0.57819,-1.55357,2.87123,-3.63363,12.29651,9.79764,-8.82732,-0.59330,0.05288,-0.08131,-0.79912,44.89828,10.54239,23.67605
0.18309,0.62160,0.10522,-2.00751,-0.99600,0.45920,-0.88025,2.89216,-3.05954,10.95032,8.49065,-8.26126,-0.60292,0.04360,-0.06206,-0.79419,53.52971,-6.43348,34.31657
0.16609,0.61317,0.10372,-1.83748,-0.86787,0.33798,-0.15834,3.03019,-2.67547,10.08727,9.06157,-6.47349,-0.61688,0.03316,-0.03892,-0.78539,53.77030,-1.23482,17.30445
0.14885,0.60876,0.10374,-1.69609,-0.73429,0.25979,0.22130,3.15049,-2.42778,10.65916,10.08147,-4.56150,-0.62573,0.02226,-0.01411,-0.77959,36.27946,6.09362,7.35410
0.13366,0.60809,0.10394,-1.55016,-0.57250,0.20108,0.24380,3.14146,-2.02723,10.36319,12.27850,-3.69756,-0.62827,0.00873,0.00340,-0.77794,13.70854,-2.08316,28.47126
0.11908,0.60897,0.10420,-1.43143,-0.42586,0.15769,0.14393,3.12637,-1.87675,9.63830,12.27602,-3.73600,-0.62718,-0.00218,0.02418,-0.77850,-4.02065,0.53078,19.65716
0.10775,0.61429,0.10297,-1.28435,-0.24023,0.09948,0.05923,2.95121,-1.73291,9.13902,11.29085,-3.86606,-0.62552,-0.00979,0.04125,-0.77905,-5.18804,-9.35480,11.36768
0.09703,0.61964,0.10118,-1.15779,-0.09537,0.04424,0.04606,2.78174,-1.70658,9.46069,9.58724,-4.19021,-0.62477,-0.01487,0.05972,-0.77838,-2.41789,-12.13987,2.81303
0.08874,0.62570,0.09838,-1.02077,0.02731,-0.01528,0.07027,2.55935,-1.53653,10.84068,7.92341,-4.50704,-0.62489,-0.02048,0.07316,-0.77701,1.08732,-14.65389,6.29839
0.08350,0.63257,0.09467,-0.86495,0.13520,-0.07494,0.05296,2.35643,-1.18758,11.86638,7.25375,-4.03703,-0.62431,-0.02941,0.08075,-0.77643,2.41212,-16.62808,23.80690
0.08125,0.64016,0.09040,-0.69411,0.22915,-0.13056,0.00258,2.33696,-0.78639,12.57645,6.16878,-3.65879,-0.62246,-0.04390,0.08770,-0.77648,-0.03109,-5.85350,28.23132
0.08169,0.64810,0.08571,-0.51997,0.30706,-0.18011,-0.01337,2.41361,-0.41369,12.50745,5.18211,-3.36559,-0.62060,-0.06179,0.09483,-0.77591,2.46922,4.21144,26.95177
0.08548,0.65708,0.08006,-0.32706,0.38579,-0.23531,-0.01985,2.59233,-0.16692,11.63809,5.07414,-3.44883,-0.61827,-0.08165,0.10487,-0.77465,4.08250,9.65461,19.30157
0.08863,0.66574,0.07427,-0.19188,0.44045,-0.27949,-0.09400,2.76386,-0.15239,11.09606,4.31731,-3.96238,-0.61399,-0.09894,0.11975,-0.77388,-3.91370,15.01400,4.82193
0.09464,0.67502,0.06700,-0.04377,0.49194,-0.33744,-0.18814,2.87630,-0.09685,10.59793,2.95213,-4.66571,-0.60846,-0.11651,0.13344,-0.77356,-6.13366,11.25194,2.32020
0.10258,0.68401,0.05832,0.09924,0.52725,-0.40410,-0.24907,2.84187,0.12363,10.23403,1.93125,-5.31349,-0.60296,-0.13454,0.14077,-0.77364,-3.87424,-0.63790,13.96635
0.11228,0.69257,0.04809,0.23844,0.54735,-0.48112,-0.25146,2.80349,0.41748,9.97505,0.73053,-5.75778,-0.59791,-0.15459,0.14474,-0.77308,2.20208,-2.15212,19.61924
0.12473,0.70043,0.03599,0.39337,0.55104,-0.57303,-0.12021,2.74943,0.87185,9.64729,-0.21609,-5.79285,-0.59489,-0.17846,0.14269,-0.77065,11.92665,-3.27985,26.13610
0.13776,0.70788,0.02329,0.52388,0.54746,-0.65514,0.02151,2.77927,1.24369,8.91310,-0.14725,-5.95405,-0.59187,-0.20427,0.14105,-0.76686,14.79748,1.28177,27.33482
0.15206,0.71534,0.00927,0.64462,0.54477,-0.73969,0.15629,2.87982,1.52833,8.46686,0.11348,-6.13929,-0.58852,-0.23181,0.14053,-0.76168,12.99954,6.70575,18.68604
0.16769,0.72438,-0.00572,0.75745,0.55179,-0.82711,0.24279,3.09177,1.75714,7.57276,0.56531,-6.21399,-0.58352,-0.26232,0.14192,-0.75535,9.83755,13.36036,17.33960
0.18436,0.73661,-0.02083,0.85714,0.56668,-0.91174,0.30753,3.26708,1.98242,6.62522,0.50347,-6.69042,-0.57740,-0.29374,0.14254,-0.74833,4.07014,16.12815,13.08304
0.20073,0.74853,-0.03692,0.92839,0.58294,-0.98768,0.40724,3.32951,2.22070,5.32517,1.00411,-6.94284,-0.57164,-0.32477,0.13980,-0.74041,9.94004,8.32082,18.52398
0.21784,0.75953,-0.05649,0.99765,0.60891,-1.09413,0.56676,3.35287,2.50572,3.33181,1.91929,-6.61876,-0.56631,-0.35702,0.13343,-0.73077,13.91449,3.25835,16.85272
0.23396,0.77008,-0.07764,1.03701,0.64509,-1.19728,0.74165,3.32746,2.71295,1.70973,2.70002,-6.45066,-0.56156,-0.38779,0.12621,-0.71996,12.20883,0.42390,9.81501
0.24910,0.78085,-0.09785,1.04911,0.67544,-1.25728,0.88500,3.26859,2.85226,0.82949,3.38337,-5.80650,-0.55675,-0.41715,0.11826,-0.70854,16.59567,-2.10162,10.77470
0.26371,0.79469,-0.12098,1.04913,0.75207,-1.35182,1.05982,3.18984,3.05773,-0.87186,5.42423,-4.57355,-0.55184,-0.44704,0.10664,-0.69588,14.61709,-3.97219,9.95459
0.27745,0.80916,-0.14306,1.03421,0.82131,-1.40584,1.02879,3.23429,3.10809,-1.68012,6.30499,-3.92427,-0.54341,-0.47635,0.10069,-0.68386,2.45134,1.63930,5.32331
0.29008,0.82598,-0.16582,1.00418,0.91283,-1.45748,0.93585,3.27052,3.21199,-2.62420,6.83985,-3.36369,-0.53205,-0.50599,0.09415,-0.67233,-5.92764,2.26434,7.17334
0.30105,0.84532,-0.18891,0.95068,1.02802,-1.50567,0.89384,3.24441,3.43437,-4.05103,7.50883,-2.96879,-0.51894,-0.53619,0.08350,-0.66047,-1.84231,-1.81992,13.42507
0.31110,0.86499,-0.21167,0.89447,1.12092,-1.53666,0.96079,3.16531,3.69075,-5.31980,7.78423,-2.50185,-0.50602,-0.56610,0.06880,-0.64711,7.58489,-4.90428,17.22759
0.31865,0.88685,-0.23472,0.80997,1.22709,-1.56444,1.13843,3.01918,4.00779,-6.81515,7.26706,-1.80197,-0.49309,-0.59563,0.04836,-0.63226,15.32724,-7.88788,19.35256
0.32390,0.90966,-0.25757,0.70551,1.32342,-1.58117,1.44243,2.85788,4.29060,-8.37788,6.61353,-0.72090,-0.48190,-0.62412,0.02366,-0.61457,27.64886,-7.73203,16.84668
