posX, posY, posZ, velX, velY, velZ, angVelX, angVelY, angVelZ, accX, accY, accZ, rotX, rotY, rotZ, rotW, angAccX, angAccY, angAccZ
-0.00470,1.65895,-0.53411,-1.05765,0.57369,0.12354,1.32211,1.20407,0.97164,2.63967,-3.60345,1.83583,-0.29536,-0.83854,-0.45425,-0.05714,-4.15200,-3.80968,-2.46193
-0.01696,1.66356,-0.52998,-1.01457,0.51632,0.15411,1.25904,1.12730,0.89709,2.61304,-3.56470,1.83087,-0.29475,-0.83682,-0.45891,-0.04756,-4.22681,-4.29164,-4.71723
-0.02882,1.66742,-0.52546,-0.97384,0.45826,0.18380,1.21359,1.03942,0.80557,2.46620,-3.56771,1.56382,-0.29456,-0.83463,-0.46380,-0.03902,-3.39383,-5.92602,-5.94847
-0.04040,1.67102,-0.52159,-0.93788,0.40809,0.20353,1.21086,1.01296,0.70261,2.55682,-3.59076,1.03959,-0.29559,-0.83177,-0.46893,-0.02979,-0.56856,-3.24180,-6.60848
-0.05150,1.67431,-0.51823,-0.90444,0.36593,0.21300,1.21161,1.02478,0.57880,2.82997,-3.51300,0.48105,-0.29810,-0.82845,-0.47371,-0.02042,-0.57276,0.75593,-8.79949
-0.06121,1.67647,-0.51511,-0.85507,0.31431,0.21610,1.21903,1.11519,0.38314,3.09080,-2.85974,-0.07084,-0.30399,-0.82416,-0.47774,-0.01045,-1.23411,5.35177,-11.59935
-0.08193,1.68265,-0.50926,-0.81193,0.27755,0.21535,1.25690,1.24410,0.23449,2.95576,-2.44094,-0.00946,-0.31345,-0.81552,-0.48635,0.01175,1.58685,10.76267,-11.14727
-0.09014,1.68416,-0.50686,-0.76907,0.24377,0.21285,1.19339,1.24438,0.10532,2.62283,-1.84568,0.06177,-0.31991,-0.81137,-0.48883,0.01973,-3.12922,2.75261,-7.70634
-0.09893,1.68630,-0.50419,-0.74255,0.22568,0.21303,1.09075,1.15447,0.05819,2.04299,-1.29902,0.35401,-0.32331,-0.80863,-0.49087,0.02547,-7.83290,-4.14150,-5.55978
-0.10747,1.68827,-0.50124,-0.71745,0.20861,0.21700,0.82345,0.79642,0.08608,0.99491,-0.53665,0.18577,-0.32046,-0.80973,-0.49105,0.02248,-14.46328,-21.26546,-0.13062
-0.11645,1.69092,-0.49858,-0.70283,0.20484,0.21604,0.68145,0.64157,0.20004,0.64203,0.36975,-0.45008,-0.31721,-0.81052,-0.49174,0.02520,-10.88072,-12.84613,5.97260
-0.12544,1.69400,-0.49632,-0.69100,0.20854,0.20687,0.64573,0.70025,0.31388,0.65824,0.35280,-0.98566,-0.31604,-0.81016,-0.49255,0.03384,-3.47388,0.70906,9.95963
-0.13425,1.69719,-0.49444,-0.67871,0.21246,0.19437,0.70245,0.88418,0.37698,0.77851,0.30104,-0.84850,-0.31759,-0.80803,-0.49402,0.04652,2.01512,11.47322,5.54409
-0.14289,1.70030,-0.49242,-0.66639,0.21425,0.18678,0.81888,1.08723,0.41231,1.05067,-0.11139,-0.16891,-0.32034,-0.80436,-0.49663,0.06130,8.18906,16.15084,3.56539
-0.15114,1.70311,-0.49010,-0.65029,0.21086,0.18503,0.79672,1.08435,0.39460,1.23934,-0.59103,0.17667,-0.32191,-0.80207,-0.49811,0.07029,1.01084,3.24201,-0.80638
-0.15914,1.70569,-0.48782,-0.63318,0.20405,0.18437,0.65289,0.93727,0.34828,1.11813,-0.33314,0.00351,-0.32228,-0.80171,-0.49793,0.07388,-9.93037,-9.23238,-2.40345
-0.16718,1.70832,-0.48545,-0.62055,0.19997,0.18425,0.58750,0.88267,0.31976,0.85695,-0.28315,-0.03814,-0.32324,-0.80060,-0.49825,0.07937,-7.17195,-7.46051,-2.68232
-0.17506,1.71092,-0.48288,-0.60816,0.19666,0.18554,0.56518,0.85075,0.30356,0.83991,-0.04868,0.22976,-0.32416,-0.79905,-0.49914,0.08543,-2.75462,-3.05573,-1.43472
-0.18273,1.71362,-0.47978,-0.59521,0.19538,0.19544,0.68096,0.88607,0.29492,0.68587,0.16493,0.89216,-0.32559,-0.79535,-0.50252,0.09426,5.19569,1.91484,-1.47212
-0.19053,1.71649,-0.47641,-0.58729,0.19728,0.20708,0.79187,0.90068,0.31725,0.68789,0.19720,1.02001,-0.32604,-0.79147,-0.50652,0.10351,10.38683,2.62016,0.72369
-0.19815,1.71951,-0.47291,-0.57815,0.20093,0.21954,0.88958,0.89440,0.39597,0.65512,0.15151,0.63869,-0.32464,-0.78791,-0.51082,0.11341,7.70404,0.24616,4.14785
-0.20566,1.72267,-0.46981,-0.56861,0.20586,0.22350,0.83222,0.78005,0.50605,0.75686,0.14354,0.05284,-0.32089,-0.78709,-0.51289,0.12024,-1.31694,-6.24966,6.40969
-0.21321,1.72573,-0.46688,-0.56242,0.20828,0.22212,0.75774,0.71186,0.55514,0.85643,0.18251,-0.26331,-0.31820,-0.78645,-0.51403,0.12655,-6.29594,-9.80576,6.73990
-0.21988,1.72873,-0.46437,-0.54354,0.20923,0.21401,0.61549,0.62713,0.61064,1.16581,-0.17205,-0.55305,-0.31477,-0.78748,-0.51334,0.13147,-7.70639,-5.74858,3.86677
-0.22612,1.73142,-0.46186,-0.52078,0.20466,0.20815,0.56817,0.63239,0.59538,1.42180,-0.32325,-0.14141,-0.31366,-0.78666,-0.51360,0.13784,-4.65918,-0.66762,-0.81060
-0.23219,1.73393,-0.45899,-0.50035,0.19848,0.20866,0.57436,0.61695,0.57443,1.57628,-0.52618,0.19953,-0.31237,-0.78507,-0.51510,0.14411,1.35716,0.79745,-1.66465
-0.23815,1.73638,-0.45607,-0.48319,0.19282,0.21159,0.55020,0.53274,0.55574,1.47242,-0.49483,0.40728,-0.31015,-0.78418,-0.51659,0.14835,-2.09437,-4.92707,-1.38748
-0.24370,1.73870,-0.45297,-0.46332,0.18640,0.21672,0.57977,0.49072,0.52873,1.27840,-0.31878,0.26018,-0.30834,-0.78234,-0.51902,0.15326,0.47952,-5.47915,-2.34675
-0.24882,1.74096,-0.44986,-0.44046,0.18037,0.22020,0.64062,0.53857,0.49617,1.40465,-0.44723,0.26347,-0.30784,-0.77940,-0.52162,0.16026,3.82804,3.32033,-1.78202
-0.25403,1.74310,-0.44672,-0.42444,0.17373,0.22317,0.67905,0.56190,0.46995,1.44946,-0.64956,0.25277,-0.30719,-0.77657,-0.52413,0.16688,3.77859,3.30050,-2.18204
-0.25865,1.74496,-0.44356,-0.40216,0.16392,0.22630,0.69631,0.57289,0.40593,1.35406,-0.63699,0.29279,-0.30748,-0.77355,-0.52661,0.17251,0.81310,0.41687,-3.65484
-0.26324,1.74676,-0.44021,-0.38439,0.15558,0.23114,0.71621,0.57989,0.34882,1.23153,-0.59332,0.45410,-0.30786,-0.77032,-0.52927,0.17805,1.26842,0.89193,-4.14552
-0.26781,1.74856,-0.43685,-0.36935,0.14892,0.23773,0.71094,0.55879,0.28939,0.99032,-0.37769,0.62067,-0.30829,-0.76738,-0.53174,0.18257,-0.49998,-0.64616,-4.22490
-0.27237,1.75048,-0.43331,-0.35770,0.14610,0.24577,0.75672,0.59272,0.23892,0.62739,0.09612,0.50073,-0.30933,-0.76335,-0.53487,0.18849,1.58003,0.64989,-4.25589
-0.27688,1.75266,-0.42960,-0.34871,0.14864,0.25264,0.83729,0.70379,0.22378,0.52096,0.31498,0.52646,-0.31089,-0.75824,-0.53812,0.19711,5.32130,7.10607,-1.70617
-0.28148,1.75497,-0.42575,-0.34331,0.15296,0.25980,0.91342,0.78927,0.23471,0.34956,0.35172,0.51277,-0.31186,-0.75298,-0.54151,0.20623,5.76662,7.49231,0.21778
-0.28616,1.75742,-0.42192,-0.34076,0.15843,0.26446,0.93487,0.81050,0.26809,0.28557,0.45322,0.35867,-0.31175,-0.74870,-0.54432,0.21445,3.49134,3.52796,2.16650
-0.29078,1.76013,-0.41807,-0.33806,0.16698,0.26842,0.91059,0.75229,0.32654,0.26911,0.49616,0.23713,-0.30992,-0.74577,-0.54669,0.22115,-0.93578,-2.97814,3.62176
-0.29530,1.76283,-0.41428,-0.33440,0.17328,0.27062,0.91264,0.73468,0.35371,0.25270,0.66547,0.14178,-0.30876,-0.74217,-0.54930,0.22829,-1.53933,-4.16508,2.77396
-0.29964,1.76566,-0.41045,-0.32844,0.18019,0.27309,0.99293,0.79366,0.38765,0.49814,0.55770,0.26765,-0.30794,-0.73682,-0.55284,0.23800,4.50628,3.17096,2.04628
-0.30367,1.76857,-0.40645,-0.31813,0.18670,0.27843,1.15582,0.85000,0.41854,0.89745,0.34162,0.38712,-0.30650,-0.72963,-0.55833,0.24894,9.79893,4.89906,2.00457
-0.30752,1.77137,-0.40248,-0.30723,0.18996,0.28175,1.27999,0.82599,0.44799,1.16865,0.20999,0.17910,-0.30377,-0.72282,-0.56432,0.25844,10.35745,0.48105,1.95040
-0.31105,1.77410,-0.39883,-0.29389,0.19119,0.27893,1.38042,0.76966,0.49100,1.27422,-0.12923,-0.65126,-0.29976,-0.71621,-0.57067,0.26744,10.87444,-4.12304,1.59451
-0.31357,1.77650,-0.39652,-0.26754,0.18656,0.25331,1.35660,0.58482,0.54462,1.82420,-0.64659,-2.10025,-0.29366,-0.71249,-0.57595,0.27279,0.12288,-10.53716,2.24270
-0.31579,1.77865,-0.39522,-0.24175,0.17868,0.21591,1.12861,0.25701,0.58519,2.54457,-1.06974,-3.45838,-0.28625,-0.71362,-0.57840,0.27252,-8.72884,-16.80679,2.16142
-0.31689,1.78064,-0.39580,-0.20281,0.17022,0.15537,0.65498,-0.18619,0.54047,3.24278,-0.52762,-5.16601,-0.27930,-0.72090,-0.57671,0.26400,-32.87160,-38.68103,-2.30108
-0.31612,1.78253,-0.39825,-0.14134,0.16176,0.07731,0.33796,-0.15836,0.42562,4.51008,-0.47931,-6.00440,-0.27990,-0.72400,-0.57330,0.26232,-25.45657,-6.12133,-8.04525
-0.31338,1.78420,-0.40279,-0.05990,0.15149,-0.01899,0.02062,0.02315,0.23407,5.17113,-0.62858,-5.96680,-0.28589,-0.72617,-0.56778,0.26186,-20.86758,10.10951,-11.15576
-0.31059,1.78576,-0.40689,0.00261,0.14201,-0.08460,-0.09475,0.31305,0.09291,4.86255,-0.54185,-4.93520,-0.29339,-0.72510,-0.56354,0.26565,-15.72015,17.59324,-12.98277
-0.30605,1.78703,-0.41182,0.07986,0.12941,-0.14726,-0.10529,0.63077,-0.07540,5.09324,-0.77010,-2.90185,-0.30330,-0.72129,-0.56045,0.27138,-0.46580,24.80496,-9.88654
-0.30142,1.78827,-0.41568,0.14119,0.11939,-0.17733,-0.13254,0.58625,-0.23357,4.51891,-0.71222,-1.31065,-0.30921,-0.71972,-0.55968,0.27046,-1.31318,3.52014,-11.64091
-0.29685,1.78958,-0.41873,0.18583,0.11319,-0.18652,-0.19855,0.31596,-0.36305,3.61811,-0.45611,-0.18369,-0.31178,-0.72069,-0.56015,0.26388,-5.05848,-16.52082,-10.32510
-0.29180,1.79089,-0.42083,0.22726,0.10848,-0.17722,-0.24444,-0.13830,-0.48614,1.80512,-0.02337,1.38964,-0.31069,-0.72331,-0.56303,0.25158,-4.93422,-28.72790,-7.08984
-0.28791,1.79245,-0.42196,0.23910,0.10935,-0.15413,-0.14968,-0.42694,-0.48893,0.11959,0.62400,2.35765,-0.30764,-0.72407,-0.56746,0.24304,1.52014,-26.97596,-5.51963
-0.28480,1.79447,-0.42207,0.23469,0.11758,-0.11959,0.04121,-0.62798,-0.40401,-1.06703,0.77338,2.57701,-0.30195,-0.72340,-0.57374,0.23736,13.31016,-17.58559,5.79697
-0.28251,1.79677,-0.42195,0.21826,0.12862,-0.09002,0.18714,-0.71883,-0.30052,-1.94539,1.09235,2.28268,-0.29641,-0.72254,-0.57917,0.23374,12.24093,-11.15299,8.27594
-0.28138,1.80000,-0.42125,0.18648,0.15271,-0.05779,0.29884,-0.70397,-0.12464,-2.40536,1.71522,1.84231,-0.29023,-0.72191,-0.58313,0.23361,7.71524,-1.36120,10.68884
-0.28070,1.80342,-0.42087,0.15815,0.17337,-0.03578,0.36918,-0.63889,0.02563,-2.31293,1.59938,1.89461,-0.28483,-0.72125,-0.58609,0.23490,6.02950,6.01629,13.45104
-0.28209,1.80758,-0.42090,0.12141,0.19612,-0.01089,0.37539,-0.66532,0.14442,-2.41566,1.38090,1.99323,-0.27825,-0.72201,-0.58861,0.23413,1.10329,-0.27154,9.78002
-0.28400,1.81175,-0.42048,0.08377,0.21376,0.01574,0.36264,-0.69402,0.23803,-2.55404,0.99782,2.18237,-0.27158,-0.72318,-0.59076,0.23295,-2.34191,-3.51796,7.03506
-0.28566,1.81559,-0.41849,0.04516,0.22570,0.05160,0.39735,-0.68539,0.29263,-2.37768,0.69994,2.45250,-0.26558,-0.72310,-0.59373,0.23253,0.74440,-0.23785,3.89738
-0.28696,1.81916,-0.41563,0.01274,0.23281,0.08732,0.52216,-0.57805,0.35699,-2.46031,0.53432,2.66926,-0.26023,-0.72074,-0.59782,0.23543,6.62223,5.32484,3.88723
-0.28841,1.82265,-0.41245,-0.01403,0.23681,0.11949,0.66813,-0.47301,0.41358,-2.12510,0.29143,2.74490,-0.25475,-0.71722,-0.60277,0.23951,11.91376,10.07906,5.95184
-0.29062,1.82615,-0.40801,-0.04754,0.23991,0.16512,0.88533,-0.31709,0.50182,-2.04052,0.07744,3.04007,-0.24887,-0.71151,-0.60900,0.24684,12.86315,10.15701,6.19422
-0.29293,1.82948,-0.40310,-0.07612,0.23931,0.20841,1.01363,-0.27651,0.55586,-1.90482,-0.20405,3.23821,-0.24211,-0.70688,-0.61505,0.25181,10.86115,4.79762,5.68278
-0.29543,1.83275,-0.39769,-0.10066,0.23816,0.24936,1.12033,-0.27323,0.60847,-2.16515,0.04284,3.79209,-0.23451,-0.70230,-0.62134,0.25636,6.99449,0.47141,3.30785
-0.29941,1.83612,-0.38963,-0.14414,0.23899,0.32581,1.28555,-0.40816,0.70949,-2.73737,0.21254,4.96358,-0.22254,-0.69745,-0.62976,0.25969,8.47492,-7.22886,4.61423
-0.30362,1.83940,-0.38125,-0.18178,0.23807,0.39059,1.51226,-0.50330,0.86679,-3.66679,-0.09048,5.92672,-0.20823,-0.69108,-0.63933,0.26514,14.16069,-8.97318,8.60349
-0.30997,1.84227,-0.37003,-0.24659,0.23050,0.48795,1.80953,-0.81066,1.16392,-4.27400,-0.79314,6.33075,-0.18482,-0.68473,-0.65132,0.26976,21.14821,-17.52022,17.94332
-0.31665,1.84486,-0.35863,-0.30180,0.21979,0.56435,1.99534,-1.10237,1.40270,-4.78745,-1.11175,6.37676,-0.16021,-0.67925,-0.66220,0.27284,15.96418,-25.24800,17.11853
-0.32481,1.84698,-0.34550,-0.36788,0.20386,0.65002,2.11776,-1.45630,1.66918,-4.70513,-1.32899,5.91553,-0.13109,-0.67499,-0.67221,0.27446,12.45650,-26.73399,17.57294
-0.33421,1.84859,-0.33092,-0.44021,0.18311,0.74167,2.18574,-1.83597,1.92476,-4.36305,-1.40594,5.54583,-0.09910,-0.67160,-0.68101,0.27452,6.15116,-25.03870,14.02650
-0.34321,1.85021,-0.31662,-0.48921,0.16717,0.80703,2.25461,-2.05998,2.08588,-4.05476,-1.30370,5.37962,-0.06888,-0.66661,-0.68935,0.27511,5.34102,-23.59271,10.81468
-0.35301,1.85137,-0.30090,-0.53919,0.14751,0.87937,2.37143,-2.24679,2.25776,-3.22104,-1.48396,4.93823,-0.03660,-0.65984,-0.69779,0.27633,8.61492,-15.89595,11.26173
-0.36274,1.85192,-0.28430,-0.57617,0.12229,0.95012,2.50938,-2.40054,2.32970,-2.26649,-2.28779,5.14568,-0.00490,-0.65121,-0.70688,0.27609,8.95586,-11.03442,7.65981
-0.37220,1.85089,-0.26568,-0.60605,0.07767,1.03148,2.73014,-2.46332,2.34419,-1.85509,-3.14852,4.83487,0.02580,-0.63894,-0.71760,0.27593,13.64612,-5.03137,1.73816
-0.38147,1.84887,-0.24682,-0.62486,0.02608,1.10026,2.96122,-2.34365,2.41074,-1.24593,-4.10856,4.94994,0.05453,-0.62352,-0.72792,0.27997,13.39894,8.30692,7.66398
-0.39077,1.84528,-0.22729,-0.63758,-0.04033,1.16779,3.27007,-2.20959,2.44885,-0.53475,-5.23388,4.58809,0.08309,-0.60407,-0.73986,0.28424,18.64949,11.32284,8.28716
-0.39903,1.84012,-0.20697,-0.63333,-0.11565,1.22857,3.62523,-1.92418,2.51583,0.79220,-5.33357,3.79812,0.10945,-0.57972,-0.75276,0.29205,21.38582,18.17959,9.97485
-0.40622,1.83405,-0.18657,-0.61164,-0.18843,1.27639,3.89684,-1.62117,2.50788,2.18469,-5.35314,2.78603,0.13272,-0.55379,-0.76540,0.29977,18.03533,25.14857,11.75776
-0.41274,1.82674,-0.16654,-0.58111,-0.26624,1.31043,4.10663,-1.33614,2.45790,2.24812,-5.97279,1.88266,0.15380,-0.52676,-0.77767,0.30677,11.92916,21.65184,2.06124
-0.41903,1.81843,-0.14693,-0.55417,-0.34148,1.32942,4.27446,-1.09232,2.44289,1.99096,-6.68450,1.23354,0.17444,-0.49842,-0.78898,0.31411,10.46033,22.45630,4.00215
-0.42506,1.80737,-0.12753,-0.53026,-0.44295,1.34000,4.50312,-0.80887,2.54786,1.20049,-7.59546,0.26415,0.19534,-0.46547,-0.79982,0.32475,11.42976,20.85713,11.42106
-0.43233,1.79383,-0.10923,-0.52124,-0.56900,1.33323,4.78301,-0.61176,2.82153,0.01871,-8.35392,-1.01760,0.22024,-0.42835,-0.80854,0.33805,13.88986,12.24331,20.14809
-0.44113,1.78009,-0.09207,-0.52915,-0.67327,1.31128,5.04517,-0.61914,3.07323,-0.66829,-9.19227,-2.68176,0.24934,-0.39019,-0.81485,0.34871,18.61641,1.06596,22.49385
-0.45077,1.76314,-0.07712,-0.54608,-0.80409,1.25815,5.32524,-0.74920,3.43216,-1.07771,-9.77984,-5.14230,0.28389,-0.34896,-0.81737,0.35991,22.07947,-10.22135,21.50006
-0.45957,1.74303,-0.06590,-0.56087,-0.95310,1.15292,5.52426,-1.08861,3.70406,-0.28250,-8.85170,-8.20827,0.32294,-0.30939,-0.81569,0.36694,17.65644,-21.43823,16.30039
-0.46791,1.72310,-0.05721,-0.56974,-1.06502,1.02857,5.57382,-1.53182,3.71238,-0.55411,-7.48980,-9.90653,0.36175,-0.27505,-0.81174,0.36683,12.66282,-26.90940,-8.36994
-0.47608,1.70401,-0.04922,-0.57357,-1.13440,0.92528,5.54812,-1.88181,3.70754,-0.14939,-6.53565,-11.28411,0.39951,-0.24204,-0.80483,0.36612,9.69123,-30.51287,-10.81531
-0.48370,1.68225,-0.04937,-0.56730,-1.23050,0.71246,5.38685,-2.48675,3.69017,0.81545,-4.32431,-12.84267,0.44290,-0.21562,-0.79142,0.36195,1.20355,-31.37969,-12.99806
-0.49056,1.66192,-0.05047,-0.54946,-1.28410,0.52695,5.20885,-2.96986,3.64238,1.75421,-3.63503,-14.18750,0.48433,-0.19037,-0.77554,0.35740,-3.97749,-33.03596,-15.63838
-0.49582,1.64070,-0.05736,-0.50809,-1.34116,0.28316,5.15141,-3.53062,3.53325,3.65692,-3.46879,-16.40223,0.52875,-0.16539,-0.75620,0.34818,2.97613,-32.36687,-15.71305
-0.49989,1.61989,-0.06559,-0.45662,-1.37740,0.07532,5.27127,-3.90288,3.32873,5.35713,-2.43835,-18.08002,0.57102,-0.13697,-0.73733,0.33395,16.13830,-25.58023,-20.89143
-0.50117,1.59958,-0.08004,-0.37088,-1.39535,-0.18446,5.51870,-4.21468,2.95018,7.21485,-0.00048,-18.95538,0.61238,-0.10786,-0.71868,0.31121,27.22935,-12.03926,-25.86118
-0.49872,1.58180,-0.10035,-0.24060,-1.36640,-0.48658,5.68490,-4.50446,2.64367,9.00278,3.76086,-19.26259,0.65244,-0.07996,-0.69670,0.28729,21.42480,-6.65030,-21.95346
-0.49496,1.56648,-0.12002,-0.11946,-1.30279,-0.70554,5.61162,-4.77399,2.63453,10.80437,7.01491,-18.16091,0.69098,-0.05348,-0.66819,0.27059,8.47609,-16.74353,-12.23374
-0.48657,1.55550,-0.14401,0.04904,-1.18225,-0.94186,5.38049,-5.08039,2.68746,13.25831,10.41868,-16.14386,0.72828,-0.03071,-0.63441,0.25726,-12.05602,-24.45880,-8.56728
-0.47410,1.54913,-0.16958,0.24637,-1.01291,-1.14922,5.16416,-5.24373,2.67945,15.21095,14.03989,-13.45818,0.76157,-0.00871,-0.60049,0.24361,-11.51402,-17.31555,-9.38564
-0.45800,1.54810,-0.19541,0.45755,-0.79395,-1.31210,4.88317,-5.23753,2.61608,15.15461,17.69593,-9.99589,0.78957,0.01119,-0.56832,0.23123,-14.16942,-2.32161,-8.98957
-0.43960,1.55294,-0.22040,0.65768,-0.52828,-1.42320,4.39766,-5.31270,2.40850,13.80143,20.89207,-6.50987,0.81535,0.02198,-0.53468,0.22101,-25.44355,-1.30216,-21.21940
-0.41968,1.56390,-0.24397,0.83639,-0.22286,-1.48492,3.81208,-5.49558,1.95339,12.29742,23.47267,-2.82873,0.84024,0.02148,-0.49954,0.20974,-27.86776,-8.97714,-41.06373
-0.39825,1.58105,-0.26566,0.99920,0.11464,-1.50105,3.22869,-5.65110,1.28076,11.75320,25.55545,0.50434,0.86296,0.01126,-0.46560,0.19593,-20.97106,-3.72750,-59.34046
-0.37459,1.60487,-0.28466,1.16114,0.48443,-1.46846,2.64728,-5.64863,0.47369,11.86008,27.97196,4.26566,0.88168,-0.00717,-0.43569,0.18101,-20.69678,3.97197,-66.25350
-0.34885,1.63575,-0.30051,1.32003,0.88582,-1.39149,2.18003,-5.39583,-0.52616,11.55995,30.07092,7.43945,0.89532,-0.03345,-0.41385,0.16130,-10.63954,23.80803,-74.34166
-0.32076,1.67734,-0.31097,1.48284,1.37990,-1.23946,1.71451,-4.79204,-1.93659,9.24748,32.65212,12.06362,0.90117,-0.07415,-0.40499,0.13558,3.05984,45.00140,-81.67672
-0.29427,1.72002,-0.31839,1.58105,1.77552,-1.07299,1.13941,-4.27870,-3.38433,8.24373,34.93327,15.20757,0.90189,-0.12730,-0.39767,0.11062,2.91116,55.95840,-107.51180
-0.26500,1.77796,-0.31691,1.70347,2.33577,-0.79553,0.11960,-3.52782,-5.80210,9.17931,37.60752,19.10589,0.88551,-0.21939,-0.40101,0.08324,-14.72875,58.69559,-146.39620
-0.23248,1.84086,-0.31191,1.85554,2.85561,-0.52029,-0.76867,-2.68299,-8.30501,15.00476,38.69333,20.11194,0.85207,-0.32556,-0.40666,0.05110,2.54166,66.97609,-185.06180
-0.19264,1.90777,-0.30423,2.09287,3.31161,-0.26918,-1.49054,-1.86112,-10.57556,25.54183,37.92742,22.62466,0.80016,-0.43757,-0.40988,0.01662,2.39051,59.89747,-199.29280
-0.13162,1.98551,-0.28977,2.63318,3.86735,0.07751,-1.98671,-0.32064,-13.38135,43.06994,31.71827,23.21894,0.70749,-0.56284,-0.42658,-0.02646,39.92251,66.20560,-190.96620
-0.05329,2.05876,-0.27378,3.35466,4.23290,0.38658,-1.94193,1.09249,-15.76177,60.61764,19.82544,23.25410,0.59126,-0.67243,-0.43860,-0.07665,59.78127,53.65547,-180.60510
0.03304,2.12386,-0.25749,4.02209,4.35614,0.60160,-1.56606,1.94802,-17.29581,74.38583,5.04133,22.64285,0.46677,-0.75701,-0.43843,-0.12978,68.75650,16.26203,-175.27980
0.17971,2.17092,-0.22648,5.51662,4.10302,0.97464,-0.07315,3.17965,-19.63249,88.56750,-36.12021,19.60350,0.29300,-0.81918,-0.44679,-0.20850,77.69591,-31.76371,-149.84940
0.32932,2.18466,-0.19886,6.73969,3.34431,1.21051,1.52391,3.27018,-20.96286,83.27435,-73.47755,13.85494,0.13134,-0.84198,-0.43518,-0.29057,42.11338,-92.41330,-122.89880
0.47675,2.16718,-0.17303,7.62039,2.26523,1.35912,1.96829,3.21276,-21.83739,58.35066,-105.84740,8.44270,-0.02888,-0.84825,-0.39657,-0.34981,-15.59008,-52.16704,-108.70910
0.61871,2.09497,-0.14396,8.18314,0.54589,1.50660,2.42720,4.66134,-21.07970,20.56303,-134.95610,9.51849,-0.17480,-0.83505,-0.38389,-0.35322,85.98357,11.46064,25.25581
0.73519,1.98488,-0.11364,8.18815,-1.38527,1.63565,4.42431,6.70051,-19.78332,-20.05495,-138.72880,5.40969,-0.32347,-0.78609,-0.40939,-0.33139,163.10810,-104.25080,18.66787
0.82200,1.84765,-0.08729,7.72097,-3.30793,1.67743,7.73413,9.14630,-18.48314,-48.03415,-135.45500,-4.44463,-0.48259,-0.69285,-0.46039,-0.27405,246.28860,-164.62640,-52.50047
0.87867,1.69145,-0.07089,6.87082,-5.10810,1.51929,11.74659,10.65823,-17.83755,-75.12173,-123.95530,-19.60461,-0.63804,-0.54175,-0.50652,-0.20701,220.77570,-172.52590,-167.08590
0.88810,1.51454,-0.07557,5.40714,-6.83853,1.04100,15.38518,10.44330,-18.05194,-108.44900,-90.05447,-38.10387,-0.76218,-0.34400,-0.52563,-0.15639,75.63823,-92.74923,-209.94080
0.86559,1.36340,-0.09132,3.74386,-7.75479,0.51868,17.32240,8.81454,-17.63833,-124.22940,-40.76440,-31.61598,-0.82524,-0.15743,-0.52917,-0.11906,-3.69717,-79.34647,-160.38020
0.81511,1.24188,-0.10525,2.01554,-7.97361,0.17244,16.39300,5.39763,-17.12133,-117.57010,4.43931,-13.57630,-0.83535,-0.01311,-0.53109,-0.14127,-204.31140,-67.45352,-109.19350
0.75686,1.15098,-0.10657,0.56828,-7.63410,0.11829,12.52750,2.20461,-16.05259,-89.91586,36.11169,6.18808,-0.82128,0.05824,-0.52685,-0.21102,-355.47500,50.17268,33.44135
0.70483,1.08101,-0.09374,-0.43404,-7.02494,0.31273,8.85071,0.43005,-13.32862,-55.43708,48.23441,20.19224,-0.80295,0.07469,-0.53274,-0.25669,-332.09470,64.68687,131.86110
0.66251,1.01816,-0.07058,-1.04448,-6.45295,0.64112,4.98379,-0.87190,-10.89556,-37.26107,34.54238,25.57036,-0.77628,0.06625,-0.54154,-0.31579,-295.33220,0.14123,156.02790
0.62305,0.95720,-0.04095,-1.47210,-5.98098,0.99610,0.07538,0.13115,-8.99669,-32.55251,33.23928,23.80294,-0.76603,0.00805,-0.49972,-0.40424,-289.47640,223.53780,171.77110
0.57689,0.90052,-0.00892,-1.91091,-5.54267,1.30431,-3.25340,1.28642,-8.32698,-29.95687,32.08413,20.09420,-0.75250,-0.02645,-0.43772,-0.49138,-177.18390,244.22710,47.58226
0.52401,0.84866,0.02309,-2.36509,-5.12826,1.54168,-4.46903,0.55911,-8.61435,-30.51010,33.88902,13.46158,-0.71880,-0.00377,-0.40583,-0.56445,-110.42130,63.30548,-8.03393
0.46602,0.80554,0.05121,-2.79691,-4.65996,1.65765,-4.62202,-1.10618,-9.06980,-29.11643,36.01481,2.59471,-0.67206,0.05171,-0.39727,-0.62277,-89.73170,-105.88390,0.58985
0.40845,0.77116,0.07247,-3.11438,-4.15222,1.62849,-4.34948,-2.07447,-9.18677,-18.29007,38.67346,-6.44859,-0.63272,0.10560,-0.38319,-0.66459,-32.57890,-76.67504,-2.38593
0.35554,0.74530,0.08694,-3.28208,-3.62184,1.49323,-3.90337,-1.97569,-8.80319,-8.52509,37.28795,-12.62188,-0.60909,0.14073,-0.35863,-0.69324,4.12902,-29.45566,29.09036
0.30847,0.71967,0.09808,-3.31272,-3.21598,1.33710,-3.28304,-1.13312,-8.31393,0.38896,31.97217,-13.54739,-0.60183,0.16206,-0.32062,-0.71326,71.66462,35.91891,30.92207
0.26641,0.70297,0.10418,-3.25088,-2.75745,1.13361,-2.43927,-0.06721,-7.58542,6.77327,25.81350,-11.48196,-0.60774,0.17233,-0.28002,-0.72287,85.05103,43.92465,36.63555
0.22787,0.68508,0.11144,-3.14391,-2.41648,0.99315,-2.05442,0.25546,-6.74844,9.31353,22.81124,-8.39928,-0.60247,0.18228,-0.25477,-0.73410,51.79878,24.07393,49.92186
0.19280,0.67254,0.11824,-3.00063,-2.05855,0.87577,-2.05886,0.30276,-5.90165,9.44237,21.72990,-6.32908,-0.58926,0.18873,-0.23854,-0.74850,5.17449,8.72189,55.92918
0.15937,0.66192,0.12528,-2.85518,-1.74830,0.78516,-2.19572,0.24047,-5.02648,10.83221,22.52942,-7.04743,-0.57292,0.19214,-0.22901,-0.76315,-9.45988,5.24565,58.43549
0.12804,0.65458,0.13028,-2.70925,-1.45756,0.68061,-1.78760,0.81702,-4.71578,8.77843,20.53223,-8.38056,-0.56988,0.19350,-0.19940,-0.77333,20.90057,26.21957,37.13533
0.09785,0.64908,0.13338,-2.57912,-1.20509,0.56957,-0.90751,1.43210,-4.74497,9.69385,17.03055,-7.89763,-0.57823,0.19992,-0.15740,-0.77518,74.25365,33.46401,-13.03043
0.06832,0.64400,0.13614,-2.47138,-1.00777,0.48237,-0.35167,1.46879,-4.60886,9.99983,15.32315,-6.59344,-0.58158,0.21123,-0.12672,-0.77530,61.19599,2.15209,-1.75090
0.04328,0.64439,0.13799,-2.31251,-0.76469,0.40140,-0.26299,0.92650,-3.92504,12.28457,14.13314,-3.52564,-0.57804,0.22275,-0.12050,-0.77571,11.41261,-30.80027,31.87563
0.02105,0.64581,0.14096,-2.14158,-0.55814,0.35681,-0.66351,0.25648,-2.89660,12.12304,14.50261,-2.75269,-0.56592,0.22838,-0.13300,-0.78096,-36.03994,-41.48880,78.20414
0.00224,0.65044,0.14401,-1.94973,-0.34218,0.32385,-0.85115,-0.29050,-2.15456,11.99618,13.84416,-1.34328,-0.55582,0.23638,-0.14433,-0.78381,-19.00844,-32.26416,51.14673
-0.01612,0.65513,0.14793,-1.79655,-0.17763,0.31380,-0.82975,-0.40106,-1.96087,12.54916,14.64327,-0.07405,-0.54843,0.24479,-0.14146,-0.78695,-9.33546,-20.97505,33.27048
-0.02945,0.66382,0.15317,-1.59642,0.01315,0.32948,-0.74201,0.07394,-2.24952,15.04231,13.24287,2.76782,-0.54251,0.24817,-0.11884,-0.79371,16.92583,22.88960,-13.64117
-0.03749,0.67404,0.15964,-1.35310,0.18384,0.36174,-0.91175,0.74941,-2.46341,18.88461,10.47262,2.58921,-0.53196,0.24296,-0.09228,-0.80590,-1.01051,46.05621,-20.70516
-0.03974,0.68322,0.16647,-1.06946,0.29565,0.39231,-0.70137,1.61561,-2.41978,21.55293,5.60611,2.83071,-0.53095,0.22780,-0.06226,-0.81383,9.87393,52.52850,-20.36394
-0.03797,0.69111,0.17413,-0.78599,0.35917,0.42975,-0.81843,2.44271,-1.86003,20.03121,2.91480,1.96733,-0.52744,0.19854,-0.04378,-0.82490,6.96336,63.99446,29.82125
-0.03577,0.69857,0.18075,-0.56645,0.40056,0.44006,-1.06391,2.70795,-1.32522,17.05286,3.99458,0.56096,-0.51949,0.17509,-0.03513,-0.83561,3.72557,45.22828,46.02430
-0.02913,0.70690,0.18541,-0.32715,0.44547,0.41480,-1.21762,2.83887,-0.66205,15.49044,4.48184,-3.60727,-0.51278,0.14936,-0.03447,-0.84473,-20.38824,5.49620,59.30505
-0.01816,0.71614,0.18620,-0.06436,0.49670,0.32882,-0.89030,3.13261,-1.04562,14.35175,1.58900,-5.93785,-0.51151,0.13405,-0.00530,-0.84874,18.62709,18.39528,-41.67029
-0.00847,0.72454,0.18542,0.12139,0.52243,0.23421,-0.96321,2.99347,-0.99420,13.15224,1.16562,-7.46863,-0.50378,0.12158,0.00761,-0.85520,-2.43074,-6.68655,4.10987
0.00217,0.73196,0.18340,0.27580,0.52439,0.14302,-0.98975,2.89148,-0.99616,12.90125,-0.82950,-7.88077,-0.49621,0.10978,0.02153,-0.86096,-6.08449,-11.39294,3.36531
0.01816,0.73675,0.17781,0.48545,0.48003,0.01213,-0.97680,2.74083,-0.66433,13.81450,-5.25602,-8.49504,-0.49090,0.09502,0.02700,-0.86560,4.49361,-5.68868,8.03665
0.03395,0.73950,0.17229,0.64085,0.41185,-0.08569,-0.91705,2.56027,0.02100,12.80022,-6.56807,-8.16309,-0.48837,0.07535,0.02041,-0.86914,7.56147,-13.36263,53.39689
0.05192,0.74002,0.16534,0.79130,0.32488,-0.18159,-0.67569,2.50025,0.57743,12.30549,-7.40457,-8.11490,-0.49069,0.05304,0.01416,-0.86960,22.58626,-6.48774,49.91080
0.07585,0.73640,0.15416,1.00933,0.18754,-0.32780,-0.12007,2.57069,1.22178,11.69936,-7.12882,-8.21075,-0.50235,0.02460,0.00518,-0.86430,35.45252,5.44078,33.70413
0.09805,0.73420,0.14377,1.14921,0.10496,-0.42796,0.30880,2.74674,1.44379,11.43124,-6.20991,-8.51467,-0.51259,-0.00283,0.00483,-0.85862,37.18597,13.63241,18.32433
0.12338,0.73089,0.13066,1.30647,0.02499,-0.54854,0.79819,3.04447,1.53489,11.07917,-5.09120,-8.58627,-0.52630,-0.03339,0.00910,-0.84960,35.55842,23.91904,1.44672
0.15158,0.72778,0.11506,1.47768,-0.03344,-0.68509,1.12361,3.31099,1.91526,10.86063,-2.76646,-8.67830,-0.53820,-0.06936,0.00615,-0.83993,24.45555,19.59284,14.89105
0.17928,0.72642,0.09943,1.59989,-0.04823,-0.78952,1.22886,3.46003,2.37888,9.94536,-0.27857,-8.78636,-0.54561,-0.10658,-0.00241,-0.83123,17.73780,12.81980,34.07841
0.20924,0.72666,0.08100,1.72881,-0.03228,-0.91466,1.28693,3.62964,2.88499,8.47547,2.57387,-9.14194,-0.55110,-0.14763,-0.01418,-0.82115,11.04582,9.35073,38.70171
0.23978,0.72903,0.06049,1.83719,0.01556,-1.04549,1.33113,3.90115,3.11691,6.62676,4.70042,-9.42893,-0.55554,-0.18960,-0.01982,-0.80935,6.75698,16.45895,23.36148
0.27038,0.73341,0.03793,1.92101,0.08596,-1.17995,1.36926,4.26287,3.10177,5.08166,5.91236,-9.82985,-0.55942,-0.23192,-0.01801,-0.79558,-2.41745,24.42044,3.77510
0.30023,0.74129,0.01308,1.97899,0.18046,-1.31817,1.39571,4.66192,3.02709,3.19271,7.67007,-9.75065,-0.56235,-0.27567,-0.01253,-0.77950,-2.81133,28.45756,-2.10022
0.32578,0.76090,-0.01554,2.00329,0.32908,-1.47618,1.28846,5.05362,2.96546,0.78051,9.42287,-9.50124,-0.56088,-0.32082,-0.00457,-0.76320,-11.23118,24.24492,-0.11118
0.34950,0.78106,-0.04385,1.99221,0.47925,-1.60953,1.15093,5.28805,3.00593,-1.19963,10.53657,-9.18951,-0.55654,-0.36498,0.00057,-0.74636,-12.36597,16.68236,5.22745
0.37432,0.79832,-0.07325,1.95724,0.63504,-1.73258,1.02441,5.43335,3.19877,-3.50040,11.27077,-8.48209,-0.54948,-0.40992,0.00143,-0.72804,-7.15296,8.92936,15.84645
0.39790,0.81623,-0.10360,1.89270,0.79159,-1.84174,0.88484,5.54229,3.32358,-5.91142,11.34069,-7.43221,-0.54041,-0.45353,0.00307,-0.70870,-6.08168,5.80698,14.90098
0.41868,0.83634,-0.13479,1.79511,0.94821,-1.93912,0.75744,5.59852,3.38560,-8.53584,11.46107,-6.60359,-0.53003,-0.49506,0.00543,-0.68845,-7.80873,3.11974,8.60214
0.43586,0.85858,-0.16620,1.65966,1.10397,-2.01657,0.53354,5.55510,3.33724,-10.99553,10.93712,-4.48666,-0.51717,-0.53245,0.00992,-0.67003,-12.56747,-2.60611,3.83677
0.44964,0.88233,-0.19665,1.49868,1.24777,-2.06119,0.32320,5.34607,3.31696,-12.21519,9.81139,-2.58190,-0.50271,-0.56566,0.01207,-0.65358,-15.76185,-14.71692,1.50967
0.46008,0.90724,-0.22609,1.31911,1.37769,-2.07878,0.24764,4.96371,3.36918,-13.55324,8.66277,-0.57464,-0.48880,-0.59470,0.00844,-0.63823,-0.95866,-24.75982,4.00100
0.46721,0.93270,-0.25402,1.12733,1.48625,-2.06571,0.36440,4.38000,3.47871,-13.91335,6.72446,1.59803,-0.47708,-0.61864,-0.00328,-0.62424,11.46463,-36.00056,3.45057
0.47149,0.95800,-0.27966,0.93416,1.56741,-2.02084,0.72121,3.68439,3.58977,-13.90938,5.02573,3.85136,-0.46980,-0.63770,-0.02340,-0.60998,34.10080,-42.98604,0.38655
0.47476,0.98271,-0.30409,0.77140,1.61834,-1.96564,1.03112,3.12341,3.56999,-13.43087,3.84607,5.14317,-0.46440,-0.65400,-0.04287,-0.59564,37.43903,-41.40485,-7.41476
0.47455,1.00782,-0.32652,0.59199,1.66378,-1.88921,1.37508,2.53062,3.52071,-12.33998,2.80813,5.68133,-0.46116,-0.66603,-0.06611,-0.58255,32.37925,-36.85047,-12.00990
0.47136,1.03268,-0.34675,0.40357,1.69857,-1.79601,1.74261,2.01077,3.45635,-11.32390,1.75029,6.01291,-0.45947,-0.67596,-0.09163,-0.56883,30.80883,-28.21392,-10.14631
0.46800,1.05694,-0.36647,0.25209,1.71474,-1.71261,1.87448,1.70941,3.31200,-10.51262,0.88853,6.33784,-0.45622,-0.68628,-0.11127,-0.55542,17.98858,-19.19289,-12.81131
0.46433,1.08090,-0.38571,0.13304,1.72074,-1.63941,1.78155,1.53580,3.14622,-9.54263,0.38837,6.45034,-0.45039,-0.69688,-0.12544,-0.54385,0.20944,-15.41275,-15.07323
0.45662,1.10413,-0.40155,-0.02778,1.71937,-1.52893,1.44266,1.35160,2.89803,-8.42930,-0.23687,5.90565,-0.44220,-0.70567,-0.13318,-0.53735,-18.21542,-12.80853,-13.37803
0.44983,1.12733,-0.41803,-0.14037,1.71219,-1.44830,1.24712,1.23554,2.74309,-7.62844,-0.68283,5.32816,-0.43420,-0.71511,-0.14226,-0.52901,-16.36073,-10.45738,-11.46639
0.44282,1.15008,-0.43425,-0.22737,1.70170,-1.38457,1.20330,1.19303,2.66345,-6.87952,-0.89918,4.78022,-0.42710,-0.72503,-0.15320,-0.51812,-7.34159,-7.73404,-9.37162
