posX, posY, posZ, velX, velY, velZ, angVelX, angVelY, angVelZ, accX, accY, accZ, rotX, rotY, rotZ, rotW, angAccX, angAccY, angAccZ
0.17179,1.09027,-0.53528,-0.06166,-0.00612,0.09619,-0.08756,0.00106,0.02557,0.92163,0.07187,1.33103,-0.25224,-0.84894,0.05757,-0.46083,5.23067,-5.76336,-5.45193
0.17138,1.09044,-0.53275,-0.04976,-0.00132,0.11559,-0.01634,-0.08125,-0.00437,0.67834,0.54699,1.12375,-0.25333,-0.84790,0.05644,-0.46228,4.06385,-5.61482,-2.47424
0.17077,1.09091,-0.52955,-0.04229,0.00746,0.13003,0.01433,-0.15187,0.00460,0.49055,0.70909,1.04247,-0.25367,-0.84668,0.05502,-0.46449,4.20682,-4.88991,0.08661
0.17052,1.09147,-0.52719,-0.03647,0.01556,0.14024,-0.02883,-0.20992,0.02900,0.37474,0.50993,0.59671,-0.25270,-0.84555,0.05491,-0.46708,-2.22411,-4.57766,2.18497
0.17026,1.09201,-0.52492,-0.03230,0.02117,0.14593,-0.04539,-0.23757,0.04013,0.32109,0.38054,0.34028,-0.25207,-0.84459,0.05467,-0.46919,-2.77412,-3.35472,1.09179
0.17011,1.09273,-0.52269,-0.02637,0.02739,0.15037,0.00253,-0.26065,0.03119,0.31081,0.25263,0.04871,-0.25255,-0.84357,0.05328,-0.47092,1.43678,-1.49151,-0.54651
0.16960,1.09380,-0.51847,-0.02301,0.03114,0.15122,0.09649,-0.25739,0.00553,0.27728,0.29919,-0.04064,-0.25463,-0.84197,0.04984,-0.47303,6.92012,-0.18283,-1.59934
0.16960,1.09463,-0.51652,-0.01811,0.03644,0.14946,0.21649,-0.24431,-0.01575,0.34151,0.38839,-0.16103,-0.25756,-0.84139,0.04576,-0.47290,8.23388,0.85534,-1.72707
0.16963,1.09554,-0.51476,-0.01407,0.04223,0.14523,0.27728,-0.23106,0.00388,0.36493,0.52827,-0.29969,-0.25886,-0.84110,0.04216,-0.47304,5.24449,1.24750,0.35424
0.16971,1.09659,-0.51344,-0.00985,0.04876,0.13517,0.20518,-0.21580,0.10502,0.25463,0.23303,-0.66383,-0.25594,-0.84140,0.04060,-0.47423,-3.46512,0.55807,5.63198
0.16977,1.09727,-0.51241,-0.00637,0.04818,0.12247,0.10153,-0.17354,0.19099,0.26689,-0.35615,-1.07028,-0.25209,-0.84212,0.04050,-0.47502,-7.18883,2.29220,6.83472
0.16990,1.09746,-0.51183,-0.00258,0.04017,0.10554,0.03162,-0.07781,0.23950,0.23502,-0.88325,-1.40286,-0.24878,-0.84366,0.04093,-0.47400,-7.19356,5.60985,4.44449
0.17005,1.09706,-0.51153,0.00065,0.02486,0.08786,0.00256,0.03107,0.23342,0.15827,-1.40765,-1.18705,-0.24703,-0.84540,0.04157,-0.47175,-2.02201,7.94156,0.72599
0.17037,1.09589,-0.51138,0.00587,0.00107,0.07158,0.01095,0.11839,0.16971,0.31604,-1.58525,-0.85948,-0.24731,-0.84674,0.04233,-0.46913,-0.63551,6.52110,-3.93163
0.17067,1.09459,-0.51133,0.01047,-0.02196,0.06231,0.02022,0.13777,0.10359,0.25132,-1.31106,-0.22794,-0.24842,-0.84699,0.04284,-0.46804,2.27875,2.43661,-4.43803
0.17088,1.09370,-0.51129,0.01451,-0.03975,0.05825,-0.01099,0.10305,0.05684,0.32413,-1.23607,-0.38416,-0.24882,-0.84650,0.04370,-0.46862,-3.70968,-3.00704,-2.80636
0.17111,1.09286,-0.51102,0.01876,-0.05502,0.05467,0.02035,0.07203,-0.00678,0.21187,-1.05234,-0.19166,-0.24995,-0.84616,0.04364,-0.46864,2.27758,-1.77454,-4.57224
0.17149,1.09148,-0.51036,0.02154,-0.06843,0.04992,-0.03917,0.02872,-0.05864,0.22689,-0.73545,-0.38396,-0.25044,-0.84570,0.04492,-0.46910,-2.63242,-3.12293,-4.28826
0.17214,1.08912,-0.50930,0.02296,-0.07685,0.04374,-0.10020,0.00272,-0.10038,0.05478,-0.47902,-0.44298,-0.25109,-0.84496,0.04760,-0.46981,-4.27065,-2.09966,-3.47216
0.17257,1.08717,-0.50877,0.02287,-0.08257,0.03745,-0.13463,-0.02206,-0.13532,-0.00514,-0.40673,-0.57304,-0.25189,-0.84398,0.05023,-0.47088,-4.42535,-2.03458,-2.21020
0.17284,1.08575,-0.50858,0.02263,-0.08700,0.03212,-0.06827,-0.01993,-0.18229,0.00958,-0.51650,-0.58032,-0.25439,-0.84338,0.05041,-0.47058,2.35520,-0.71056,-2.74430
0.17323,1.08394,-0.50859,0.02432,-0.09691,0.02444,0.13487,0.01109,-0.30804,0.13420,-0.64437,-0.42255,-0.26126,-0.84271,0.04821,-0.46825,11.35644,1.32490,-7.13952
0.17366,1.08206,-0.50849,0.02623,-0.10585,0.02028,0.27059,0.02311,-0.41604,0.12611,-0.57567,0.00168,-0.26807,-0.84174,0.04660,-0.46629,12.32773,1.77323,-8.07865
0.17410,1.08013,-0.50822,0.02778,-0.11345,0.01986,0.28832,-0.00434,-0.47824,0.19390,-0.55279,0.21759,-0.27326,-0.84027,0.04659,-0.46595,4.63925,-1.28099,-6.21661
0.17463,1.07807,-0.50774,0.03055,-0.12126,0.02328,0.24844,-0.07594,-0.52871,0.17764,-0.33912,0.32421,-0.27782,-0.83796,0.04758,-0.46730,-2.44123,-4.32252,-3.63658
0.17510,1.07615,-0.50716,0.03165,-0.12490,0.02760,0.22384,-0.13523,-0.53940,0.10681,-0.17996,0.18667,-0.28173,-0.83582,0.04804,-0.46875,-3.52178,-4.49303,-1.43255
0.17558,1.07432,-0.50657,0.03263,-0.12626,0.03111,0.27924,-0.16906,-0.54104,0.07994,-0.07355,0.13278,-0.28647,-0.83396,0.04664,-0.46934,2.48086,-3.01894,-0.17602
0.17602,1.07259,-0.50596,0.03311,-0.12626,0.03359,0.36804,-0.18737,-0.53376,0.05716,-0.00059,0.16182,-0.29166,-0.83231,0.04396,-0.46931,6.86994,-1.85455,0.11423
0.17644,1.07079,-0.50523,0.03355,-0.12774,0.03728,0.53701,-0.20761,-0.51849,0.10355,-0.27355,0.17661,-0.29798,-0.83074,0.03863,-0.46860,8.76795,-1.63262,1.27860
0.17703,1.06873,-0.50455,0.03612,-0.13299,0.03976,0.67372,-0.21808,-0.52755,0.21362,-0.47443,0.11830,-0.30482,-0.82901,0.03354,-0.46765,9.74028,-1.55282,-0.49939
0.17767,1.06640,-0.50386,0.03905,-0.14139,0.04157,0.71944,-0.22270,-0.53896,0.26260,-0.62489,0.38145,-0.31109,-0.82719,0.02982,-0.46701,8.06900,-0.34543,-1.66303
0.17836,1.06378,-0.50323,0.04226,-0.15297,0.04189,0.59958,-0.24351,-0.52794,0.26281,-0.88469,-0.04592,-0.31475,-0.82515,0.02947,-0.46817,-7.58087,-1.60108,1.00659
0.17914,1.06090,-0.50273,0.04583,-0.16611,0.04025,0.45515,-0.22640,-0.52299,0.27892,-0.94964,-0.13260,-0.31775,-0.82350,0.03070,-0.46899,-9.11452,1.24317,0.21225
0.17993,1.05785,-0.50231,0.04877,-0.17874,0.03753,0.30143,-0.19218,-0.50495,0.19778,-0.83755,-0.24798,-0.31975,-0.82220,0.03305,-0.46975,-12.12101,2.29549,0.89457
0.18069,1.05491,-0.50186,0.05027,-0.18632,0.03626,0.23969,-0.15566,-0.48471,0.04485,-0.50769,-0.11477,-0.32229,-0.82115,0.03412,-0.46977,-7.49615,3.44961,1.50239
0.18124,1.05201,-0.50130,0.04790,-0.19123,0.03714,0.19700,-0.11164,-0.45407,-0.31807,-0.13241,0.08822,-0.32451,-0.82047,0.03501,-0.46937,-2.82965,2.77069,2.01777
0.18154,1.04927,-0.50070,0.04180,-0.19256,0.03846,0.14880,-0.06871,-0.45190,-0.58736,-0.09064,0.12819,-0.32702,-0.81969,0.03656,-0.46886,-1.92907,2.93963,1.29891
0.18182,1.04654,-0.50014,0.03691,-0.19332,0.03869,0.05120,-0.02060,-0.49716,-0.54840,0.02352,0.16739,-0.32980,-0.81861,0.04049,-0.46848,-5.63590,3.96778,-2.56056
0.18170,1.04410,-0.49959,0.02643,-0.18865,0.03875,-0.23719,0.06970,-0.58788,-0.61080,0.66273,0.11382,-0.33090,-0.81744,0.05096,-0.46873,-15.67641,5.81614,-5.49462
0.18155,1.04234,-0.49886,0.01752,-0.17306,0.04184,-0.44491,0.12436,-0.62117,-0.62531,1.60084,0.27031,-0.33134,-0.81634,0.06034,-0.46922,-16.09943,5.07696,-3.55851
0.18133,1.04109,-0.49803,0.00995,-0.15329,0.04588,-0.53190,0.14712,-0.60327,-0.71950,2.36952,0.28041,-0.33166,-0.81546,0.06733,-0.46958,-13.14646,2.95454,-0.26107
0.18062,1.04190,-0.49666,-0.00399,-0.10443,0.05748,-0.43571,0.12947,-0.50920,-0.94168,3.56128,0.75182,-0.33231,-0.81518,0.06891,-0.46936,3.34407,0.04082,4.98342
0.17972,1.04424,-0.49472,-0.01842,-0.03970,0.07608,-0.13426,-0.00189,-0.36075,-0.83451,4.47530,1.23552,-0.33454,-0.81445,0.06289,-0.46989,16.95117,-6.01662,8.47262
0.17880,1.04755,-0.49249,-0.02990,0.02704,0.09554,0.23160,-0.21153,-0.18942,-0.87646,5.03233,1.23786,-0.33741,-0.81294,0.05184,-0.47180,24.41771,-14.47551,11.94817
0.17765,1.05193,-0.49031,-0.04263,0.09567,0.10936,0.54198,-0.44771,0.00625,-0.86247,4.78006,0.76240,-0.33929,-0.81092,0.03824,-0.47522,25.57409,-17.40816,13.58124
0.17641,1.05679,-0.48874,-0.05395,0.15584,0.10900,0.76883,-0.61484,0.16315,-0.88510,3.87317,-0.73616,-0.34069,-0.80897,0.02491,-0.47841,15.11000,-14.45872,12.75437
0.17502,1.06179,-0.48825,-0.06509,0.20405,0.09050,0.96483,-0.67461,0.23843,-0.76623,3.16508,-1.77599,-0.34338,-0.80742,0.01220,-0.47960,17.09884,-6.83653,6.88671
0.17353,1.06680,-0.48899,-0.07538,0.24115,0.05534,1.01011,-0.64305,0.26228,-0.77275,2.36409,-3.00668,-0.34531,-0.80647,0.00320,-0.47996,4.87112,-0.23947,3.38923
0.17199,1.07196,-0.49090,-0.08404,0.27221,0.00860,1.03579,-0.51890,0.24631,-0.52337,2.16969,-3.70401,-0.34785,-0.80655,-0.00406,-0.47798,1.44623,7.42938,-0.44973
0.17038,1.07748,-0.49381,-0.09208,0.30214,-0.04372,1.06875,-0.34211,0.24312,-0.61695,2.16476,-3.87865,-0.35035,-0.80783,-0.01092,-0.47387,2.33926,12.11514,-0.23889
0.16870,1.08339,-0.49755,-0.10085,0.33325,-0.09687,1.12497,-0.14935,0.23654,-0.69386,2.41159,-3.77194,-0.35331,-0.80982,-0.01786,-0.46802,2.82710,13.84931,1.00619
0.16687,1.08973,-0.50149,-0.10960,0.36365,-0.13989,1.11071,-0.00354,0.24789,-0.80709,2.84935,-3.28920,-0.35514,-0.81195,-0.02369,-0.46266,2.72222,13.27714,1.25541
0.16462,1.09775,-0.50665,-0.12294,0.41467,-0.19338,1.01779,0.14452,0.30479,-0.88660,3.64508,-3.36590,-0.35464,-0.81505,-0.02774,-0.45733,-7.68755,8.88538,3.37221
0.16223,1.10671,-0.51182,-0.13557,0.47073,-0.23499,1.03686,0.25838,0.38284,-0.90880,4.34377,-2.76593,-0.35457,-0.81837,-0.03442,-0.45096,-0.16898,9.31640,5.60222
0.15976,1.11642,-0.51688,-0.14613,0.52485,-0.26436,1.09790,0.31219,0.46746,-0.89152,4.73781,-2.35702,-0.35447,-0.82137,-0.04295,-0.44480,3.36168,4.80825,6.85314
0.15696,1.12820,-0.52252,-0.16002,0.60150,-0.29651,1.21401,0.34161,0.58827,-0.89537,4.85611,-1.72897,-0.35390,-0.82460,-0.05407,-0.43802,7.88392,2.65014,7.94170
0.15424,1.13985,-0.52785,-0.16970,0.65909,-0.31561,1.31387,0.34489,0.66338,-0.87708,4.85715,-1.55146,-0.35378,-0.82723,-0.06539,-0.43157,6.43743,-0.26095,7.05736
0.15134,1.15297,-0.53345,-0.18026,0.72691,-0.33428,1.46468,0.35358,0.72102,-0.75459,5.00291,-1.22890,-0.35460,-0.82964,-0.07856,-0.42402,11.49815,0.48646,4.41607
0.14812,1.16849,-0.53931,-0.19374,0.82181,-0.35367,1.72982,0.38755,0.76916,-0.83020,5.74900,-1.01289,-0.35709,-0.83183,-0.09484,-0.41420,13.18894,1.87524,2.29115
0.14487,1.18384,-0.54471,-0.20458,0.89247,-0.36072,1.95850,0.40890,0.81322,-1.26669,6.03847,-0.26384,-0.35958,-0.83366,-0.11190,-0.40398,19.89140,3.56308,4.09304
0.14114,1.20045,-0.54989,-0.22025,0.96526,-0.36199,2.14293,0.34376,0.90614,-0.89997,6.38375,0.09368,-0.36050,-0.83464,-0.13093,-0.39530,16.92860,-2.45756,2.45083
0.13770,1.21909,-0.55503,-0.22707,1.05242,-0.36287,2.26498,0.29654,1.06465,-0.32806,6.22385,-0.24173,-0.35870,-0.83627,-0.15060,-0.38640,9.57575,-5.22463,10.92050
0.13414,1.23869,-0.56038,-0.23437,1.13583,-0.36696,2.44728,0.33136,1.16530,-0.68557,5.88125,-0.38913,-0.35850,-0.83779,-0.17134,-0.37447,12.45728,1.44957,8.06757
0.13049,1.25866,-0.56587,-0.24135,1.20464,-0.37227,2.60954,0.38907,1.22224,-0.64910,5.70977,-0.61154,-0.35902,-0.83887,-0.19198,-0.36131,12.71534,3.51683,5.68154
0.12649,1.28069,-0.57157,-0.25240,1.29275,-0.37918,2.87693,0.55150,1.27743,-0.80742,5.43632,-0.15975,-0.36111,-0.84005,-0.21497,-0.34308,16.92974,10.63338,4.80022
0.12229,1.30260,-0.57703,-0.26492,1.36575,-0.37813,2.97018,0.64326,1.32821,-0.98427,5.18932,0.72330,-0.36138,-0.84096,-0.23538,-0.32679,10.30911,8.87775,4.83825
0.11798,1.32488,-0.58201,-0.27613,1.42539,-0.36958,2.93924,0.65421,1.38457,-0.94209,4.93828,1.03677,-0.35956,-0.84160,-0.25385,-0.31303,-0.46104,1.44187,4.62080
0.11321,1.34918,-0.58611,-0.29176,1.50217,-0.35006,3.03983,0.73140,1.44056,-1.06022,4.96146,1.17421,-0.35881,-0.84162,-0.27457,-0.29587,2.02462,2.03445,3.90052
0.10823,1.37391,-0.58949,-0.30709,1.56837,-0.32413,3.26554,0.84645,1.51443,-1.12119,4.67644,2.37166,-0.35886,-0.84053,-0.29858,-0.27490,16.73895,9.95454,5.77850
0.10323,1.39851,-0.59243,-0.31880,1.61445,-0.29805,3.37615,0.89318,1.58818,-1.13890,4.74175,3.12950,-0.35724,-0.83898,-0.32141,-0.25534,12.37747,6.81568,6.97675
0.09710,1.42578,-0.59277,-0.34524,1.69732,-0.23358,3.57815,0.87957,1.78232,-1.66621,4.41855,4.18768,-0.35229,-0.83625,-0.34888,-0.23422,14.49731,-1.01180,9.75339
0.09099,1.45198,-0.59331,-0.36569,1.74579,-0.18542,3.57173,0.80836,1.93383,-1.58744,3.68334,4.33582,-0.34502,-0.83395,-0.37233,-0.21647,4.35104,-6.68399,11.44394
0.08436,1.47891,-0.59219,-0.39002,1.79502,-0.12018,3.46487,0.71070,2.09688,-1.49354,2.45254,4.17212,-0.33504,-0.83223,-0.39371,-0.20034,-3.40100,-9.05701,9.25121
0.07758,1.50523,-0.59045,-0.41047,1.82553,-0.05777,3.27277,0.60311,2.18645,-1.33049,1.65042,3.77815,-0.32479,-0.83066,-0.41203,-0.18639,-11.48710,-11.30930,4.96303
0.07065,1.53130,-0.58835,-0.42951,1.84450,-0.00224,3.25631,0.61774,2.24576,-1.42608,1.26909,4.03653,-0.31648,-0.82753,-0.43207,-0.16838,-3.54701,-1.31327,4.21843
0.06346,1.55756,-0.58523,-0.44933,1.85805,0.05417,3.23508,0.61906,2.29211,-1.39981,0.75777,4.03584,-0.30779,-0.82377,-0.45169,-0.15051,-0.46837,-0.84656,3.39236
0.05591,1.58362,-0.58142,-0.46951,1.86452,0.10795,3.19149,0.65823,2.32821,-1.53686,0.16308,3.84430,-0.29915,-0.81994,-0.46993,-0.13180,-2.11572,1.53629,3.02545
0.04781,1.60927,-0.57701,-0.49433,1.86260,0.15951,3.04168,0.68516,2.39876,-1.88270,-0.50272,3.92534,-0.28864,-0.81748,-0.48528,-0.11367,-8.37825,0.61406,5.11122
0.03908,1.63450,-0.57148,-0.52439,1.85265,0.21684,2.83703,0.62955,2.49931,-2.35247,-0.89915,4.65468,-0.27545,-0.81583,-0.49902,-0.09761,-14.45708,-5.68677,6.18517
0.02941,1.65916,-0.56418,-0.56240,1.83573,0.29066,2.74440,0.51581,2.60456,-3.06409,-1.29363,5.92627,-0.26070,-0.81268,-0.51462,-0.08220,-9.01702,-10.37148,6.91969
0.01856,1.68307,-0.55488,-0.61119,1.81029,0.38046,2.87278,0.43649,2.74857,-3.73376,-1.92759,6.64595,-0.24497,-0.80628,-0.53463,-0.06379,6.98898,-7.74511,7.35924
0.00705,1.70595,-0.54421,-0.66143,1.77513,0.47411,3.04386,0.38121,2.90961,-3.51444,-3.17416,6.79167,-0.22799,-0.79817,-0.55591,-0.04366,14.68245,-2.55196,11.23736
-0.00485,1.72721,-0.53300,-0.70809,1.72366,0.56209,3.11829,0.27372,3.01992,-3.27684,-4.25273,6.26682,-0.20984,-0.78979,-0.57580,-0.02562,8.28248,-6.95308,6.96210
-0.01703,1.74680,-0.52118,-0.74996,1.65800,0.64084,3.09060,0.13970,3.10901,-2.90829,-5.24721,5.47187,-0.19044,-0.78203,-0.59335,-0.00951,2.03643,-9.67608,4.61758
-0.02941,1.76483,-0.50844,-0.78528,1.57953,0.71060,3.00410,0.02258,3.15272,-2.32608,-6.17314,4.76370,-0.17119,-0.77471,-0.60868,0.00524,-4.56557,-11.82012,2.67589
-0.04163,1.78201,-0.49547,-0.80859,1.50243,0.76543,3.00586,0.04608,3.14348,-2.00848,-6.67927,4.30963,-0.15473,-0.76537,-0.62431,0.02265,-2.01895,-3.47249,-1.21367
-0.05391,1.79761,-0.48188,-0.82677,1.41926,0.81619,3.03924,0.13544,3.11857,-1.39018,-7.26708,4.25348,-0.13989,-0.75466,-0.63967,0.04180,1.28178,6.91962,0.67278
-0.06665,1.80896,-0.46554,-0.84840,1.28439,0.89807,3.17857,0.29669,3.06752,-1.32431,-7.80957,4.92501,-0.12742,-0.74087,-0.65641,0.06318,4.55233,11.28142,-1.44259
-0.07966,1.82001,-0.44888,-0.86973,1.17065,0.96677,3.36272,0.35594,3.10971,-1.61278,-8.44054,4.99278,-0.11155,-0.72495,-0.67441,0.08467,10.86106,8.35127,2.55042
-0.09297,1.82994,-0.43201,-0.89028,1.06642,1.02162,3.50951,0.31000,3.18204,-1.51319,-9.05102,4.42187,-0.09276,-0.70806,-0.69215,0.10472,14.34253,1.92348,5.93406
-0.10696,1.83497,-0.41391,-0.91739,0.90396,1.08364,3.58191,-0.00936,3.22731,-1.17571,-9.29670,2.55434,-0.06864,-0.69147,-0.70942,0.11780,8.13804,-17.13902,-1.03098
-0.12029,1.84021,-0.39720,-0.92811,0.77830,1.10956,3.58959,-0.17998,3.24467,-0.52709,-8.88978,1.07214,-0.04639,-0.67511,-0.72434,0.13191,3.32145,-14.37561,-2.67289
-0.13302,1.84402,-0.38115,-0.92543,0.65818,1.11796,3.56171,-0.26373,3.25313,0.75825,-8.55791,-0.04073,-0.02509,-0.65863,-0.73758,0.14680,0.84592,-7.67265,0.08943
-0.14467,1.84653,-0.36565,-0.90484,0.54497,1.11523,3.48900,-0.23249,3.18800,1.82647,-7.89059,-0.52942,-0.00734,-0.64232,-0.74908,0.16202,-5.34225,0.28950,-3.04490
-0.15562,1.84807,-0.35050,-0.87752,0.44231,1.10709,3.39481,-0.18724,3.11743,1.97421,-7.04901,-0.65507,0.00933,-0.62618,-0.75926,0.17701,-6.79383,3.40387,-5.25727
-0.16647,1.84930,-0.33543,-0.85536,0.36004,1.10018,3.32862,-0.13030,3.12140,1.59813,-6.64397,-0.53042,0.02665,-0.60930,-0.76851,0.19349,-7.05301,3.17126,-2.15311
-0.17692,1.84821,-0.32065,-0.83103,0.25868,1.09121,3.22235,-0.17871,3.14327,1.68599,-6.11866,-0.46521,0.04605,-0.59345,-0.77603,0.20849,-5.40258,-2.14267,1.93422
-0.18713,1.84690,-0.30579,-0.80810,0.17565,1.08565,3.11455,-0.26181,3.13345,1.72813,-6.00032,-0.33928,0.06578,-0.57795,-0.78259,0.22181,-6.49837,-7.37783,-1.59527
-0.19714,1.84519,-0.29099,-0.78734,0.10666,1.08039,3.01580,-0.43431,3.02410,2.07680,-5.76000,-0.41622,0.08592,-0.56310,-0.78886,0.23074,-5.14596,-9.77395,-6.05356
-0.20633,1.84146,-0.27644,-0.75788,0.02032,1.07232,2.89230,-0.69746,2.80555,1.73510,-5.20168,-0.52609,0.10630,-0.55014,-0.79455,0.23398,-5.02321,-16.18705,-18.49649
-0.21533,1.83765,-0.26195,-0.73171,-0.04858,1.06491,2.83133,-0.88587,2.65913,2.00406,-4.56392,-0.60255,0.12693,-0.53588,-0.80003,0.23807,-1.93941,-11.53857,-11.84905
-0.22406,1.83384,-0.24767,-0.70753,-0.10049,1.05586,2.77317,-0.99516,2.56040,1.89962,-4.18689,-1.03718,0.14691,-0.52144,-0.80470,0.24282,-2.32817,-11.41814,-13.91176
-0.23170,1.82853,-0.23400,-0.67099,-0.16501,1.03863,2.69990,-0.97531,2.56510,2.20761,-3.82554,-1.28902,0.16559,-0.50650,-0.80806,0.25115,-3.87064,-0.72465,-2.41175
-0.23896,1.82312,-0.22064,-0.63580,-0.21738,1.02013,2.64220,-0.87144,2.63217,2.64522,-3.66840,-1.45551,0.18310,-0.49039,-0.81064,0.26239,-5.65022,4.69672,5.27322
-0.24541,1.81706,-0.20763,-0.59545,-0.26841,1.00006,2.61021,-0.68433,2.74233,2.87299,-3.67297,-1.56624,0.19887,-0.47262,-0.81281,0.27646,-4.76593,9.71420,7.63283
-0.25115,1.81032,-0.19511,-0.55262,-0.31861,0.97634,2.61039,-0.49986,2.88079,3.34057,-3.43389,-1.73067,0.21445,-0.45313,-0.81442,0.29225,-3.42211,12.98260,15.26443
-0.25672,1.80362,-0.18299,-0.51751,-0.35586,0.95203,2.63088,-0.43963,2.88037,2.98308,-2.92323,-2.26696,0.23025,-0.43390,-0.81633,0.30384,-0.46508,7.08942,3.08575
-0.26100,1.79599,-0.17278,-0.46885,-0.40035,0.90048,2.61436,-0.40492,2.88552,2.13645,-1.90902,-3.53552,0.24599,-0.41516,-0.81717,0.31521,-0.14000,2.08261,-1.70916
-0.26610,1.78939,-0.16278,-0.44462,-0.41754,0.85716,2.51300,-0.43206,2.99271,1.92782,-1.01978,-4.01528,0.26355,-0.39805,-0.81492,0.32864,-6.09991,-1.49058,8.37476
-0.27117,1.78318,-0.15396,-0.42633,-0.42396,0.80592,2.35624,-0.55931,2.96215,1.49265,-0.27436,-4.63636,0.28136,-0.38445,-0.81152,0.33833,-9.81008,-10.08402,1.28987
-0.27634,1.77754,-0.14723,-0.41403,-0.41931,0.73207,2.09735,-0.82024,2.90603,0.42095,0.86934,-4.68179,0.30130,-0.37583,-0.80519,0.34588,-11.63810,-16.52069,-6.41256
-0.28188,1.77274,-0.14091,-0.41031,-0.40172,0.66754,1.82136,-1.11223,2.78286,0.31278,1.48569,-4.77991,0.32156,-0.37033,-0.79765,0.35101,-14.35102,-22.07784,-10.39621
-0.28752,1.76841,-0.13556,-0.40933,-0.38080,0.60176,1.54153,-1.42772,2.62819,-0.22771,1.41358,-4.73532,0.34240,-0.36780,-0.78874,0.35409,-15.35583,-23.34441,-15.50113
-0.29330,1.76408,-0.13124,-0.41046,-0.36459,0.53404,1.29741,-1.74495,2.55824,0.02520,0.86495,-5.09414,0.36508,-0.36613,-0.77768,0.35760,-13.15363,-25.11165,-10.20893
-0.29881,1.75945,-0.12828,-0.40713,-0.35735,0.45943,1.11825,-2.05514,2.51921,0.31194,0.25046,-5.40706,0.38923,-0.36456,-0.76526,0.36052,-10.31625,-22.88472,-6.41129
-0.30409,1.75447,-0.12669,-0.40048,-0.35760,0.37929,1.04941,-2.42911,2.39564,0.99515,-0.23143,-5.96981,0.41585,-0.36337,-0.75248,0.35890,-2.53689,-25.82924,-8.24769
-0.30877,1.74905,-0.12674,-0.38551,-0.36514,0.29072,1.11426,-2.83182,2.18929,1.32140,-0.82860,-6.53558,0.44464,-0.36152,-0.74017,0.35178,8.58829,-26.36302,-16.60111
-0.31287,1.74320,-0.12768,-0.36435,-0.37749,0.20901,1.24744,-3.18219,2.05863,2.18182,-1.11942,-6.98184,0.47521,-0.35755,-0.72691,0.34343,14.75980,-26.34593,-11.61078
-0.31481,1.73672,-0.13263,-0.31210,-0.39799,0.07857,1.50338,-3.66375,1.91204,3.46228,-1.03165,-7.45296,0.51058,-0.35227,-0.71194,0.32917,19.95129,-24.14174,-8.60817
-0.31573,1.73061,-0.13751,-0.25291,-0.40749,-0.02370,1.70768,-3.99719,1.82223,5.11008,-0.31701,-7.31162,0.54447,-0.34577,-0.69593,0.31570,17.85952,-22.93891,-2.84765
-0.31519,1.72496,-0.14296,-0.18442,-0.40702,-0.10974,1.90136,-4.20787,1.72394,6.46273,0.41445,-7.07474,0.57675,-0.33805,-0.68009,0.30091,20.06931,-17.73839,-6.44204
-0.31076,1.72022,-0.15087,-0.06617,-0.39093,-0.21690,2.13195,-4.33967,1.68507,8.08321,1.68990,-6.43213,0.60867,-0.32734,-0.66399,0.28545,16.58654,-7.96018,-0.47548
-0.30480,1.71672,-0.15875,0.05167,-0.35733,-0.29972,2.21770,-4.39514,1.73267,8.79174,3.19154,-5.78249,0.63865,-0.31658,-0.64603,0.27305,9.20297,-3.82740,4.17443
-0.29760,1.71448,-0.16659,0.16041,-0.31125,-0.36102,2.12043,-4.42520,1.81895,9.30543,4.50362,-5.04046,0.66662,-0.30788,-0.62536,0.26409,-2.90976,-3.90714,4.58975
-0.28648,1.71508,-0.17554,0.30941,-0.22807,-0.42641,1.84222,-4.47445,1.86265,9.67197,5.99463,-3.59641,0.69237,-0.30349,-0.60171,0.25781,-17.97758,-5.07638,0.27933
-0.27431,1.71715,-0.18412,0.44348,-0.13833,-0.47121,1.57779,-4.52318,1.78530,9.82988,7.02239,-2.72862,0.71608,-0.30164,-0.57775,0.24991,-16.41459,-4.72258,-10.18425
-0.26121,1.72057,-0.19238,0.55941,-0.04876,-0.49960,1.37536,-4.56885,1.64746,9.87340,8.08408,-2.15015,0.73834,-0.30102,-0.55358,0.24040,-13.92986,-3.97526,-13.19036
-0.24502,1.72700,-0.20104,0.69774,0.06831,-0.52746,1.10672,-4.70215,1.46190,10.25781,8.78496,-1.89068,0.75972,-0.30459,-0.52624,0.23047,-12.60217,-7.64470,-19.37895
-0.22536,1.73709,-0.20976,0.86403,0.22176,-0.55021,1.03433,-4.84704,1.04673,10.90183,10.83226,-0.55076,0.77945,-0.31104,-0.50043,0.21279,-2.26581,-9.11886,-22.77413
-0.20707,1.74704,-0.21776,0.96669,0.33453,-0.55571,1.10905,-4.92271,0.60767,10.49418,12.13039,-0.24695,0.79730,-0.31733,-0.47694,0.19013,17.46488,-3.49847,-33.94307
-0.18363,1.76444,-0.22507,1.12775,0.54077,-0.54833,1.17988,-5.12631,-0.24618,10.38433,13.94431,1.10263,0.81101,-0.33556,-0.45297,0.15646,22.12362,-9.23533,-47.90926
-0.15788,1.78568,-0.23058,1.29549,0.76941,-0.51220,1.18639,-5.35172,-1.22983,11.18816,14.71120,3.28865,0.82021,-0.36136,-0.42734,0.11856,19.93466,-10.62802,-58.27830
-0.13269,1.80521,-0.23514,1.41283,0.91379,-0.46990,1.16790,-5.45729,-1.81438,12.46842,14.40602,5.22409,0.82798,-0.38308,-0.40068,0.08459,19.83510,-9.58282,-59.42408
-0.09814,1.83324,-0.23401,1.65689,1.16366,-0.34274,1.23999,-5.37838,-2.83488,14.56770,13.35410,8.89459,0.82541,-0.41533,-0.38006,0.04178,25.38075,4.89137,-51.88727
-0.06099,1.86119,-0.22890,1.89933,1.36517,-0.17172,1.21052,-5.11446,-3.69426,15.83146,12.19116,12.48626,0.81743,-0.44821,-0.36181,0.00342,17.01459,15.89155,-49.39194
-0.02702,1.88588,-0.22502,2.02414,1.45929,-0.06759,1.22477,-4.90769,-4.16904,15.99120,11.54608,13.79749,0.80925,-0.47609,-0.34259,-0.03304,22.43122,22.48056,-49.74596
0.01890,1.91756,-0.20924,2.31418,1.64389,0.20648,1.15825,-4.34025,-5.30899,16.80755,9.07711,16.88644,0.78258,-0.52133,-0.33251,-0.07225,22.63341,31.14792,-58.28587
0.06541,1.94683,-0.19176,2.55430,1.74996,0.45288,1.19898,-3.80590,-6.18843,17.96325,5.96270,18.47725,0.75222,-0.56332,-0.32327,-0.11104,32.42843,35.59435,-57.20304
0.11642,1.97463,-0.16941,2.81551,1.80742,0.72342,1.27167,-3.25152,-6.97494,19.44106,2.33967,20.46170,0.71523,-0.60542,-0.31591,-0.14871,29.90412,36.99720,-51.95043
0.17221,2.00018,-0.14203,3.09469,1.81275,1.01472,1.58504,-2.75140,-7.65754,20.68066,-1.64847,21.96650,0.67212,-0.64401,-0.31171,-0.19068,41.46341,27.56885,-42.02094
0.23296,2.02232,-0.10940,3.39152,1.75956,1.32582,2.07712,-2.32578,-8.31193,22.09051,-6.18303,22.93695,0.62151,-0.67930,-0.30976,-0.23733,53.50525,12.04487,-35.85005
0.29856,2.03975,-0.07124,3.70043,1.63978,1.65673,2.41957,-1.97915,-9.05549,22.67806,-11.03083,24.79021,0.56151,-0.71560,-0.30437,-0.28279,45.00215,19.46674,-41.55537
0.36919,2.05102,-0.02669,4.02105,1.44423,2.01744,3.16839,-1.45454,-9.76821,23.72223,-17.83263,26.80361,0.48883,-0.74523,-0.30876,-0.33219,62.84550,4.49414,-43.42232
0.44219,2.05593,0.02117,4.30171,1.19265,2.34354,3.80696,-1.11280,-10.44458,23.56837,-24.66302,28.22926,0.40806,-0.76968,-0.30946,-0.38120,69.01272,4.10278,-44.60541
0.52151,2.04752,0.07811,4.61589,0.78489,2.73756,4.60966,-0.69109,-11.18095,21.50996,-34.40306,27.96033,0.31275,-0.78679,-0.31351,-0.42995,68.15504,-10.84964,-51.66254
0.60448,2.01970,0.14336,4.92187,0.14357,3.18318,5.65372,-0.16758,-11.75868,16.90136,-46.92442,27.48161,0.20709,-0.79182,-0.32488,-0.47391,74.95358,-0.44000,-27.81861
0.68414,1.97757,0.20868,5.10565,-0.59693,3.53285,6.68855,0.45028,-12.30262,8.98498,-59.69891,22.12354,0.09127,-0.78665,-0.33699,-0.50920,78.13761,-14.10534,-41.95017
0.75502,1.91560,0.27413,5.13601,-1.50530,3.79663,7.90483,0.84325,-12.55222,-5.37768,-70.01225,15.30654,-0.02716,-0.76350,-0.35377,-0.53961,93.37377,-17.55888,-23.59233
0.80478,1.82967,0.33728,4.89368,-2.67544,3.93326,9.19297,0.82696,-12.34151,-24.51184,-76.45282,1.59504,-0.13762,-0.72037,-0.37507,-0.56697,59.26832,-55.05064,-11.25381
0.84506,1.74330,0.39140,4.49377,-3.57439,3.87961,9.87756,0.48933,-11.87252,-40.96006,-72.96979,-11.43697,-0.23256,-0.66907,-0.38897,-0.58904,34.38238,-68.90793,-8.83010
0.86604,1.63742,0.43082,3.81416,-4.52472,3.61763,10.28065,0.29999,-10.63417,-54.02454,-60.43694,-25.97624,-0.30495,-0.61683,-0.41321,-0.59648,0.14103,-80.82129,41.42063
0.86570,1.52658,0.45383,2.90647,-5.32390,3.14607,10.52311,0.21098,-8.82577,-58.05501,-40.59892,-32.96033,-0.35827,-0.56791,-0.44918,-0.58938,0.36943,-72.50176,93.60944
0.87260,1.43108,0.47700,2.34797,-5.67535,2.79989,10.71226,-0.05441,-7.86527,-54.74695,-30.82270,-37.07806,-0.41601,-0.51068,-0.47450,-0.58394,-24.18683,-84.42673,60.49506
0.85484,1.32829,0.47931,1.52665,-6.05694,2.19634,12.06952,0.49162,-5.73588,-47.62011,-15.63622,-41.72360,-0.47191,-0.45153,-0.53831,-0.53258,54.31126,-91.36963,84.31846
0.83702,1.23618,0.47811,0.88081,-6.17852,1.66620,13.55079,0.88514,-2.94049,-44.71943,-2.35539,-33.72355,-0.51091,-0.38969,-0.61969,-0.45066,130.05220,-131.66640,156.47790
0.81792,1.15180,0.47785,0.37182,-6.14845,1.28294,13.58349,-0.13841,-1.63019,-43.72438,3.59193,-25.71980,-0.52567,-0.31742,-0.67489,-0.40920,42.82381,-167.00670,69.31684
0.78347,1.07709,0.47053,-0.27016,-5.96241,0.87300,11.02949,-2.46116,-3.07309,-40.75799,15.57376,-23.17455,-0.51852,-0.24574,-0.67456,-0.46446,-134.04820,-41.24015,-153.08210
0.74887,1.01226,0.46199,-0.77368,-5.64715,0.53127,7.63722,-3.56839,-5.40710,-32.04605,27.48786,-24.37104,-0.51440,-0.19451,-0.63057,-0.54766,-194.50120,69.85570,-229.61860
0.72141,0.95119,0.45489,-1.03582,-5.35853,0.30184,5.27004,-3.24070,-7.02033,-21.26929,31.67694,-23.04114,-0.52505,-0.15741,-0.57416,-0.60818,-176.68070,144.53860,-202.31500
0.69099,0.91122,0.43674,-1.27872,-4.79383,-0.04982,2.71859,-1.49602,-8.17647,-4.94335,34.84650,-18.79177,-0.54597,-0.15971,-0.48879,-0.66143,-73.08485,186.32430,-73.14320
0.66891,0.87087,0.42258,-1.33760,-4.34905,-0.26499,2.17226,-0.56969,-6.89390,0.19327,31.80446,-12.98986,-0.56162,-0.15889,-0.46813,-0.66347,-16.20020,75.92258,70.07520
0.64892,0.83146,0.41014,-1.35060,-4.00016,-0.40158,1.96322,-0.25430,-5.28456,-0.90601,27.96004,-10.09487,-0.56962,-0.15857,-0.46854,-0.65640,-11.24810,36.61661,143.86760
0.62821,0.80078,0.39560,-1.37711,-3.59465,-0.54184,1.60737,-0.24612,-3.79850,-2.75701,22.63990,-7.52998,-0.56863,-0.16158,-0.47640,-0.65084,-25.83845,0.74469,104.15510
0.60570,0.76973,0.38095,-1.42610,-3.27509,-0.65508,1.63458,-0.57935,-3.08439,-3.48517,18.62250,-7.39096,-0.57048,-0.14556,-0.48159,-0.64918,-11.20079,-19.43211,44.97130
0.58257,0.73837,0.36574,-1.47786,-3.03216,-0.75575,1.98113,-1.10433,-2.57798,-3.76739,16.78990,-7.32588,-0.57442,-0.11836,-0.49160,-0.64371,14.42306,-44.45456,35.92614
0.55979,0.70772,0.35015,-1.51222,-2.83847,-0.83774,2.22788,-1.35487,-2.43080,-2.96597,15.88160,-6.31336,-0.58121,-0.09005,-0.49427,-0.64014,17.48630,-38.76524,20.36729
0.53776,0.68428,0.33254,-1.52497,-2.56869,-0.93351,2.15458,-1.02965,-2.69134,-0.14931,17.55401,-5.13698,-0.59242,-0.06902,-0.47992,-0.64339,5.05629,9.67806,-9.06735
0.51880,0.66358,0.31563,-1.48481,-2.31376,-0.99815,1.60942,0.06230,-3.21414,4.41982,17.75504,-3.52408,-0.60770,-0.06565,-0.44288,-0.65594,-17.39594,72.45815,-29.52896
0.50264,0.64343,0.29941,-1.40997,-2.11333,-1.03570,1.08781,1.30130,-3.44191,7.64602,15.85866,-2.90463,-0.62494,-0.07481,-0.40030,-0.66604,-25.64250,109.85030,-20.42669
0.49004,0.62813,0.28170,-1.29419,-1.87896,-1.08984,0.70029,2.73820,-3.26790,7.43226,14.31324,-4.55072,-0.64618,-0.09936,-0.35460,-0.66846,-7.53864,101.28390,13.27646
0.47636,0.61289,0.26228,-1.22217,-1.69499,-1.16122,0.77562,3.38593,-2.80289,4.10037,12.68066,-6.08980,-0.66619,-0.11567,-0.32464,-0.66138,14.14606,55.01026,31.86703
0.46103,0.59771,0.24178,-1.19519,-1.55560,-1.23263,1.12834,3.55899,-2.57367,0.99361,11.56517,-6.25963,-0.68753,-0.11988,-0.29891,-0.65084,32.18474,18.86788,25.43157
0.44457,0.58573,0.21987,-1.19318,-1.39775,-1.30896,1.54100,3.57474,-2.55596,-0.51937,11.37482,-4.50720,-0.71000,-0.11697,-0.27236,-0.63878,33.45666,-2.88376,-3.45032
0.42773,0.57726,0.19851,-1.19810,-1.21581,-1.35921,1.68596,3.36145,-2.44892,1.05643,10.65105,-1.57550,-0.72621,-0.11356,-0.25100,-0.62986,10.60337,-6.89451,-5.05828
0.41127,0.56751,0.17919,-1.19651,-1.09711,-1.36456,1.74791,2.64810,-1.88629,0.99037,8.91127,0.19939,-0.73519,-0.11013,-0.25080,-0.62006,3.18335,-44.63213,28.96457
0.39447,0.55838,0.16071,-1.20085,-0.99870,-1.35521,1.95056,1.55515,-1.26195,-0.76338,8.23364,0.53654,-0.74144,-0.09864,-0.26776,-0.60732,7.79536,-88.13757,43.15927
0.37604,0.55371,0.14267,-1.23094,-0.84752,-1.34087,2.50209,-0.20701,-0.97204,-2.78211,9.77441,1.13275,-0.74640,-0.06193,-0.30178,-0.58989,24.79556,-106.32860,5.89078
0.35768,0.55146,0.12581,-1.25333,-0.68394,-1.30845,2.76616,-1.07259,-1.49094,-1.56574,10.48476,4.21512,-0.75371,-0.02133,-0.30954,-0.57935,18.26949,-66.01315,-34.70319
0.34100,0.54832,0.11028,-1.24116,-0.57664,-1.26264,2.69231,-0.96167,-2.01659,1.91416,10.54587,6.48841,-0.76309,0.00555,-0.29726,-0.57384,5.50633,-10.75967,-51.86626
0.33039,0.55186,0.10097,-1.12708,-0.38336,-1.12160,2.01432,-0.06853,-2.38979,10.20991,9.55492,9.51822,-0.76905,0.01226,-0.26662,-0.58079,-30.77037,59.33794,-23.13655
0.32385,0.55352,0.09341,-0.96909,-0.26319,-0.98150,1.39128,0.46581,-2.04377,12.89158,7.44051,9.98590,-0.77114,0.00699,-0.25112,-0.58500,-39.63722,47.51072,26.00038
0.32095,0.55474,0.08767,-0.78611,-0.17934,-0.84409,1.08943,0.79503,-1.62055,13.98801,5.32922,9.47455,-0.77509,0.00101,-0.24017,-0.58442,-23.68282,29.47816,33.16392
0.32128,0.55603,0.08371,-0.59198,-0.11403,-0.70912,0.97078,0.82301,-1.20226,14.53829,4.58259,9.77191,-0.77914,-0.00233,-0.23583,-0.58078,-7.13143,5.27781,31.92781
0.32498,0.55793,0.08207,-0.38652,-0.05380,-0.56666,0.80259,0.75834,-0.82322,15.30398,4.06144,10.77225,-0.78122,-0.00608,-0.23449,-0.57850,-8.69029,-5.60590,27.34112
0.33234,0.56067,0.08302,-0.16704,0.00648,-0.41395,0.50490,0.73048,-0.36794,16.27530,3.90843,11.51549,-0.78057,-0.01508,-0.23540,-0.57885,-16.67919,-4.77573,28.65629
0.34312,0.56383,0.08663,0.05860,0.05889,-0.25198,-0.00767,0.78821,0.23547,16.09056,2.88547,11.71307,-0.77538,-0.03329,-0.23878,-0.58366,-31.85479,1.94821,42.26648
0.35619,0.56702,0.09193,0.26874,0.09959,-0.10043,-0.32984,0.79811,0.77108,14.29651,3.58338,10.17062,-0.77065,-0.05252,-0.24410,-0.58631,-25.58538,5.51652,45.94279
0.36953,0.57113,0.09744,0.43069,0.14584,0.01650,-0.53117,0.81208,1.02445,12.83328,4.52412,9.45474,-0.76652,-0.06800,-0.24675,-0.58902,-17.24247,-3.20949,28.36545
0.38603,0.57694,0.10520,0.60497,0.20825,0.14225,-0.73010,0.82340,1.26242,12.27104,4.65198,8.74354,-0.76125,-0.08493,-0.24993,-0.59230,-13.78334,2.77667,16.55831
0.40551,0.58464,0.11517,0.79143,0.28925,0.27776,-0.98225,0.82617,1.58508,11.24280,5.56255,8.42177,-0.75361,-0.10542,-0.25541,-0.59643,-13.55219,-1.60198,20.50372
0.42527,0.59367,0.12554,0.94119,0.37518,0.38994,-1.27906,0.89397,1.89960,10.13369,6.63191,7.90106,-0.74399,-0.12915,-0.26009,-0.60180,-18.95812,3.52825,23.05804
0.44508,0.60394,0.13618,1.05405,0.46000,0.47887,-1.57400,0.98834,2.14255,8.67952,7.54052,7.17115,-0.73272,-0.15430,-0.26352,-0.60817,-22.98773,5.43861,22.92218
0.46721,0.61794,0.14869,1.17933,0.58791,0.57816,-1.98701,1.16418,2.38415,6.97345,8.43238,5.37622,-0.71777,-0.18378,-0.26468,-0.61723,-26.20806,8.47782,16.49306
0.48916,0.63382,0.16069,1.27488,0.72192,0.64702,-2.32831,1.31928,2.58325,5.01402,8.53010,3.25889,-0.70180,-0.21366,-0.26515,-0.62572,-22.75235,8.66476,13.48956
0.50978,0.64960,0.17138,1.32454,0.82193,0.67729,-2.51667,1.40290,2.70341,3.36636,8.53405,1.76972,-0.68630,-0.24157,-0.26576,-0.63246,-18.34676,6.99079,11.58738
