posX, posY, posZ, velX, velY, velZ, angVelX, angVelY, angVelZ, accX, accY, accZ, rotX, rotY, rotZ, rotW, angAccX, angAccY, angAccZ
0.15117,0.99517,-0.27188,-0.50104,0.20633,-0.36685,0.64959,0.57031,0.59133,0.26155,0.84468,-0.31358,-0.31149,-0.76746,0.14521,-0.54119,10.60136,-3.06677,3.80773
0.14448,0.99887,-0.27727,-0.49684,0.21949,-0.37170,0.84583,0.55757,0.60874,0.16004,0.80501,-0.27849,-0.31299,-0.77229,0.13603,-0.53582,12.96939,-0.49764,0.66976
0.13774,1.00255,-0.28271,-0.49447,0.22919,-0.37639,0.95596,0.54556,0.59546,0.11853,0.65978,-0.27120,-0.31438,-0.77660,0.12810,-0.53070,9.52118,-0.28498,-0.50310
0.13105,1.00627,-0.28825,-0.49182,0.23717,-0.38158,0.99920,0.54346,0.56045,0.15004,0.59722,-0.31121,-0.31565,-0.78058,0.12146,-0.52565,4.78713,0.36817,-2.31066
0.12432,1.01010,-0.29395,-0.49025,0.24561,-0.38847,0.96835,0.55442,0.52533,0.09511,0.71586,-0.57397,-0.31607,-0.78437,0.11647,-0.52087,-1.26048,0.18174,-2.62548
0.11762,1.01425,-0.29993,-0.48914,0.25718,-0.39832,0.94469,0.59305,0.52246,0.12124,0.94441,-0.82659,-0.31580,-0.78876,0.11139,-0.51548,-2.15336,2.01246,-0.42845
0.11090,1.01869,-0.30607,-0.48826,0.27095,-0.40851,0.93476,0.64011,0.54385,0.01861,1.35300,-0.87693,-0.31505,-0.79360,0.10595,-0.50963,-0.82656,3.55484,0.67319
0.10405,1.02392,-0.31267,-0.48997,0.29515,-0.42416,0.84383,0.70593,0.62695,-0.13883,1.69478,-0.98710,-0.31141,-0.79915,0.10164,-0.50405,-5.11609,3.63833,5.62819
0.09718,1.02934,-0.31928,-0.49136,0.31647,-0.43615,0.77675,0.75207,0.71246,-0.11882,1.86460,-0.99787,-0.30722,-0.80478,0.09694,-0.49855,-6.37721,3.75749,6.82737
0.09020,1.03544,-0.32608,-0.49435,0.34369,-0.44858,0.72048,0.78699,0.81931,-0.38061,1.96243,-0.77924,-0.30191,-0.81070,0.09173,-0.49316,-3.66001,2.26642,7.84006
0.08297,1.04194,-0.33297,-0.50091,0.37219,-0.45949,0.62318,0.77743,0.91703,-0.42933,1.63761,-0.61943,-0.29553,-0.81598,0.08722,-0.48911,-6.09147,-0.64564,6.90456
0.07578,1.04837,-0.33986,-0.50573,0.39323,-0.46737,0.57634,0.74684,0.97915,-0.43177,1.30578,-0.57863,-0.28992,-0.82083,0.08208,-0.48524,-3.91108,-1.66218,4.72272
0.06842,1.05480,-0.34686,-0.51218,0.40926,-0.47544,0.54915,0.71501,1.01392,-0.58070,0.95668,-0.58221,-0.28472,-0.82539,0.07684,-0.48141,-1.51423,-2.77804,2.98647
0.06092,1.06107,-0.35390,-0.51883,0.41851,-0.48236,0.55472,0.68192,1.03472,-0.56376,0.55649,-0.66792,-0.28002,-0.82976,0.07100,-0.47754,-0.94432,-2.87283,1.82601
0.05326,1.06727,-0.36115,-0.52623,0.42352,-0.49133,0.62860,0.64291,1.03508,-0.45794,-0.01591,-0.63683,-0.27665,-0.83390,0.06358,-0.47332,3.96592,-2.52784,0.24439
0.04567,1.07305,-0.36841,-0.53104,0.42087,-0.49855,0.70942,0.61842,1.00812,-0.48293,-0.50634,-0.63733,-0.27427,-0.83785,0.05599,-0.46867,6.27997,-2.00970,-1.74921
0.03791,1.07826,-0.37585,-0.53737,0.40924,-0.50695,0.76102,0.61170,0.92217,-0.45925,-1.15598,-0.45332,-0.27335,-0.84135,0.04960,-0.46362,5.85037,-0.21178,-5.12645
0.03028,1.08278,-0.38335,-0.54024,0.38866,-0.51443,0.75617,0.60971,0.79471,-0.03968,-1.71092,-0.55029,-0.27327,-0.84427,0.04522,-0.45878,-0.49367,-0.47670,-8.17064
0.02288,1.08677,-0.39088,-0.53857,0.36416,-0.52069,0.76396,0.63191,0.62590,0.11121,-1.85455,-0.23283,-0.27512,-0.84691,0.04177,-0.45311,0.37104,1.66248,-11.94104
0.01548,1.09016,-0.39803,-0.53723,0.33556,-0.51898,0.64659,0.60081,0.47022,0.07458,-2.11925,0.76385,-0.27605,-0.84852,0.04131,-0.44957,-5.36185,0.81032,-11.52613
0.00823,1.09292,-0.40458,-0.53416,0.30326,-0.50767,0.47936,0.49199,0.33040,0.34171,-2.43106,0.87105,-0.27651,-0.84866,0.04244,-0.44890,-13.54186,-7.58744,-9.45347
0.00127,1.09503,-0.41067,-0.52677,0.26700,-0.49125,0.43710,0.39250,0.17345,0.50826,-2.17224,0.90643,-0.27934,-0.84831,0.04200,-0.44785,-5.31344,-6.59850,-10.30698
-0.00573,1.09737,-0.41674,-0.52183,0.24404,-0.47820,0.52897,0.35044,0.09104,0.43367,-1.77912,0.92004,-0.28291,-0.84886,0.03816,-0.44491,4.68170,-4.14420,-8.45125
-0.01263,1.09943,-0.42257,-0.51691,0.22219,-0.46436,0.70369,0.34555,0.03329,0.42337,-1.34753,0.81619,-0.28774,-0.84986,0.03179,-0.44038,11.01605,-1.29388,-5.24160
-0.01943,1.10147,-0.42827,-0.51131,0.20506,-0.45133,0.92813,0.39253,0.02645,0.36165,-0.83149,0.85202,-0.29277,-0.85180,0.02306,-0.43380,15.68386,2.79850,-2.04748
-0.02628,1.10366,-0.43394,-0.50746,0.19436,-0.44107,1.02498,0.44862,0.07884,0.34154,-0.60620,0.84135,-0.29529,-0.85434,0.01563,-0.42739,8.78083,3.45514,2.51192
-0.03307,1.10572,-0.43953,-0.50353,0.18431,-0.43181,0.95908,0.50467,0.16835,0.27070,-0.71257,0.88655,-0.29477,-0.85734,0.01108,-0.42184,-0.32383,3.68199,6.47906
-0.03974,1.10737,-0.44499,-0.49814,0.16879,-0.42224,0.66775,0.54109,0.28196,0.35344,-1.14499,0.75389,-0.29016,-0.86053,0.01180,-0.41851,-16.77452,2.25918,8.05859
-0.04635,1.10883,-0.45041,-0.49292,0.15359,-0.41441,0.41303,0.54877,0.32885,0.37000,-1.43977,0.63461,-0.28607,-0.86311,0.01381,-0.41595,-21.68524,0.31080,6.11431
-0.05278,1.10972,-0.45559,-0.48607,0.13250,-0.40444,0.18859,0.55580,0.31016,0.44072,-1.72964,0.62753,-0.28285,-0.86523,0.01739,-0.41360,-17.40301,-0.05638,1.18027
-0.05897,1.11026,-0.46055,-0.47657,0.11058,-0.39297,0.10572,0.57296,0.20165,0.72618,-1.46557,0.64975,-0.28307,-0.86674,0.02012,-0.41016,-10.81834,1.09145,-6.28298
-0.06498,1.11089,-0.46526,-0.46622,0.09570,-0.37995,0.17904,0.59544,0.07104,0.63047,-0.81533,0.90444,-0.28623,-0.86800,0.02005,-0.40528,3.28723,1.42404,-9.25775
-0.07100,1.11173,-0.46972,-0.45840,0.08795,-0.36565,0.26081,0.59507,-0.03918,0.56350,-0.23327,1.09754,-0.29000,-0.86894,0.01923,-0.40058,5.97353,0.68080,-7.97576
-0.07694,1.11308,-0.47391,-0.45107,0.09077,-0.35014,0.38609,0.58235,-0.11202,0.48561,0.66113,1.08187,-0.29423,-0.86982,0.01662,-0.39568,7.08010,-0.98860,-6.77199
-0.08295,1.11513,-0.47780,-0.44720,0.10511,-0.33342,0.56372,0.55066,-0.13396,0.20271,1.35627,1.22975,-0.29860,-0.87071,0.01130,-0.39060,12.05732,-1.23012,-3.30966
-0.08904,1.11777,-0.48148,-0.44523,0.12578,-0.31705,0.76697,0.51025,-0.13338,0.17257,1.59273,0.96872,-0.30325,-0.87151,0.00389,-0.38535,13.13423,-3.42144,-0.15216
-0.09497,1.12086,-0.48514,-0.44111,0.14922,-0.30421,1.03241,0.49364,-0.14621,0.40361,1.75650,0.72923,-0.30948,-0.87223,-0.00610,-0.37868,18.55530,-1.79568,-1.50535
-0.10076,1.12413,-0.48900,-0.43572,0.17022,-0.29773,1.17926,0.47917,-0.14341,0.50145,1.88772,0.62801,-0.31477,-0.87292,-0.01496,-0.37243,17.17190,-0.59394,-1.53531
-0.10641,1.12809,-0.49303,-0.42955,0.19740,-0.29567,1.18624,0.44430,-0.09228,0.47991,2.18133,0.09025,-0.31754,-0.87375,-0.02190,-0.36777,3.43754,-2.68707,2.43861
-0.11197,1.13294,-0.49753,-0.42306,0.23339,-0.30196,1.04193,0.38956,0.01001,0.36464,2.42718,-0.63813,-0.31694,-0.87492,-0.02589,-0.36524,-7.50959,-4.59202,6.42052
-0.11747,1.13820,-0.50259,-0.41729,0.26868,-0.31641,0.88551,0.35103,0.07299,0.36172,2.68229,-1.49011,-0.31620,-0.87602,-0.02842,-0.36304,-12.61381,-3.06719,5.62623
-0.12295,1.14397,-0.50821,-0.41229,0.30328,-0.33633,0.90194,0.38766,0.05689,0.25451,3.06419,-2.49119,-0.31858,-0.87710,-0.03307,-0.35791,-6.36794,-1.43162,1.90128
-0.12818,1.15235,-0.51523,-0.40439,0.37552,-0.37617,1.45825,0.64834,-0.06100,0.36447,5.06709,-2.81391,-0.32952,-0.87883,-0.04817,-0.34170,27.52445,14.58755,-7.48385
-0.13377,1.16145,-0.52218,-0.40467,0.44340,-0.40549,2.00492,0.87464,-0.08143,-0.19329,6.27438,-2.43217,-0.33977,-0.88065,-0.06703,-0.32329,45.01788,18.12624,-4.21130
-0.13960,1.17229,-0.52954,-0.40861,0.52193,-0.43382,2.42226,1.05608,-0.03130,-0.24730,6.98738,-1.85074,-0.34822,-0.88252,-0.08685,-0.30392,41.57476,17.64450,1.60726
-0.14560,1.18680,-0.53772,-0.41502,0.64569,-0.46945,2.53263,1.13826,0.17606,-0.18729,6.86151,-1.13431,-0.35009,-0.88543,-0.10358,-0.28761,11.20570,4.25913,10.96890
-0.15136,1.20035,-0.54537,-0.41604,0.72545,-0.48802,2.29159,1.07250,0.33900,-0.04719,6.65513,-1.19102,-0.34843,-0.88799,-0.11286,-0.27811,-12.97453,-5.46346,14.17124
-0.15711,1.21593,-0.55326,-0.41670,0.81943,-0.50587,2.04434,1.01680,0.49519,-0.33514,6.96756,-1.47050,-0.34508,-0.89095,-0.12057,-0.26943,-21.86217,-7.81271,13.18853
-0.16341,1.23314,-0.56097,-0.42529,0.91867,-0.51676,2.12585,1.08128,0.59305,-1.01428,7.34594,-0.85421,-0.34479,-0.89337,-0.13396,-0.25508,-0.83290,0.40888,8.42718
-0.17017,1.25195,-0.56812,-0.43969,1.02178,-0.51534,2.45466,1.19259,0.63424,-1.22952,7.50571,0.39550,-0.34765,-0.89436,-0.15336,-0.23607,20.59396,8.91234,3.14561
-0.17741,1.27222,-0.57459,-0.45864,1.12464,-0.50276,2.86005,1.33998,0.65743,-1.46486,7.29647,1.29612,-0.35180,-0.89421,-0.17604,-0.21361,28.18914,10.27634,1.43959
-0.18495,1.29380,-0.58010,-0.47810,1.22409,-0.47797,3.19223,1.47187,0.69391,-1.35992,6.99698,2.50751,-0.35534,-0.89329,-0.19914,-0.19003,26.86166,11.52853,0.97785
-0.19287,1.31634,-0.58444,-0.49939,1.31677,-0.43934,3.32628,1.50885,0.79720,-1.42747,6.25745,3.58397,-0.35547,-0.89254,-0.22016,-0.16894,14.85589,4.34195,5.76727
-0.20106,1.33952,-0.58750,-0.52021,1.39798,-0.38830,3.28497,1.44596,0.93488,-1.52947,5.38147,4.10837,-0.35241,-0.89217,-0.23850,-0.15149,-0.57766,-5.77689,9.26386
-0.20964,1.36272,-0.58935,-0.54199,1.46543,-0.32795,3.26649,1.39703,1.03739,-1.62509,4.38442,4.48365,-0.34920,-0.89114,-0.25693,-0.13383,-1.89970,-5.95423,7.93803
-0.21844,1.38619,-0.58953,-0.56286,1.52297,-0.25212,3.33742,1.40516,1.07211,-1.18624,2.96151,4.87724,-0.34755,-0.88862,-0.27662,-0.11419,4.34679,-1.15195,3.19974
-0.22703,1.40916,-0.58899,-0.57555,1.55599,-0.18122,3.41135,1.41360,1.04194,-0.74704,1.73891,5.32387,-0.34728,-0.88470,-0.29628,-0.09449,5.84742,2.50831,-1.98889
-0.23549,1.43144,-0.58792,-0.58190,1.57052,-0.11885,3.40494,1.39297,0.98614,-0.27000,0.68965,5.34505,-0.34719,-0.88026,-0.31430,-0.07633,1.12928,-0.29217,-3.08743
-0.24354,1.45330,-0.58523,-0.58016,1.57522,-0.04420,3.41641,1.38949,0.82541,0.23498,0.12906,5.42428,-0.35016,-0.87396,-0.33188,-0.05864,-2.05822,0.35693,-9.75439
-0.25133,1.47499,-0.58038,-0.57440,1.57443,0.04978,3.59246,1.45925,0.60699,0.38060,0.06522,6.15763,-0.35636,-0.86450,-0.35241,-0.03805,7.81442,7.04947,-14.03847
-0.25915,1.49670,-0.57512,-0.57022,1.57292,0.12752,3.80451,1.53184,0.47801,0.46375,-0.15911,6.69547,-0.36148,-0.85367,-0.37459,-0.01583,14.53157,9.36558,-11.88203
-0.26676,1.51807,-0.56767,-0.56350,1.56621,0.22243,4.01572,1.57688,0.38847,0.77675,-0.80223,7.02034,-0.36598,-0.84125,-0.39789,0.00680,16.24710,7.09921,-8.14173
-0.27397,1.53879,-0.55815,-0.55084,1.54809,0.33057,4.10446,1.52441,0.35030,1.09234,-1.66049,6.79629,-0.36830,-0.82900,-0.41999,0.02672,7.26540,-0.88942,-3.69410
-0.28102,1.55895,-0.54893,-0.53844,1.52553,0.40751,4.05745,1.41955,0.33054,1.24089,-2.27844,6.32857,-0.36925,-0.81763,-0.43957,0.04370,-0.81599,-6.84845,-2.96909
-0.28774,1.57841,-0.53887,-0.52412,1.49759,0.47849,3.93686,1.27917,0.29488,1.30363,-2.57496,5.72865,-0.36979,-0.80667,-0.45739,0.05781,-7.82916,-9.96352,-4.73438
-0.29369,1.59615,-0.52675,-0.50090,1.45128,0.57032,3.72017,1.13698,0.20360,1.18914,-2.36686,4.68597,-0.37134,-0.79646,-0.47227,0.06876,-14.19328,-9.26602,-5.65059
-0.29981,1.61430,-0.51561,-0.48566,1.42170,0.62690,3.70857,1.18010,0.14412,1.02929,-2.18330,4.63215,-0.37404,-0.78342,-0.48892,0.08546,-6.25411,1.59155,-5.63342
-0.30596,1.63201,-0.50358,-0.47496,1.39229,0.68371,3.78660,1.30188,0.12913,0.62126,-2.29303,4.77325,-0.37670,-0.76856,-0.50620,0.10571,3.69941,8.89894,-1.20850
-0.31195,1.64841,-0.48916,-0.46375,1.34795,0.76975,3.96412,1.53293,0.22027,0.91563,-2.63742,4.90274,-0.37798,-0.75180,-0.52395,0.13189,11.78943,13.11345,7.55423
-0.31782,1.66508,-0.47544,-0.45288,1.31651,0.82544,3.96740,1.59582,0.29372,1.18344,-2.85200,4.80752,-0.37770,-0.73672,-0.53941,0.15367,4.40217,6.54690,7.18180
-0.32330,1.68116,-0.46091,-0.43815,1.28317,0.87987,3.89680,1.60041,0.35974,1.49589,-2.93479,4.63634,-0.37651,-0.72253,-0.55321,0.17366,-2.93696,0.06275,6.68647
-0.32766,1.69581,-0.44387,-0.40924,1.23078,0.96101,3.67523,1.50150,0.42761,1.85714,-3.15067,4.66911,-0.37399,-0.71127,-0.56413,0.18967,-10.96911,-5.75862,3.53113
-0.33194,1.71042,-0.42670,-0.38520,1.18809,1.02800,3.48895,1.33810,0.49360,1.72274,-3.06471,5.10218,-0.36986,-0.70046,-0.57539,0.20369,-14.75106,-11.96104,2.57806
-0.33615,1.72423,-0.40826,-0.36551,1.14156,1.09993,3.33401,1.07553,0.60677,1.43073,-3.61503,5.25640,-0.36212,-0.69089,-0.58743,0.21555,-9.57825,-18.18734,4.43083
-0.34011,1.73705,-0.38867,-0.34761,1.08811,1.17157,3.15763,0.73989,0.71414,1.30965,-4.21696,5.03146,-0.35189,-0.68308,-0.59940,0.22427,-10.70431,-24.30746,4.39967
-0.34391,1.74914,-0.36884,-0.33142,1.03604,1.22944,3.01092,0.45189,0.75793,1.36103,-4.53358,4.65627,-0.34176,-0.67518,-0.61137,0.23142,-12.34565,-26.44233,0.89417
-0.34724,1.75954,-0.34795,-0.31132,0.96903,1.29044,2.89640,0.16076,0.76062,1.35788,-5.03790,4.10353,-0.33089,-0.66726,-0.62401,0.23640,-7.38539,-20.89984,-3.54225
-0.35043,1.76884,-0.32673,-0.29388,0.89984,1.34258,2.78057,-0.18943,0.74551,1.24818,-4.87922,3.34097,-0.31819,-0.66022,-0.63730,0.23813,-6.78291,-23.15233,-5.87544
-0.35355,1.77737,-0.30552,-0.27938,0.83360,1.38240,2.62291,-0.58762,0.78813,0.98770,-4.94607,2.29608,-0.30224,-0.65567,-0.64990,0.23743,-8.68941,-27.14254,-2.64696
-0.35657,1.78467,-0.28485,-0.26604,0.76270,1.40448,2.47176,-0.94959,0.80028,0.76011,-5.13054,0.86490,-0.28558,-0.65177,-0.66221,0.23478,-12.54054,-31.37953,-3.86512
-0.35913,1.79042,-0.26533,-0.24718,0.68307,1.40340,2.53004,-0.96277,0.82168,1.32887,-6.01276,-1.26768,-0.27226,-0.64255,-0.67499,0.23956,2.24440,-7.58379,-0.10635
-0.36055,1.79465,-0.24787,-0.21375,0.59697,1.36883,2.55190,-0.80101,0.74058,3.19399,-6.28276,-3.74861,-0.26434,-0.63149,-0.68621,0.24588,3.45130,9.48682,0.23691
-0.36031,1.79798,-0.23271,-0.16111,0.51575,1.30484,2.54946,-0.43817,0.57006,3.69085,-5.47168,-5.43450,-0.26351,-0.61811,-0.69553,0.25443,-2.27052,21.45343,-10.16564
-0.35886,1.80066,-0.21962,-0.10095,0.44273,1.22199,2.61908,0.12694,0.47570,4.52080,-4.98857,-6.44943,-0.26714,-0.60110,-0.70315,0.27000,5.08196,41.65997,-0.21187
-0.35654,1.80315,-0.20840,-0.04042,0.38326,1.12748,2.48279,0.56728,0.36583,4.42538,-4.06330,-6.95359,-0.27310,-0.58738,-0.70730,0.28307,-5.57066,35.56255,-1.43740
-0.35337,1.80530,-0.19892,0.02109,0.33090,1.02531,2.16680,0.85914,0.27271,3.70393,-2.88364,-5.79408,-0.27987,-0.57834,-0.70806,0.29301,-20.42735,20.89718,-2.52441
-0.35047,1.80768,-0.18894,0.06459,0.29366,0.95355,1.90966,0.97726,0.23283,2.93473,-2.42800,-4.43070,-0.28389,-0.57057,-0.70928,0.30130,-20.05974,10.50087,-1.61007
-0.34763,1.81001,-0.17841,0.09657,0.26471,0.90855,1.73493,1.00760,0.19858,2.63996,-2.36982,-3.05023,-0.28653,-0.56276,-0.71136,0.30850,-15.40505,4.34549,-0.30196
-0.34424,1.81142,-0.16781,0.13000,0.22723,0.87547,1.55686,0.97490,0.12883,1.67565,-2.23076,-1.02553,-0.28924,-0.55598,-0.71348,0.31333,-12.56454,-0.94531,-4.85397
-0.34143,1.81285,-0.15566,0.14628,0.19845,0.87476,1.55428,0.94839,0.15285,0.89771,-2.22690,1.23827,-0.28926,-0.54689,-0.71715,0.32083,-7.11671,-2.49601,-1.00621
-0.33898,1.81310,-0.14151,0.15278,0.15770,0.90774,1.82485,0.86689,0.31474,0.16070,-2.97235,3.89523,-0.28281,-0.53345,-0.72446,0.33257,14.10942,-4.12600,7.77741
-0.33690,1.81199,-0.12459,0.15193,0.10398,0.97767,2.34706,0.61391,0.52706,0.14581,-4.31831,6.33653,-0.26745,-0.51517,-0.73736,0.34551,33.82401,-14.17093,12.42543
-0.33511,1.80915,-0.10521,0.14666,0.03448,1.07096,2.83716,-0.02953,0.56503,0.31508,-5.71736,6.91652,-0.24316,-0.49754,-0.75612,0.34873,42.35737,-35.10334,1.90604
-0.33338,1.80549,-0.08508,0.14155,-0.03146,1.15378,3.02451,-0.89946,0.37043,-0.09246,-6.05845,6.54865,-0.21551,-0.48586,-0.77649,0.33846,24.48081,-61.90268,-20.81531
-0.33239,1.79848,-0.06276,0.12546,-0.13741,1.25361,3.20831,-2.15510,-0.05778,-1.48584,-5.83044,4.19569,-0.17808,-0.47595,-0.80278,0.31193,13.71704,-66.95595,-37.83078
-0.33142,1.79250,-0.04310,0.11287,-0.20396,1.28939,3.33095,-2.73688,-0.29017,-1.30905,-5.34661,1.55914,-0.14787,-0.46278,-0.82310,0.29406,15.14653,-51.40171,-30.90274
-0.33008,1.78498,-0.02525,0.10959,-0.28000,1.28658,3.51987,-2.95847,-0.45619,-0.06269,-3.92849,-1.79286,-0.12133,-0.44490,-0.84198,0.28001,11.96445,-19.65774,-16.01314
-0.32746,1.77822,-0.00967,0.12815,-0.32728,1.24731,3.79231,-2.61393,-0.32321,1.20009,-2.57567,-3.83040,-0.10210,-0.42063,-0.85668,0.28060,16.88643,14.20491,9.96788
-0.32415,1.77201,0.00439,0.15315,-0.35403,1.19310,4.07773,-2.09010,-0.00479,2.07643,-1.75373,-5.32786,-0.08560,-0.39260,-0.86840,0.29056,19.87013,31.77106,34.15366
-0.31963,1.76606,0.01528,0.19215,-0.37017,1.09944,4.24708,-1.40329,0.33192,2.79669,-0.45667,-6.49554,-0.07558,-0.36302,-0.87673,0.30636,11.71467,37.37870,37.14138
-0.31515,1.76141,0.02534,0.22179,-0.36136,1.01263,4.13942,-0.99171,0.47823,1.96729,1.33594,-6.27600,-0.06660,-0.33985,-0.88331,0.31595,-5.35030,28.89907,19.91645
-0.31092,1.75857,0.03409,0.24068,-0.32400,0.92305,3.83196,-0.75073,0.64674,0.75500,3.04900,-5.09613,-0.05726,-0.32315,-0.88699,0.32486,-19.61230,14.51402,13.05334
-0.30743,1.75654,0.04361,0.24278,-0.28217,0.86710,3.51890,-0.74871,0.73722,-0.04777,3.76213,-4.44196,-0.04447,-0.30988,-0.89045,0.33030,-23.85295,1.82367,10.16627
-0.30499,1.75649,0.05200,0.22647,-0.21685,0.80550,3.05588,-0.93457,0.77815,-1.83653,4.35660,-3.30491,-0.02944,-0.30411,-0.89229,0.33237,-29.18555,-11.44406,-1.96752
-0.30390,1.75693,0.06067,0.19089,-0.15787,0.76237,2.75373,-1.21133,0.97047,-3.60091,4.21781,-2.65906,-0.00879,-0.29829,-0.89291,0.33713,-23.92536,-20.39819,3.80084
-0.30406,1.75741,0.06934,0.14346,-0.11306,0.72972,2.61043,-1.52600,1.29009,-4.62563,3.54656,-2.52775,0.01729,-0.29129,-0.89190,0.34548,-15.14584,-27.93627,17.43758
-0.30679,1.75875,0.07692,0.06398,-0.06457,0.68646,2.46825,-2.09006,1.59057,-5.08985,2.49863,-2.88315,0.05208,-0.28787,-0.88912,0.35198,-8.05143,-37.26155,15.57782
-0.30989,1.75944,0.08419,-0.00284,-0.03818,0.64807,2.34714,-2.60559,1.56959,-5.35191,1.80524,-3.57328,0.08645,-0.28514,-0.88775,0.35089,-5.67892,-41.89114,-0.27692
-0.31488,1.76032,0.08993,-0.08437,-0.01506,0.59390,2.19755,-3.26392,1.26874,-5.70178,1.46242,-4.27850,0.12463,-0.28644,-0.88730,0.33928,-2.82732,-43.54786,-24.51973
-0.32111,1.76129,0.09413,-0.16733,0.00442,0.52672,2.07828,-3.95009,0.86257,-5.95020,1.41198,-5.47721,0.16579,-0.28953,-0.88646,0.32075,1.54077,-44.96733,-36.07998
-0.32820,1.76261,0.09628,-0.24533,0.02502,0.44126,1.98601,-4.60277,0.46203,-5.32403,1.60942,-6.89106,0.20921,-0.29363,-0.88381,0.29815,3.88858,-43.64237,-35.39894
-0.33574,1.76438,0.09605,-0.31271,0.04844,0.33631,1.91328,-5.17991,0.11751,-4.68659,1.82393,-8.33028,0.25384,-0.29812,-0.87865,0.27324,4.29185,-39.02289,-33.11625
-0.34334,1.76653,0.09304,-0.36558,0.07248,0.20993,1.87505,-5.68045,0.06585,-3.49240,1.74786,-9.88909,0.30136,-0.30118,-0.86863,0.25291,1.71085,-35.27409,-15.11735
-0.35014,1.76875,0.08825,-0.39290,0.09211,0.08544,1.83968,-6.04654,0.10450,-1.33483,1.60841,-11.08490,0.34851,-0.30303,-0.85541,0.23451,-2.81690,-33.34227,-0.59556
-0.35559,1.77177,0.07654,-0.39111,0.12046,-0.12614,1.81894,-6.45511,0.02433,2.19510,1.70862,-12.54345,0.39690,-0.30540,-0.83935,0.21141,-0.07416,-23.25364,-4.86760
-0.35837,1.77530,0.06437,-0.34546,0.15207,-0.30213,1.84815,-6.59304,-0.33376,4.65387,2.79161,-12.75337,0.43727,-0.30670,-0.82566,0.18173,10.49986,-10.87867,-20.90986
-0.35849,1.78006,0.04980,-0.26579,0.19688,-0.47689,1.79879,-6.64886,-0.43118,6.25459,3.82205,-12.80461,0.47631,-0.30751,-0.80865,0.15702,6.81507,-2.82123,-17.01214
-0.35573,1.78628,0.03297,-0.15625,0.25593,-0.64845,1.62475,-6.68867,-0.24459,8.88911,4.96766,-12.16479,0.51579,-0.30847,-0.78684,0.14033,-14.89851,-3.49971,7.37524
-0.34979,1.79453,0.01445,-0.01910,0.33525,-0.80805,1.31424,-6.74584,-0.12245,10.95756,6.43999,-11.15808,0.55358,-0.31324,-0.76149,0.12473,-21.26849,-4.11862,1.42656
-0.34018,1.80504,-0.00546,0.14763,0.43379,-0.95359,0.89115,-6.80174,-0.17854,13.56502,7.60655,-9.88604,0.58816,-0.32354,-0.73333,0.10780,-28.28596,-4.26267,-9.92346
-0.32650,1.81769,-0.02635,0.34356,0.54523,-1.08110,0.55744,-6.82226,-0.56206,15.33218,8.29248,-8.36163,0.61770,-0.33781,-0.70528,0.08316,-13.87650,-0.09672,-31.94019
-0.31015,1.83130,-0.04690,0.53507,0.64463,-1.17165,0.32358,-6.79821,-0.97582,17.16249,8.28386,-6.81442,0.64382,-0.35271,-0.67673,0.05581,-4.35037,1.39377,-39.67609
-0.28501,1.84812,-0.06860,0.82789,0.77396,-1.25966,0.06407,-6.63707,-1.48455,19.63915,8.13183,-4.30806,0.66338,-0.37150,-0.64898,0.02709,-1.03821,9.07554,-35.25723
-0.25667,1.86551,-0.08862,1.11017,0.88477,-1.30069,-0.25275,-6.37810,-1.88777,20.95367,7.94900,-1.99567,0.67859,-0.39209,-0.62111,0.00195,-2.67924,17.08517,-36.08712
-0.22331,1.88430,-0.10710,1.41018,0.99318,-1.30611,-0.73640,-6.00654,-2.26453,22.22098,7.87981,0.72803,0.68805,-0.41813,-0.59282,-0.01789,-16.90184,26.29979,-35.38578
-0.18520,1.90442,-0.12358,1.71960,1.09833,-1.27725,-1.32408,-5.51753,-2.79058,22.74601,7.28088,2.85280,0.68938,-0.45194,-0.56501,-0.03571,-18.90899,35.01697,-48.68113
-0.14217,1.92530,-0.13821,2.03897,1.19159,-1.22420,-1.89927,-4.97821,-3.45453,23.59854,6.06306,4.65694,0.68294,-0.49201,-0.53728,-0.05339,-19.85610,38.85096,-58.23217
-0.09657,1.94588,-0.15174,2.32180,1.25675,-1.16621,-2.17958,-4.50355,-4.16259,24.37517,4.65854,5.54059,0.67099,-0.53188,-0.51093,-0.07635,-2.38334,35.72013,-65.85530
-0.04001,1.96662,-0.16256,2.72047,1.30903,-1.07730,-2.25664,-3.91794,-5.18128,26.16535,1.62290,6.00167,0.64607,-0.57688,-0.48826,-0.10681,19.18941,26.21021,-67.54424
0.02053,1.98497,-0.17259,3.09872,1.31033,-0.99421,-2.12004,-3.52310,-6.04529,28.37837,-1.42660,6.35767,0.61845,-0.61772,-0.46462,-0.14168,30.05961,15.33252,-60.34245
0.08813,2.00083,-0.18091,3.50652,1.26972,-0.90200,-1.88991,-3.22404,-6.98167,30.59291,-4.64322,6.94012,0.58292,-0.65877,-0.43941,-0.18208,35.55410,2.78612,-61.18174
0.16665,2.01203,-0.18625,4.00963,1.15849,-0.77939,-1.76189,-2.92252,-8.10862,33.02194,-9.44351,8.43684,0.53523,-0.70366,-0.40990,-0.22446,26.88623,3.72173,-66.74911
0.24940,2.01885,-0.18962,4.47322,0.99733,-0.65041,-1.60630,-2.78879,-9.24319,33.97567,-14.25250,10.58291,0.47934,-0.74631,-0.37433,-0.27043,21.82658,-8.57896,-78.20137
0.33223,2.02311,-0.19206,4.81486,0.83692,-0.54024,-1.31277,-2.75571,-10.10150,36.57623,-19.00412,12.64638,0.41903,-0.78052,-0.33762,-0.31813,33.02940,-12.92976,-70.47182
0.43918,2.00936,-0.18448,5.47482,0.40971,-0.28772,-0.55535,-2.88318,-12.49460,38.56672,-31.40871,16.39088,0.31111,-0.81585,-0.28888,-0.39262,44.32475,-46.59779,-118.19350
0.54502,1.98439,-0.17385,5.98140,-0.12009,-0.03610,-0.09569,-2.90948,-14.78687,34.19870,-46.88022,19.38426,0.18586,-0.83945,-0.22745,-0.45721,41.27657,-50.23185,-158.44230
0.65215,1.93592,-0.15688,6.38629,-0.92741,0.26383,0.36532,-2.38790,-17.10851,21.65066,-69.71819,22.37527,0.03483,-0.84846,-0.16155,-0.50280,59.78828,-23.91896,-162.99070
0.74940,1.86695,-0.13615,6.52634,-1.87447,0.55120,1.28180,-1.70637,-18.73015,-0.09140,-88.01038,24.18826,-0.12205,-0.83173,-0.10665,-0.53100,86.02418,-31.75937,-138.25480
0.82482,1.76324,-0.10891,6.26084,-3.15895,0.87364,3.03336,-0.40021,-19.43055,-38.25854,-91.03059,19.54601,-0.28226,-0.79511,-0.08405,-0.53016,121.65760,-68.20396,-85.04806
0.85658,1.63897,-0.08218,5.31681,-4.49947,1.11412,5.74950,0.46203,-17.88928,-76.31432,-69.26957,9.61666,-0.40399,-0.74509,-0.11931,-0.51710,130.84540,-142.53430,49.60698
0.86922,1.54013,-0.06399,4.31965,-5.17737,1.15791,7.62246,0.32192,-15.54210,-86.58608,-42.91690,-2.53069,-0.48669,-0.69075,-0.16405,-0.50900,49.27436,-199.72060,110.54710
0.85748,1.44863,-0.05279,3.14262,-5.59474,1.06183,11.16816,0.94575,-12.66598,-79.57079,-19.45563,-16.43253,-0.57180,-0.62762,-0.26877,-0.45487,109.25420,-246.93150,116.94860
0.84071,1.36802,-0.04991,2.12797,-5.70715,0.83741,15.91195,1.81689,-10.15826,-66.57301,2.30799,-18.25935,-0.66332,-0.52801,-0.40393,-0.34358,278.75220,-292.02730,24.34122
0.81971,1.29811,-0.05309,1.29360,-5.54102,0.58954,18.12529,1.57391,-8.31763,-55.07978,18.37793,-7.18959,-0.71710,-0.41947,-0.49767,-0.24927,197.83160,-228.46080,-6.22863
0.80274,1.24799,-0.05059,0.72270,-5.08479,0.49722,11.92584,-0.92032,-6.17918,-24.60863,35.55965,13.00444,-0.68074,-0.42630,-0.49901,-0.32534,-257.79340,-97.21322,-58.17652
0.79160,1.21125,-0.04352,0.37047,-4.51362,0.49959,-0.52784,-1.94461,-6.93509,-17.26491,40.79422,-7.92607,-0.60117,-0.50502,-0.31409,-0.53375,-822.15000,272.24660,-205.04810
0.78266,1.17490,-0.03816,0.13406,-4.05103,0.46479,-5.46778,-0.95218,-5.87777,-13.76109,30.85144,-7.91914,-0.54174,-0.54983,-0.20053,-0.60331,-382.30380,232.32240,-11.11347
0.77428,1.13696,-0.03514,-0.03430,-3.72684,0.39854,-6.78048,-0.19436,-5.09376,-9.67605,21.24487,-11.30193,-0.51133,-0.56521,-0.13168,-0.63382,-150.91510,127.09520,8.85140
0.76482,1.09733,-0.03377,-0.18320,-3.51513,0.32327,-3.98342,-0.02138,-3.22642,-10.62688,12.21668,-7.42408,-0.52237,-0.57214,-0.16126,-0.61137,150.10080,32.92512,113.84730
0.75227,1.05470,-0.03199,-0.34921,-3.40543,0.27543,-0.69254,-0.59330,-2.00672,-14.00225,4.99307,-1.12839,-0.55051,-0.55527,-0.22054,-0.58308,247.38130,-58.84158,121.85510
0.73628,1.01019,-0.02936,-0.53401,-3.35313,0.25254,1.61105,-1.37154,-1.64920,-14.50211,2.48481,-0.06078,-0.57999,-0.52161,-0.27018,-0.56439,172.91590,-77.30872,46.02058
0.71718,0.96545,-0.02670,-0.72734,-3.31720,0.23648,2.85062,-2.16582,-1.83515,-14.53334,2.73266,-0.21688,-0.60516,-0.47880,-0.30514,-0.55805,103.40500,-69.75385,-1.87984
0.69506,0.92242,-0.02495,-0.92144,-3.25805,0.20775,3.34935,-2.75061,-2.14447,-13.50457,5.47515,-2.19418,-0.62442,-0.43585,-0.32851,-0.55876,43.25955,-48.27838,-25.57651
0.67274,0.88170,-0.02447,-1.07181,-3.17717,0.16646,3.37682,-2.98296,-2.43213,-11.83728,7.83690,-3.47246,-0.63961,-0.39804,-0.34150,-0.56200,15.67684,-26.90770,-25.20744
0.64798,0.84663,-0.02688,-1.22739,-3.02125,0.08662,2.80276,-2.74625,-2.90053,-7.99763,11.22070,-5.08494,-0.65216,-0.36811,-0.33450,-0.57209,-20.80917,16.02012,-30.26607
0.62629,0.81341,-0.02990,-1.29674,-2.87298,0.01555,1.99255,-2.08338,-3.25560,-4.16894,13.11546,-5.57252,-0.66268,-0.35031,-0.31369,-0.58287,-43.18182,54.98999,-30.43122
0.60604,0.78542,-0.03498,-1.32487,-2.67576,-0.07110,0.74922,-0.77286,-3.69604,-0.57491,14.79331,-5.82512,-0.67169,-0.34918,-0.26611,-0.59674,-60.01126,102.41460,-29.47985
0.58829,0.76269,-0.04142,-1.30709,-2.43455,-0.16089,-0.57105,0.98458,-4.07996,2.85890,15.57019,-5.50850,-0.67884,-0.36179,-0.19821,-0.60745,-60.17201,132.11660,-29.16426
0.57154,0.73992,-0.04678,-1.27822,-2.25080,-0.21277,-1.03526,1.93258,-4.04031,3.52710,15.76999,-4.69413,-0.68597,-0.36822,-0.15058,-0.60925,-31.24900,106.95060,-9.86204
0.55517,0.72012,-0.05203,-1.25077,-2.06659,-0.24949,-1.06492,2.38248,-3.74324,2.82058,15.57991,-3.08407,-0.69297,-0.37277,-0.11717,-0.60589,2.35467,57.22797,15.12504
0.54010,0.70957,-0.05672,-1.20967,-1.76693,-0.26802,-0.69424,2.27678,-2.97063,2.51729,14.64273,0.32852,-0.69859,-0.37810,-0.10730,-0.59791,22.54203,-5.95416,35.39389
0.52464,0.69502,-0.05931,-1.18474,-1.59611,-0.24835,-0.37261,1.82542,-2.40571,2.22740,14.07592,2.34558,-0.70320,-0.37594,-0.10480,-0.59430,26.75883,-32.36097,43.16842
0.50974,0.68555,-0.05982,-1.15635,-1.38000,-0.19798,-0.19240,1.24877,-1.82333,0.99368,13.15946,4.34275,-0.70416,-0.37329,-0.10944,-0.59400,16.61874,-42.62141,41.38634
0.49460,0.67667,-0.05948,-1.13961,-1.20165,-0.14480,-0.42554,1.03243,-1.69403,0.49215,12.75676,4.12361,-0.70280,-0.36965,-0.09950,-0.59961,-11.98892,-18.11529,16.75344
0.47931,0.66862,-0.05909,-1.12956,-1.05463,-0.10423,-0.74658,0.98879,-1.76163,0.88207,11.97134,3.19562,-0.70079,-0.36506,-0.08238,-0.60732,-26.06778,-3.86720,0.54293
0.46508,0.66313,-0.05813,-1.10408,-0.90187,-0.06436,-1.00438,0.94346,-1.84220,2.98196,10.15665,2.20644,-0.69846,-0.35944,-0.06462,-0.61546,-23.45513,0.68780,-6.89397
0.45322,0.65933,-0.05714,-1.04397,-0.75385,-0.03317,-0.89808,0.71523,-1.68755,4.91758,8.60370,1.12387,-0.69876,-0.35385,-0.05797,-0.61900,0.86259,-11.87441,6.88456
0.44230,0.65456,-0.05654,-0.98247,-0.65687,-0.01529,-0.65338,0.48818,-1.47734,5.54983,7.83680,1.59068,-0.70110,-0.34877,-0.05617,-0.61940,17.92723,-20.50246,17.58294
0.43349,0.65202,-0.05521,-0.90141,-0.54687,0.01022,-0.48494,0.28667,-1.26732,6.09078,8.20765,2.37706,-0.70261,-0.34427,-0.05588,-0.62023,15.38198,-17.07055,16.15859
0.42635,0.65161,-0.05327,-0.81138,-0.42680,0.04071,-0.55594,0.20414,-1.08007,6.76937,8.77392,2.62010,-0.70029,-0.34209,-0.05240,-0.62436,-0.79355,-8.46501,14.48650
0.42124,0.65273,-0.05082,-0.70833,-0.30979,0.07243,-0.76181,0.22380,-0.89871,8.08979,7.78340,2.36401,-0.69481,-0.34255,-0.04613,-0.63069,-14.35642,1.78963,12.65878
0.41852,0.65436,-0.04803,-0.58963,-0.21148,0.10219,-0.93719,0.25334,-0.68989,9.02799,6.51427,1.58896,-0.68819,-0.34475,-0.04065,-0.63709,-13.65975,4.42385,14.19660
0.41797,0.65659,-0.04562,-0.46318,-0.12579,0.11878,-0.91467,0.20035,-0.37414,9.26758,5.90756,0.46362,-0.68279,-0.34848,-0.04131,-0.64082,-2.82668,-0.74381,20.06024
0.41903,0.65953,-0.04369,-0.33956,-0.04813,0.12354,-0.79797,0.15092,-0.06670,8.48183,5.37900,0.21972,-0.67861,-0.35321,-0.04466,-0.64245,8.60578,-4.52864,24.58306
0.42214,0.66352,-0.04198,-0.20791,0.03021,0.12355,-0.73435,0.23932,0.11186,7.83169,4.76350,0.16521,-0.67472,-0.35905,-0.04404,-0.64335,5.46791,4.54955,12.86727
0.42548,0.66758,-0.04019,-0.10122,0.09245,0.12485,-0.76904,0.39824,0.12936,7.34865,4.34079,0.28252,-0.67060,-0.36423,-0.03841,-0.64510,-0.49880,11.08682,2.89596
0.42992,0.67215,-0.03826,-0.00089,0.14861,0.12819,-0.80213,0.47946,0.10415,7.15250,3.83042,0.05991,-0.66660,-0.36793,-0.03266,-0.64746,-4.72726,9.19378,-1.80457
0.43566,0.67726,-0.03609,0.09738,0.20065,0.13507,-0.72906,0.36314,0.14371,7.41206,3.84285,0.43817,-0.66366,-0.36932,-0.03255,-0.64969,3.41506,-4.17568,0.26913
0.44299,0.68369,-0.03368,0.19941,0.26315,0.14403,-0.61710,0.10438,0.31370,7.61640,5.04623,0.47801,-0.66015,-0.37016,-0.03912,-0.65243,8.77515,-16.75132,10.30953
0.45116,0.69135,-0.03147,0.28988,0.33036,0.14746,-0.54111,-0.13133,0.56417,7.87463,5.97393,0.10399,-0.65498,-0.37259,-0.04883,-0.65558,7.21214,-18.84010,18.09245
0.46255,0.70210,-0.02961,0.41357,0.43392,0.14432,-0.44259,-0.36267,1.00448,7.72233,6.87970,-0.37541,-0.64762,-0.37874,-0.06486,-0.65798,7.22624,-15.52686,27.55230
0.47435,0.71386,-0.02829,0.51736,0.53210,0.13274,-0.42561,-0.38799,1.36493,7.08815,7.26473,-0.95188,-0.63890,-0.38815,-0.07761,-0.65964,2.20505,-4.85921,27.63116
0.48708,0.72717,-0.02768,0.61195,0.63310,0.11197,-0.48044,-0.24672,1.64713,6.40366,7.28318,-1.56021,-0.62885,-0.40077,-0.08657,-0.66064,-3.97748,8.21248,20.76543
0.50046,0.74178,-0.02761,0.69479,0.73201,0.08720,-0.56151,-0.01944,1.87890,5.32903,7.07221,-1.77824,-0.61787,-0.41595,-0.09311,-0.66072,-6.89988,14.57463,17.48594
0.51396,0.75772,-0.02817,0.76019,0.83052,0.05775,-0.73089,0.29488,2.02536,4.01534,7.26234,-2.19485,-0.60523,-0.43334,-0.09516,-0.66096,-12.36502,19.82012,10.87291
0.52738,0.77513,-0.02949,0.80846,0.93048,0.02226,-0.94089,0.63268,2.16231,2.92263,7.02204,-2.73098,-0.59061,-0.45303,-0.09483,-0.66102,-18.10179,22.70083,9.03754
0.54035,0.79341,-0.03155,0.83884,1.02336,-0.01668,-1.13485,0.95249,2.29249,1.44724,6.44294,-2.93205,-0.57476,-0.47424,-0.09342,-0.66032,-17.03852,21.99893,9.11271
0.55242,0.81189,-0.03406,0.84642,1.09656,-0.05341,-1.29716,1.19629,2.36444,-0.25504,6.02001,-3.29822,-0.55860,-0.49480,-0.09119,-0.65942,-16.42886,19.43551,7.00367
0.56294,0.83228,-0.03818,0.82603,1.18421,-0.10861,-1.52024,1.49003,2.36123,-2.21096,5.02382,-3.54150,-0.54112,-0.51631,-0.08454,-0.65838,-16.13671,16.76633,0.45149
0.57176,0.85236,-0.04297,0.78156,1.25099,-0.16291,-1.71729,1.72202,2.30971,-3.41272,3.58889,-3.37704,-0.52357,-0.53670,-0.07660,-0.65724,-14.90864,13.50978,-2.91984
0.57986,0.87171,-0.04760,0.73461,1.28806,-0.20238,-1.82990,1.84961,2.25684,-4.43310,2.78156,-3.35670,-0.50658,-0.55552,-0.06971,-0.65568,-12.42041,9.52072,-4.03494
0.58534,0.89152,-0.05345,0.65379,1.32335,-0.25334,-1.97478,1.96503,2.15849,-5.69257,1.70550,-3.03983,-0.48904,-0.57353,-0.06054,-0.65440,-9.65910,6.10068,-5.14964
0.58953,0.91049,-0.05944,0.56923,1.33919,-0.29457,-2.12576,2.03188,2.04687,-6.44938,0.69217,-2.89918,-0.47095,-0.59028,-0.05039,-0.65363,-12.54201,2.84775,-6.92731
0.59272,0.92897,-0.06551,0.48897,1.34159,-0.32718,-2.23006,2.05340,1.96048,-6.95787,-0.21946,-2.64740,-0.45275,-0.60608,-0.04067,-0.65271,-10.70546,0.98430,-6.43730
0.59282,0.94654,-0.07235,0.37491,1.32690,-0.36507,-2.35489,2.04748,1.83914,-7.37731,-1.57798,-2.23226,-0.43428,-0.62035,-0.02940,-0.65245,-9.25152,-1.93655,-6.19261
0.59199,0.96297,-0.07915,0.27065,1.29613,-0.39347,-2.41477,2.00428,1.72427,-7.62880,-2.77118,-1.95684,-0.41662,-0.63325,-0.01883,-0.65197,-6.20417,-3.98630,-6.44585
0.59045,0.97847,-0.08589,0.18052,1.25653,-0.41401,-2.40678,1.95058,1.62353,-7.53860,-3.84205,-1.51185,-0.40008,-0.64521,-0.00915,-0.65082,-0.94093,-4.94655,-7.36575
0.58618,0.99172,-0.09273,0.06556,1.18679,-0.43130,-2.33626,1.85627,1.44695,-7.10053,-4.91909,-0.84686,-0.38640,-0.65462,0.00065,-0.64974,2.41216,-6.96778,-9.97519
0.58152,1.00394,-0.09916,-0.03019,1.11448,-0.43770,-2.21837,1.74041,1.26717,-6.70332,-5.45304,-0.21074,-0.37467,-0.66254,0.00960,-0.64851,6.90264,-8.77626,-12.51382
0.57651,1.01548,-0.10521,-0.10787,1.04882,-0.43618,-2.08259,1.62016,1.11801,-6.35268,-5.52803,0.35604,-0.36412,-0.66953,0.01752,-0.64718,9.96586,-10.18751,-12.37181
0.56981,1.02556,-0.11087,-0.19410,0.97443,-0.42877,-1.95735,1.47497,0.96489,-6.03640,-5.12745,0.75519,-0.35483,-0.67488,0.02511,-0.64653,10.03669,-11.09800,-11.47273
