posX, posY, posZ, velX, velY, velZ, angVelX, angVelY, angVelZ, accX, accY, accZ, rotX, rotY, rotZ, rotW, angAccX, angAccY, angAccZ
0.00417,1.26249,-0.40059,-0.13158,-0.03618,0.04266,-0.19626,-0.03044,0.33628,-0.06010,-0.63320,-0.26655,-0.43257,-0.80858,-0.29419,-0.26932,-2.81530,-1.14381,0.15045
0.00272,1.26126,-0.40044,-0.12955,-0.04492,0.03807,-0.15189,0.00941,0.32032,0.33319,-0.42927,-0.50006,-0.43150,-0.80964,-0.29425,-0.26780,0.39681,1.68240,-1.15279
0.00147,1.26028,-0.40026,-0.12325,-0.04943,0.03395,-0.05137,0.08067,0.29419,0.37547,-0.20479,-0.13228,-0.43190,-0.81015,-0.29546,-0.26423,7.55834,5.71996,-2.65293
0.00014,1.25944,-0.39995,-0.11929,-0.05124,0.03245,-0.04981,0.08885,0.28450,0.40555,-0.15671,0.15782,-0.43073,-0.81120,-0.29530,-0.26311,2.22407,2.30242,-0.83910
-0.00079,1.25859,-0.39940,-0.11040,-0.05273,0.03472,-0.08440,0.05103,0.24994,0.82174,-0.14734,0.26402,-0.42947,-0.81181,-0.29455,-0.26413,-2.45411,-2.25824,-1.14398
-0.00141,1.25776,-0.39865,-0.09771,-0.05394,0.03859,-0.08834,0.00009,0.19428,0.90589,0.02581,0.19613,-0.42904,-0.81153,-0.29452,-0.26571,-1.32042,-4.00369,-4.68975
-0.00104,1.25758,-0.39835,-0.08460,-0.05224,0.04070,-0.04591,-0.03802,0.14535,0.79870,0.27145,-0.07226,-0.42981,-0.81046,-0.29559,-0.26655,1.84794,-3.03347,-3.45809
-0.00070,1.25765,-0.39834,-0.07582,-0.04921,0.03989,0.00893,-0.03158,0.11887,0.90131,0.40760,-0.18940,-0.43064,-0.80986,-0.29646,-0.26605,4.96171,-1.08406,-2.28482
-0.00052,1.25770,-0.39828,-0.06086,-0.04047,0.03543,0.02929,-0.01787,0.08580,0.95911,0.67055,-0.26847,-0.43112,-0.80960,-0.29672,-0.26576,2.66371,0.88096,-2.16916
-0.00062,1.25777,-0.39820,-0.04898,-0.02836,0.02922,-0.02745,-0.01197,0.07854,0.80399,1.03283,-0.48165,-0.43070,-0.80998,-0.29603,-0.26606,-3.97754,0.83921,-1.10077
-0.00086,1.25792,-0.39806,-0.04012,-0.01470,0.02392,-0.03681,0.00892,0.08722,0.70368,1.32509,-0.52719,-0.43023,-0.81042,-0.29578,-0.26579,-2.69090,1.18620,0.23877
-0.00111,1.25846,-0.39798,-0.03129,0.00743,0.01683,-0.00320,0.03737,0.11793,0.43710,1.58506,-0.44757,-0.42934,-0.81113,-0.29611,-0.26469,1.80444,1.98353,1.48497
-0.00139,1.25975,-0.39801,-0.02579,0.03125,0.01051,0.04733,0.05728,0.15694,0.32187,1.88245,-0.41257,-0.42799,-0.81205,-0.29734,-0.26265,4.00935,1.56402,2.26482
-0.00186,1.26297,-0.39827,-0.02213,0.06250,0.00285,0.07919,0.06987,0.22255,0.12679,1.97266,-0.43546,-0.42483,-0.81399,-0.29967,-0.25910,2.73843,0.95163,4.31287
-0.00202,1.26570,-0.39881,-0.02109,0.08955,-0.00516,0.05496,0.07859,0.27893,-0.01468,1.83312,-0.61852,-0.42211,-0.81576,-0.30005,-0.25753,-0.67720,-0.05202,4.85686
-0.00220,1.26849,-0.39943,-0.02044,0.11169,-0.01273,0.04376,0.10713,0.31276,0.01908,1.93056,-0.70051,-0.41999,-0.81749,-0.30019,-0.25535,-2.35353,1.31566,2.74788
-0.00252,1.27197,-0.40020,-0.02161,0.13886,-0.02090,0.04273,0.14902,0.36401,-0.20485,1.98833,-0.46951,-0.41746,-0.81965,-0.30048,-0.25220,0.29675,3.43459,3.33306
-0.00309,1.27619,-0.40103,-0.02638,0.17176,-0.02772,0.00153,0.15459,0.44697,-0.31019,2.14608,-0.34547,-0.41306,-0.82257,-0.30041,-0.25001,-2.06607,0.67455,5.08313
-0.00380,1.28065,-0.40175,-0.03216,0.20188,-0.03198,-0.05552,0.14138,0.51062,-0.50545,2.14428,-0.17771,-0.40838,-0.82550,-0.29988,-0.24869,-3.30389,-0.20549,4.36782
-0.00470,1.28526,-0.40236,-0.03882,0.22763,-0.03421,-0.06961,0.14030,0.57265,-0.63529,2.25573,-0.32301,-0.40368,-0.82834,-0.30016,-0.24657,-4.20259,-1.83691,5.22130
-0.00591,1.29055,-0.40295,-0.04858,0.25747,-0.03578,-0.01325,0.16933,0.64206,-0.76970,2.17185,-0.08155,-0.39932,-0.83097,-0.30216,-0.24235,3.04480,1.67673,4.92540
-0.00738,1.29659,-0.40335,-0.06014,0.29218,-0.03424,0.04136,0.18074,0.73706,-0.68832,2.16364,0.32491,-0.39379,-0.83388,-0.30499,-0.23781,4.94029,1.99588,5.42182
-0.00896,1.30271,-0.40359,-0.07079,0.32154,-0.03093,0.01808,0.15019,0.83824,-0.75874,1.98355,0.27337,-0.38650,-0.83745,-0.30656,-0.23520,-1.45306,-2.33819,7.40281
-0.01064,1.30904,-0.40368,-0.07979,0.34711,-0.02628,0.04215,0.12830,0.92017,-0.60912,1.69126,0.27488,-0.37950,-0.84056,-0.30929,-0.23191,0.60763,-2.09132,6.15868
-0.01236,1.31529,-0.40376,-0.08772,0.36655,-0.02248,0.12202,0.13107,0.97527,-0.59265,1.15244,0.11854,-0.37350,-0.84299,-0.31339,-0.22730,4.55386,-0.17282,4.94357
-0.01396,1.32126,-0.40391,-0.09312,0.37892,-0.02019,0.24593,0.17715,0.99432,-0.32847,0.62005,0.13166,-0.36919,-0.84472,-0.31842,-0.22081,8.67701,3.43502,1.87149
-0.01546,1.32691,-0.40416,-0.09652,0.38424,-0.01965,0.30718,0.20633,0.98353,-0.27413,0.02224,0.06069,-0.36521,-0.84640,-0.32228,-0.21532,5.94967,2.66972,0.38797
-0.01694,1.33209,-0.40452,-0.09893,0.38186,-0.02085,0.31705,0.22513,0.95952,-0.09036,-0.48453,-0.07695,-0.36129,-0.84824,-0.32491,-0.21068,1.69518,1.77776,-1.26669
-0.01818,1.33671,-0.40489,-0.09718,0.37214,-0.02204,0.29126,0.23216,0.89585,0.33121,-0.92826,0.02286,-0.35837,-0.84980,-0.32630,-0.20722,-1.35555,0.85930,-4.29690
-0.01912,1.34101,-0.40520,-0.09176,0.35977,-0.02192,0.22898,0.21032,0.82073,0.53286,-1.21582,0.12252,-0.35556,-0.85130,-0.32660,-0.20541,-3.87206,-0.88197,-5.63682
-0.01983,1.34466,-0.40538,-0.08434,0.34116,-0.02019,0.12145,0.14838,0.73176,0.58766,-1.53430,0.23306,-0.35269,-0.85275,-0.32550,-0.20609,-6.76590,-3.87403,-6.22862
-0.02023,1.34752,-0.40540,-0.07380,0.31496,-0.01641,0.00642,0.06658,0.62733,0.73270,-1.80743,0.22448,-0.35022,-0.85387,-0.32373,-0.20844,-7.38689,-5.44254,-6.17493
-0.02054,1.35025,-0.40545,-0.06415,0.29176,-0.01397,-0.03495,0.03184,0.54218,0.80233,-2.03376,0.03650,-0.34850,-0.85464,-0.32308,-0.20920,-4.60075,-4.66214,-6.46012
-0.02048,1.35190,-0.40554,-0.05114,0.25836,-0.01252,-0.01309,0.05081,0.42441,0.74881,-2.07171,0.04077,-0.34925,-0.85451,-0.32312,-0.20841,0.83695,1.13045,-7.57309
-0.02047,1.35321,-0.40567,-0.04093,0.22557,-0.01197,-0.02946,0.05721,0.33211,0.62059,-1.99595,0.06785,-0.34954,-0.85474,-0.32231,-0.20820,-0.58569,0.59764,-5.67233
-0.02052,1.35453,-0.40582,-0.03345,0.19884,-0.01167,-0.06065,0.04880,0.27632,0.49463,-1.93831,0.01703,-0.34896,-0.85532,-0.32127,-0.20845,-1.96366,-0.94658,-3.95839
-0.02053,1.35573,-0.40595,-0.02695,0.17636,-0.01115,-0.07905,0.05201,0.23103,0.59613,-1.79627,0.07785,-0.34858,-0.85587,-0.32028,-0.20833,-1.71967,0.03053,-3.97578
-0.02039,1.35633,-0.40594,-0.01928,0.14977,-0.00895,-0.14187,0.02265,0.18991,0.38948,-1.62211,0.30595,-0.34770,-0.85665,-0.31822,-0.20975,-3.05884,-0.78444,-2.79578
-0.02050,1.35705,-0.40582,-0.01668,0.12980,-0.00559,-0.20376,-0.03037,0.18035,0.10594,-1.21576,0.16456,-0.34566,-0.85762,-0.31633,-0.21197,-5.33677,-4.30325,-1.19717
-0.02076,1.35774,-0.40568,-0.01700,0.11347,-0.00257,-0.22828,-0.05390,0.19769,-0.09402,-1.08268,0.15191,-0.34326,-0.85877,-0.31512,-0.21305,-2.54488,-2.02433,0.95990
-0.02109,1.35854,-0.40558,-0.01827,0.10235,-0.00072,-0.21373,-0.05585,0.20895,-0.20454,-1.12421,0.09115,-0.34136,-0.85962,-0.31473,-0.21324,-0.07265,-1.65648,1.48783
-0.02148,1.35862,-0.40542,-0.01994,0.08338,0.00163,-0.13732,-0.02108,0.19686,-0.04698,-1.21405,0.08671,-0.34099,-0.85978,-0.31569,-0.21179,4.13610,1.88437,-0.54772
-0.02136,1.35742,-0.40526,-0.01914,0.06670,0.00466,-0.00736,0.04464,0.15586,0.03467,-1.17373,0.21831,-0.34359,-0.85849,-0.31792,-0.20945,8.08627,4.12568,-2.43170
-0.02152,1.35744,-0.40497,-0.01762,0.05110,0.00941,0.10282,0.08141,0.10733,0.21552,-1.12006,0.57921,-0.34486,-0.85774,-0.31987,-0.20746,10.01406,4.73194,-3.45294
-0.02150,1.35718,-0.40467,-0.01542,0.03924,0.01523,0.10209,0.03854,0.07884,0.16725,-0.73462,0.52716,-0.34503,-0.85737,-0.32028,-0.20806,2.17925,-1.93091,-3.05427
-0.02163,1.35719,-0.40438,-0.01559,0.03109,0.01997,0.05009,-0.03762,0.09024,-0.03973,-0.50486,0.24928,-0.34409,-0.85745,-0.32036,-0.20916,-3.38176,-5.32883,0.10445
-0.02189,1.35736,-0.40401,-0.01636,0.02407,0.02212,0.02431,-0.06196,0.09227,-0.13837,-0.48740,-0.00818,-0.34324,-0.85758,-0.32061,-0.20964,-3.52496,-3.24927,0.77900
-0.02215,1.35740,-0.40371,-0.01735,0.01628,0.02259,0.01768,-0.05149,0.08782,-0.05761,-0.38585,-0.03714,-0.34274,-0.85770,-0.32083,-0.20965,-0.27073,0.71325,-0.77232
-0.02254,1.35750,-0.40338,-0.01956,0.01066,0.02014,-0.03074,-0.05040,0.10367,-0.13136,-0.33095,-0.22047,-0.34148,-0.85823,-0.32055,-0.20995,-3.44165,-0.23293,0.99720
-0.02271,1.35746,-0.40323,-0.01871,0.00615,0.01821,-0.03791,-0.02790,0.09555,0.14511,-0.38199,-0.09985,-0.34107,-0.85851,-0.32033,-0.20983,-1.42778,1.70198,0.53268
-0.02270,1.35736,-0.40315,-0.01586,0.00108,0.01873,-0.01469,-0.01135,0.06621,0.24364,-0.41196,0.08809,-0.34130,-0.85842,-0.32041,-0.20967,1.14238,1.48688,-2.02820
-0.02283,1.35729,-0.40289,-0.01169,-0.00345,0.02070,0.04322,0.00409,0.02975,0.32978,-0.24053,0.15389,-0.34151,-0.85824,-0.32084,-0.20940,3.88337,1.35468,-2.76495
-0.02305,1.35719,-0.40241,-0.00793,-0.00583,0.02256,0.07684,0.00613,0.01321,0.27172,-0.13533,0.13252,-0.34169,-0.85799,-0.32159,-0.20902,2.94129,0.07928,-2.01580
-0.02316,1.35709,-0.40202,-0.00447,-0.00748,0.02367,0.06775,-0.02561,-0.00499,0.21331,-0.11643,0.10274,-0.34178,-0.85771,-0.32208,-0.20924,-0.33040,-1.71443,-0.89102
-0.02321,1.35698,-0.40168,-0.00283,-0.00845,0.02440,0.06402,-0.04241,-0.01547,0.07453,0.00518,-0.04471,-0.34189,-0.85744,-0.32252,-0.20952,-0.76264,-2.27394,-1.48307
-0.02329,1.35689,-0.40138,-0.00267,-0.00818,0.02213,0.07362,-0.03034,-0.01153,-0.05801,0.08389,-0.32912,-0.34199,-0.85721,-0.32305,-0.20947,0.54949,0.05032,0.69323
-0.02338,1.35680,-0.40113,-0.00300,-0.00726,0.01800,0.09365,0.02238,-0.00617,-0.01258,0.03837,-0.22743,-0.34237,-0.85703,-0.32364,-0.20866,1.89426,4.25495,0.38023
-0.02345,1.35678,-0.40104,-0.00334,-0.00593,0.01514,0.06827,0.02920,-0.00252,-0.00610,0.14620,-0.07197,-0.34245,-0.85704,-0.32366,-0.20846,-1.31598,0.80079,-0.02985
-0.02356,1.35682,-0.40095,-0.00525,-0.00237,0.01407,0.01885,0.00785,0.02612,-0.16180,0.24374,-0.05723,-0.34222,-0.85715,-0.32358,-0.20850,-2.47565,-0.91524,1.36450
-0.02373,1.35685,-0.40073,-0.00766,0.00051,0.01240,-0.03837,-0.00918,0.04891,-0.27308,0.19733,-0.16227,-0.34167,-0.85744,-0.32334,-0.20859,-4.47065,-2.01573,3.11846
-0.02404,1.35696,-0.40050,-0.01094,0.00295,0.01077,-0.07453,-0.00893,0.05735,-0.25325,0.16627,-0.10546,-0.34089,-0.85794,-0.32270,-0.20879,-3.27164,-0.05278,1.07330
-0.02443,1.35713,-0.40024,-0.01458,0.00552,0.01199,-0.06531,-0.00460,0.06309,-0.17964,0.14575,0.18641,-0.34026,-0.85833,-0.32233,-0.20878,0.38951,0.71493,0.00168
-0.02462,1.35723,-0.40007,-0.01689,0.00732,0.01465,-0.03470,-0.00542,0.05843,-0.19085,0.20630,0.15263,-0.34010,-0.85836,-0.32247,-0.20874,1.64789,-1.18958,-0.33397
-0.02503,1.35748,-0.39972,-0.02024,0.01195,0.01792,0.03601,0.01294,0.05427,-0.30212,0.33412,0.22321,-0.33993,-0.85832,-0.32308,-0.20820,4.81133,1.59982,0.08184
-0.02569,1.35791,-0.39922,-0.02551,0.01647,0.02060,0.06403,0.00353,0.07545,-0.32737,0.31921,0.22190,-0.33930,-0.85836,-0.32404,-0.20761,2.32875,-0.06394,1.07705
-0.02642,1.35849,-0.39864,-0.02911,0.02170,0.02358,0.09079,-0.00003,0.08860,-0.17895,0.38492,0.22462,-0.33864,-0.85831,-0.32530,-0.20689,2.07066,-0.55240,0.95517
-0.02726,1.35924,-0.39796,-0.03195,0.02687,0.02668,0.11246,-0.01740,0.10152,-0.17736,0.35722,0.21122,-0.33776,-0.85817,-0.32692,-0.20636,1.34100,-1.00549,1.17810
-0.02824,1.36019,-0.39717,-0.03449,0.03199,0.02914,0.14497,-0.03222,0.11742,-0.13813,0.35727,0.09371,-0.33664,-0.85787,-0.32930,-0.20564,2.02139,-0.91416,1.25369
-0.02890,1.36104,-0.39672,-0.03604,0.03788,0.02898,0.15160,-0.02544,0.11512,-0.16442,0.46625,-0.06273,-0.33619,-0.85771,-0.33062,-0.20496,1.47146,0.24282,-0.20086
-0.02943,1.36175,-0.39657,-0.03910,0.04464,0.02677,0.11002,-0.03417,0.12604,-0.26005,0.59440,-0.16717,-0.33534,-0.85803,-0.33054,-0.20512,-1.44214,0.13622,0.00703
-0.03025,1.36290,-0.39642,-0.04337,0.05417,0.02265,0.02399,-0.05340,0.15049,-0.24660,0.76924,-0.34639,-0.33346,-0.85890,-0.32975,-0.20582,-6.76434,-2.09816,2.04241
-0.03118,1.36477,-0.39620,-0.04447,0.06829,0.01902,-0.01398,-0.03881,0.16273,0.02154,1.09610,-0.20110,-0.33166,-0.85979,-0.32934,-0.20565,-3.54962,0.45535,0.85735
-0.03192,1.36684,-0.39590,-0.04410,0.08334,0.01885,0.03125,-0.00575,0.17762,0.02912,1.61628,-0.04052,-0.33056,-0.86013,-0.33055,-0.20406,1.39854,2.05649,0.87565
-0.03285,1.37021,-0.39541,-0.04430,0.10746,0.02037,0.13692,0.06252,0.22184,-0.06683,2.61642,0.12250,-0.32927,-0.86037,-0.33389,-0.19965,7.65412,4.31793,2.40557
-0.03400,1.37529,-0.39474,-0.05169,0.15878,0.02589,0.26671,0.13502,0.37302,-0.76196,3.94572,0.67808,-0.32556,-0.86131,-0.33900,-0.19295,9.37693,6.02650,7.84147
-0.03584,1.38182,-0.39359,-0.06723,0.22135,0.03747,0.33561,0.12792,0.54438,-1.29262,5.01588,1.15317,-0.31930,-0.86273,-0.34406,-0.18806,5.23882,0.30239,12.79404
-0.03825,1.39025,-0.39176,-0.08806,0.29906,0.05641,0.43852,0.08418,0.69363,-1.66170,6.31945,1.51097,-0.31250,-0.86338,-0.35099,-0.18364,6.36410,-2.98155,10.67993
-0.04138,1.40125,-0.38935,-0.11395,0.39690,0.07915,0.64482,0.06101,0.85254,-2.17014,7.93280,1.46444,-0.30539,-0.86291,-0.36165,-0.17701,12.56511,-2.95288,10.64394
-0.04615,1.41618,-0.38652,-0.15822,0.53343,0.10320,0.93457,0.13578,1.14934,-3.21123,9.43118,1.44921,-0.29516,-0.86293,-0.37586,-0.16422,19.23126,4.76785,16.51896
-0.05191,1.43310,-0.38389,-0.20991,0.67441,0.12009,1.07841,0.16776,1.52866,-4.04856,10.88440,1.19244,-0.27985,-0.86480,-0.38843,-0.15141,13.09127,3.40541,24.97106
-0.05954,1.45323,-0.38137,-0.27973,0.83357,0.13245,1.18069,0.20456,2.05940,-5.89735,12.13574,0.63481,-0.25757,-0.86839,-0.40149,-0.13553,6.40223,-1.58159,34.90038
-0.06983,1.47613,-0.37881,-0.37475,1.00112,0.14275,1.34242,0.31233,2.72871,-7.50504,12.03475,0.76365,-0.22910,-0.87236,-0.41678,-0.11310,11.59400,6.12686,45.88517
-0.08148,1.49967,-0.37628,-0.46914,1.14198,0.15062,1.42235,0.36385,3.33019,-8.21567,11.54687,0.72960,-0.19727,-0.87597,-0.43072,-0.09079,9.73910,2.55310,50.45013
-0.09743,1.52771,-0.37346,-0.60658,1.31815,0.16094,1.47026,0.42788,4.10888,-9.25834,10.40367,0.58132,-0.15603,-0.87996,-0.44416,-0.06356,3.63992,-1.22273,48.95820
-0.11240,1.55271,-0.37076,-0.70045,1.41343,0.16735,1.53061,0.52950,4.56956,-9.84635,8.75098,0.43727,-0.12001,-0.88095,-0.45628,-0.03643,5.14727,2.75811,48.22403
-0.13188,1.58011,-0.36785,-0.83674,1.52162,0.17549,1.60217,0.76837,5.13914,-9.98025,6.57076,0.71424,-0.07937,-0.88063,-0.46711,-0.00082,3.05849,12.36284,44.41843
-0.15348,1.60670,-0.36452,-0.97366,1.59352,0.18700,1.51211,0.77224,5.56857,-9.36096,3.29917,1.49298,-0.03620,-0.87955,-0.47361,0.02792,-2.19838,5.01873,36.01387
-0.17636,1.63194,-0.36067,-1.10164,1.63398,0.20364,1.28189,0.41949,5.81055,-8.81163,2.06594,1.45256,0.00937,-0.87827,-0.47616,0.04284,-5.23804,-27.72876,17.39096
-0.20035,1.65583,-0.35674,-1.22157,1.64897,0.21839,1.11303,0.04585,5.97292,-8.54143,0.01476,0.50130,0.05523,-0.87482,-0.47820,0.05443,0.76468,-34.79854,10.61049
-0.22531,1.67838,-0.35302,-1.32966,1.64022,0.22732,1.05817,0.02929,6.07147,-7.56661,-1.17277,0.14704,0.09545,-0.86860,-0.48044,0.07480,-1.07479,-12.14175,6.61330
-0.25056,1.69964,-0.34925,-1.42127,1.61630,0.23546,1.03715,0.27271,6.12499,-6.14092,-2.30372,0.66653,0.13029,-0.86035,-0.48191,0.10293,-7.51607,12.25525,6.28801
-0.27597,1.71947,-0.34473,-1.49895,1.57857,0.25283,1.01839,0.56200,6.14747,-5.00460,-3.24184,1.84858,0.16247,-0.85026,-0.48253,0.13350,-10.79508,19.30921,3.84020
-0.30199,1.73750,-0.33895,-1.56931,1.52014,0.28462,0.99578,0.41021,6.06622,-3.24876,-4.14411,2.72833,0.19776,-0.83982,-0.48259,0.15070,-1.81911,-2.22487,-2.85601
-0.32690,1.75469,-0.33267,-1.61141,1.46216,0.31765,1.07307,0.03917,5.86773,-2.35882,-4.49008,2.28206,0.23336,-0.82810,-0.48478,0.15741,12.59650,-26.51359,-9.07050
-0.35117,1.77086,-0.32611,-1.63881,1.40274,0.34846,1.18450,-0.04250,5.59368,-2.14413,-4.23208,1.67074,0.26164,-0.81495,-0.48902,0.16814,15.29445,-5.11934,-23.99643
-0.37744,1.78230,-0.31823,-1.69633,1.27102,0.39652,1.15177,0.43385,5.30592,-2.44364,-5.45872,1.61551,0.27979,-0.80157,-0.49187,0.19306,-8.96938,19.19307,-6.33371
-0.42727,1.81194,-0.30592,-1.73507,1.18937,0.41488,1.15060,0.51516,5.25717,-2.89806,-6.22312,1.31328,0.33535,-0.76982,-0.49156,0.23084,-6.36736,10.00173,-3.52538
-0.45492,1.82097,-0.29946,-1.78606,1.07953,0.42442,1.17447,0.46400,5.26305,-3.40693,-7.49212,-0.07384,0.36454,-0.75198,-0.49044,0.24719,4.93851,-2.32101,-1.30878
-0.48273,1.82865,-0.29388,-1.82981,0.97129,0.41950,1.04748,0.45166,5.31404,-2.84093,-8.26062,-0.75252,0.39306,-0.73489,-0.48443,0.26602,-6.33547,-2.86780,3.86988
-0.51024,1.83521,-0.28890,-1.86043,0.87112,0.40736,0.92760,0.32012,5.31843,-1.90395,-8.67253,-1.03603,0.42190,-0.71849,-0.47632,0.28087,-8.28937,-9.30615,2.61004
-0.53786,1.83892,-0.28456,-1.88407,0.75074,0.38834,0.88456,-0.02744,5.18554,-1.07597,-8.72770,-1.26820,0.45137,-0.70405,-0.46763,0.28619,3.03841,-21.84135,-7.84769
-0.56521,1.83957,-0.28076,-1.90091,0.60911,0.36535,1.00323,-0.52325,4.89708,-0.88480,-9.24123,-1.38583,0.48046,-0.69085,-0.46149,0.28092,16.54765,-26.10008,-19.17862
-0.59264,1.83863,-0.27693,-1.91263,0.47164,0.34601,1.19453,-0.85625,4.69094,-0.98118,-10.53281,-1.58436,0.50929,-0.67458,-0.45746,0.27622,23.36598,-20.79166,-18.89754
-0.61991,1.83605,-0.27325,-1.91862,0.34016,0.32868,1.25059,-0.92226,4.68018,-0.58428,-11.51490,-1.95346,0.53735,-0.65508,-0.45137,0.27997,13.92486,-7.32978,-6.27083
-0.64663,1.82788,-0.27058,-1.91669,0.15485,0.30057,1.13538,-0.90198,4.80142,0.60175,-11.88346,-1.91686,0.56518,-0.63462,-0.44038,0.28965,-7.13872,-1.19391,7.08793
-0.67232,1.81832,-0.26844,-1.90102,-0.01163,0.27233,1.07119,-0.91816,4.90889,1.75526,-11.80858,-1.93349,0.59306,-0.61283,-0.42888,0.29796,-6.40057,-2.76053,8.07945
-0.69747,1.80965,-0.26616,-1.88032,-0.12932,0.25173,1.06711,-0.95252,4.94386,2.58500,-11.64585,-1.89749,0.61991,-0.59044,-0.41803,0.30386,-1.71316,-4.31821,5.64503
-0.72010,1.79436,-0.26496,-1.82954,-0.31427,0.22083,1.17225,-0.98588,4.95094,3.82096,-11.42781,-1.80922,0.64650,-0.56599,-0.40928,0.30689,6.22399,-0.66995,0.48375
-0.74035,1.77769,-0.26432,-1.75694,-0.49265,0.18965,1.28255,-0.89657,4.96526,5.13603,-11.15390,-2.23749,0.67082,-0.53922,-0.40269,0.31158,7.75774,6.21377,1.01512
-0.75916,1.76081,-0.26422,-1.67520,-0.63980,0.15541,1.09368,-0.74322,5.04791,6.30466,-10.48176,-3.12106,0.69192,-0.51355,-0.39052,0.32404,-10.09007,8.65886,4.31159
-0.77617,1.74276,-0.26486,-1.58328,-0.77414,0.11550,0.67468,-0.67671,5.13927,7.16685,-9.23427,-2.97056,0.71062,-0.49117,-0.37088,0.34091,-30.46432,-5.52570,6.67440
-0.79129,1.72384,-0.26640,-1.48104,-0.89596,0.06910,0.49948,-0.77103,5.16476,8.04706,-8.10473,-3.07958,0.73090,-0.46832,-0.35145,0.35063,-18.35446,-11.28269,2.39827
-0.80442,1.70407,-0.26878,-1.36911,-1.00388,0.02011,0.67129,-0.92209,5.09856,8.56580,-7.14993,-3.33962,0.75317,-0.44317,-0.33691,0.35047,10.55739,-7.55169,-2.90858
-0.81494,1.68378,-0.27217,-1.24517,-1.09617,-0.03326,1.02872,-1.07249,4.97722,9.52523,-5.91697,-4.01600,0.77604,-0.41660,-0.32612,0.34329,26.51299,-0.48189,-6.01839
-0.82304,1.66349,-0.27656,-1.11084,-1.16813,-0.09015,1.36428,-1.18677,4.86967,9.71717,-4.51662,-4.30396,0.79832,-0.38904,-0.31569,0.33418,29.89111,0.70453,-6.91607
-0.82908,1.64377,-0.28174,-0.97446,-1.21787,-0.14684,1.39859,-1.31016,4.81459,9.91843,-3.08465,-4.57453,0.81784,-0.36380,-0.29962,0.33017,11.28675,-1.98341,-4.95389
-0.83274,1.62475,-0.28776,-0.83150,-1.24789,-0.20449,1.18352,-1.55916,4.84932,10.72988,-1.54681,-4.30949,0.83630,-0.34077,-0.27430,0.33051,-7.54804,-18.60867,-1.16781
-0.83379,1.60675,-0.29452,-0.67941,-1.25643,-0.26087,1.03744,-1.87385,4.91631,11.27035,0.65765,-3.43669,0.85542,-0.31683,-0.24503,0.32838,-0.21206,-31.26492,4.81707
-0.83391,1.59052,-0.30082,-0.54624,-1.23758,-0.29844,0.94492,-1.84846,4.78360,11.04643,2.69943,-2.45423,0.86874,-0.29455,-0.22577,0.32796,-8.61266,-7.27035,-8.69123
-0.83105,1.57692,-0.30748,-0.39989,-1.18629,-0.33356,0.96658,-1.74890,4.49771,10.13023,4.87862,-2.37453,0.87968,-0.27551,-0.21249,0.32419,-2.43986,10.88452,-18.01331
-0.82723,1.56611,-0.31429,-0.26865,-1.10648,-0.36391,0.99951,-1.73731,4.17092,9.19646,6.70952,-2.02882,0.88995,-0.25993,-0.19856,0.31780,6.26740,5.00914,-21.69916
-0.81964,1.56045,-0.32158,-0.10545,-0.96487,-0.39573,1.03284,-1.74393,3.74010,9.11522,8.98538,-1.81856,0.89854,-0.24932,-0.18587,0.30971,3.32523,2.88606,-24.98624
-0.81372,1.55490,-0.32846,0.00237,-0.84962,-0.41566,1.05547,-1.82519,3.49845,9.09344,10.39754,-1.51746,0.90808,-0.23619,-0.16940,0.30150,8.22075,-1.90398,-19.49092
-0.80408,1.55535,-0.33532,0.14212,-0.67043,-0.43132,1.01680,-1.94287,3.15298,8.43464,12.33471,-0.35895,0.91569,-0.22871,-0.15234,0.29326,4.12371,-7.47705,-21.37666
-0.79450,1.55813,-0.34137,0.25420,-0.49091,-0.43166,0.85720,-1.91092,2.76579,7.66878,13.40720,0.24385,0.92014,-0.22410,-0.13893,0.28953,-6.78655,4.65266,-30.28548
-0.78400,1.56481,-0.34680,0.35691,-0.29090,-0.42295,0.50668,-1.85167,2.28723,7.24107,15.19440,0.63282,0.92076,-0.22587,-0.12628,0.29196,-19.57260,2.91863,-36.10312
-0.77325,1.57368,-0.35204,0.44120,-0.10290,-0.41369,0.25171,-1.91955,1.87060,7.13162,16.43696,0.89413,0.92157,-0.22989,-0.11072,0.29258,-17.75448,-4.03981,-37.18752
-0.75965,1.59097,-0.35644,0.54908,0.16950,-0.39353,-0.04768,-1.99505,1.30778,6.32079,18.06798,1.72673,0.91950,-0.24169,-0.09585,0.29483,-14.38302,-7.87489,-35.74180
-0.74737,1.60845,-0.36043,0.61612,0.38915,-0.37188,-0.20017,-1.97305,0.75042,5.05803,19.08709,2.17505,0.91680,-0.25548,-0.08546,0.29480,-9.20420,-2.28400,-43.12389
-0.73480,1.63256,-0.36347,0.67290,0.65666,-0.34126,-0.28177,-1.83133,-0.08762,3.37238,20.02770,2.65082,0.91029,-0.28040,-0.08349,0.29289,-0.48938,5.48868,-55.91691
-0.72256,1.66385,-0.36523,0.71379,0.97740,-0.29756,-0.25831,-1.44350,-1.30431,2.27081,20.73184,3.16586,0.89784,-0.31866,-0.09623,0.28825,11.13586,20.25356,-73.32320
-0.71050,1.69478,-0.36654,0.74503,1.22907,-0.25657,-0.33099,-1.12747,-2.34052,3.49554,21.65290,3.50180,0.88185,-0.35870,-0.10890,0.28603,10.28120,25.00713,-83.70288
-0.69588,1.73299,-0.36629,0.80655,1.53060,-0.20202,-0.64360,-0.84898,-3.43030,4.87226,20.32143,3.62417,0.85728,-0.40728,-0.12239,0.29019,-4.18930,19.87558,-89.10065
-0.67492,1.77989,-0.36391,0.94925,1.90128,-0.12654,-1.11799,-0.32399,-4.64346,13.64972,27.02953,5.73772,0.82147,-0.46150,-0.14446,0.30223,-22.46655,29.90970,-66.12208
-0.64600,1.83237,-0.36072,1.18083,2.28316,-0.05407,-1.39359,0.20981,-6.08111,20.01149,28.35196,4.86770,0.77416,-0.52437,-0.17467,0.30854,-6.30446,42.48413,-102.97270
-0.61128,1.88800,-0.35710,1.44633,2.62888,0.00904,-1.92637,0.61332,-7.30755,24.70681,29.19199,4.67989,0.71566,-0.58738,-0.19942,0.32102,-16.48475,27.25366,-105.44520
-0.56066,1.95867,-0.35173,1.88756,3.12008,0.08433,-2.67593,1.24946,-9.37963,32.14502,32.75019,4.69484,0.62034,-0.66877,-0.23509,0.33564,-41.01176,41.95074,-123.14690
-0.50451,2.02945,-0.34746,2.31959,3.51428,0.12880,-2.79775,2.02933,-11.39769,41.66858,34.23804,3.68383,0.50923,-0.74097,-0.28445,0.33278,-6.87165,34.33528,-160.76000
-0.38696,2.12785,-0.34377,3.64338,4.26526,0.15513,-1.75169,3.38986,-17.06946,73.36008,23.75986,-1.10312,0.28935,-0.83319,-0.38842,0.26683,18.38234,-13.72243,-247.81370
-0.15427,2.25060,-0.34645,5.47438,4.30052,0.05752,-1.41377,3.97058,-23.12983,107.73680,-30.61152,-10.16165,-0.13442,-0.86783,-0.46233,0.12274,-46.02775,20.61787,-308.01040
0.00102,2.27250,-0.35437,6.58422,3.76079,-0.06374,-1.37732,3.99282,-25.86997,111.97230,-79.07147,-13.61977,-0.36673,-0.80965,-0.45761,0.02382,-47.44138,48.94193,-285.56480
0.20316,2.18245,-0.37458,8.11454,1.75042,-0.33635,-0.70631,3.32054,-29.30025,68.76477,-173.99880,-17.85462,-0.59391,-0.67225,-0.42571,-0.11886,-67.29337,28.09558,-248.99830
0.33885,2.03597,-0.39488,8.42355,-0.63745,-0.55834,-1.70332,1.39839,-30.07137,-25.05281,-207.63370,-13.62023,-0.72439,-0.55002,-0.33510,-0.24586,-107.56720,152.44730,-104.89530
0.37956,1.83714,-0.40781,7.35333,-3.23629,-0.63289,-1.63217,1.25740,-26.37708,-114.56450,-148.96990,-1.67180,-0.76562,-0.49654,-0.30560,-0.27180,-4.94882,8.52783,182.46620
0.35589,1.67556,-0.41692,5.62074,-4.82121,-0.63792,-1.38348,0.54161,-22.25393,-128.84760,-78.11858,-1.99343,-0.77341,-0.47419,-0.29760,-0.29735,-33.77197,4.34961,353.60940
0.31177,1.56184,-0.42831,3.94534,-5.44901,-0.67287,0.03481,1.60769,-18.37893,-113.83190,-19.44490,-5.82329,-0.79846,-0.44679,-0.31168,-0.25629,101.65070,-71.21098,230.11200
0.24365,1.47719,-0.44675,2.23751,-5.55784,-0.79894,2.65215,3.06514,-16.20632,-99.19768,12.48843,-9.65285,-0.84666,-0.36928,-0.33526,-0.18545,126.38080,-136.60100,108.19790
0.19517,1.42296,-0.46271,1.12495,-5.22858,-0.86487,4.76443,4.52060,-14.84566,-57.96156,28.69539,2.31051,-0.89512,-0.27407,-0.33514,-0.10644,205.34120,-169.12080,11.54705
0.18282,1.38972,-0.47034,0.74779,-4.66279,-0.79820,3.42585,3.63930,-9.58481,38.17499,58.51999,12.05374,-0.87060,-0.34242,-0.34284,-0.08528,-30.91272,83.61169,101.43810
0.19214,1.38124,-0.45588,0.72128,-3.79580,-0.37904,1.78121,1.40273,-2.75059,-5.84937,23.40142,19.03405,-0.78261,-0.48149,-0.38803,-0.07153,-26.51391,-86.40147,197.96740
0.20291,1.29796,-0.44383,0.58295,-3.47050,-0.04438,1.97229,-0.14214,-0.20133,-12.38942,16.70239,22.86136,-0.74626,-0.50287,-0.43369,-0.04622,13.95514,-109.82780,168.66970
0.19979,1.26092,-0.42551,0.41798,-3.30689,0.23324,1.71846,-1.74841,0.67605,-15.10713,10.47147,22.99620,-0.70724,-0.51635,-0.47914,-0.06009,-12.04914,-136.21990,75.67099
0.18884,1.22197,-0.40232,0.17470,-3.20993,0.52272,1.01746,-3.64983,0.64604,-20.77350,2.76268,18.50874,-0.66664,-0.51519,-0.52777,-0.10787,-34.36829,-147.28970,4.28056
0.17169,1.17911,-0.38197,-0.10809,-3.18470,0.71130,-0.40459,-4.68499,0.07972,-21.05563,0.18853,9.57291,-0.63871,-0.51318,-0.54543,-0.17665,-69.13442,-98.23468,-79.79471
0.15071,1.13499,-0.36770,-0.38867,-3.18269,0.77319,-2.05550,-4.82157,-0.64151,-20.88115,-0.00826,0.17787,-0.62207,-0.51557,-0.53416,-0.24877,-95.92599,-34.18344,-76.37341
0.12748,1.09181,-0.36065,-0.64533,-3.16957,0.72162,-3.89130,-4.08383,-1.45125,-18.51435,1.63921,-7.00328,-0.61830,-0.52407,-0.49022,-0.32054,-99.44600,23.61444,-103.75150
0.10341,1.05033,-0.35987,-0.86195,-3.13133,0.59021,-5.58796,-2.46160,-2.09680,-13.86609,3.86858,-11.03405,-0.62597,-0.54180,-0.41508,-0.37726,-100.52790,90.73299,-110.21500
0.07950,1.01074,-0.36289,-1.03311,-3.07421,0.43003,-6.93072,-0.74423,-2.73458,-11.40486,5.14569,-12.09134,-0.63542,-0.55677,-0.32599,-0.42425,-73.61125,97.30042,-109.23420
0.05504,0.97381,-0.36846,-1.17909,-2.99277,0.26743,-7.83054,1.00617,-3.23616,-9.22729,7.30380,-11.42241,-0.64444,-0.56962,-0.22851,-0.45609,-54.57428,103.34430,-102.64790
0.03004,0.94061,-0.37496,-1.30384,-2.86865,0.12321,-7.81019,2.44038,-3.58028,-4.83586,10.50401,-7.90247,-0.65616,-0.57416,-0.14419,-0.46798,-4.22809,74.18292,-75.90198
0.00782,0.91011,-0.37766,-1.36428,-2.73282,0.06152,-6.75351,2.87026,-3.33763,-2.78345,14.13781,-4.78663,-0.66474,-0.57519,-0.10495,-0.46504,65.80052,28.31964,-36.35060
-0.01417,0.88680,-0.37927,-1.40745,-2.52088,0.02983,-5.10224,2.87268,-2.50026,-1.48338,16.34468,-0.78614,-0.67199,-0.58345,-0.09960,-0.44508,130.65300,-1.19622,24.15528
-0.03518,0.86845,-0.37964,-1.42895,-2.28179,0.02187,-3.93845,2.70953,-1.51104,-1.36907,16.85218,0.43829,-0.66849,-0.59929,-0.09980,-0.42897,107.24990,-5.22976,53.79585
-0.05665,0.85473,-0.37998,-1.45259,-2.02142,0.01555,-3.38553,2.60950,-0.63283,-2.12346,15.12929,-0.15141,-0.65640,-0.61966,-0.09248,-0.42025,50.96107,3.14949,51.02501
-0.07860,0.83967,-0.38053,-1.47914,-1.83128,0.00750,-2.82694,2.56614,-0.20263,-2.26415,12.43070,-0.79963,-0.65066,-0.63328,-0.08239,-0.41088,36.47041,4.20243,31.47242
-0.10070,0.82294,-0.38053,-1.50032,-1.70419,0.00851,-2.15851,2.49113,-0.14832,-2.05477,9.66141,0.69341,-0.65379,-0.63865,-0.07428,-0.39897,57.10176,-3.77211,5.54084
-0.12338,0.80853,-0.37891,-1.52628,-1.57035,0.03228,-1.46602,2.34955,-0.46099,-1.77550,7.64214,2.73139,-0.66614,-0.63411,-0.06680,-0.38691,44.72080,-12.05817,-22.26772
-0.14571,0.79401,-0.37582,-1.54251,-1.46373,0.07375,-1.26260,2.13993,-0.93638,-0.91195,7.78726,3.99401,-0.67731,-0.62451,-0.05098,-0.38552,17.13573,-17.65133,-34.65890
