posX, posY, posZ, velX, velY, velZ, angVelX, angVelY, angVelZ, accX, accY, accZ, rotX, rotY, rotZ, rotW, angAccX, angAccY, angAccZ
-0.32262,0.93220,-0.39956,0.08059,0.23859,-0.23448,0.25354,0.20033,0.61218,-0.66621,0.08182,-0.07125,-0.52960,-0.78477,0.01626,-0.32154,-1.96621,2.48680,1.72381
-0.32232,0.93571,-0.40317,0.06976,0.23800,-0.23798,0.17001,0.23911,0.63598,-0.93399,-0.21748,-0.31130,-0.52517,-0.78830,0.01691,-0.32014,-8.19186,2.76250,3.05239
-0.32190,0.93898,-0.40666,0.06274,0.23568,-0.23965,0.16019,0.25235,0.61044,-0.97639,-0.35959,-0.27878,-0.52262,-0.79084,0.01627,-0.31810,-4.32175,2.43337,0.08330
-0.32224,0.94187,-0.41037,0.04644,0.22830,-0.24389,0.18226,0.30329,0.53880,-0.75504,-0.41935,-0.09215,-0.52184,-0.79287,0.01615,-0.31431,1.96825,2.48428,-3.95853
-0.32243,0.94465,-0.41396,0.03449,0.22154,-0.24626,0.10908,0.33977,0.52427,-0.94315,-0.55136,-0.09235,-0.51879,-0.79560,0.01778,-0.31236,-3.42480,2.25297,-0.86412
-0.32280,0.94740,-0.41759,0.02254,0.21626,-0.24900,0.05657,0.38213,0.48999,-1.06717,-0.33629,-0.31488,-0.51641,-0.79803,0.01984,-0.30996,-5.81929,2.66881,-2.29719
-0.32366,0.95010,-0.42133,0.00567,0.21140,-0.25260,-0.03372,0.44756,0.49646,-0.90946,-0.36622,-0.09060,-0.51257,-0.80136,0.02338,-0.30750,-4.71479,4.56727,-0.26411
-0.32446,0.95263,-0.42494,-0.00701,0.20495,-0.25370,-0.14269,0.48730,0.53048,-0.95233,-0.60783,0.00457,-0.50750,-0.80500,0.02738,-0.30607,-7.93824,2.92871,3.08127
-0.32570,0.95467,-0.42845,-0.02422,0.19262,-0.25334,-0.22595,0.52703,0.46915,-1.01081,-0.60627,-0.13037,-0.50475,-0.80719,0.03231,-0.30435,-6.04061,1.88609,-3.36191
-0.32668,0.95702,-0.43204,-0.03354,0.18719,-0.25392,-0.26330,0.56815,0.43743,-0.78481,-0.50971,0.06691,-0.50192,-0.80973,0.03644,-0.30180,-2.30492,2.69806,-4.64898
-0.32796,0.95918,-0.43556,-0.04488,0.18035,-0.25358,-0.39192,0.61073,0.46156,-0.66419,-0.53381,0.16563,-0.49669,-0.81304,0.04298,-0.30069,-8.02550,3.36047,0.48452
-0.32939,0.96104,-0.43891,-0.05622,0.17016,-0.25067,-0.53209,0.63002,0.51699,-0.76331,-0.80663,0.22075,-0.49001,-0.81671,0.04990,-0.30065,-9.53352,1.34114,4.70072
-0.33079,0.96269,-0.44208,-0.06454,0.15800,-0.24529,-0.51159,0.62129,0.49928,-0.55939,-0.89262,0.17123,-0.48634,-0.81928,0.05358,-0.29897,-2.95095,0.02654,0.62656
-0.33200,0.96424,-0.44510,-0.06844,0.14742,-0.23906,-0.36449,0.59448,0.43476,-0.21022,-0.94601,0.52735,-0.48555,-0.82098,0.05379,-0.29554,9.55937,-1.68072,-5.10206
-0.33312,0.96523,-0.44764,-0.07026,0.13102,-0.22729,-0.15990,0.52799,0.36786,0.01109,-1.17600,0.89616,-0.48618,-0.82211,0.05095,-0.29184,12.86112,-3.49561,-4.82830
-0.33410,0.96586,-0.44995,-0.06979,0.11265,-0.21433,-0.04637,0.45483,0.30375,0.03403,-1.47053,1.08311,-0.48657,-0.82281,0.04923,-0.28950,9.55751,-4.97724,-4.44227
-0.33501,0.96620,-0.45211,-0.06842,0.09421,-0.20217,0.03317,0.39413,0.22495,0.13947,-1.58171,1.02768,-0.48766,-0.82298,0.04800,-0.28739,6.65869,-5.16110,-5.74938
-0.33579,0.96579,-0.45384,-0.06548,0.06834,-0.18614,0.06363,0.32440,0.13286,0.26900,-1.69184,1.17667,-0.48933,-0.82237,0.04756,-0.28636,3.72730,-4.36464,-6.60892
-0.33653,0.96539,-0.45558,-0.06264,0.04785,-0.17348,0.00136,0.27045,0.08055,0.27935,-1.71221,1.17305,-0.48953,-0.82201,0.04936,-0.28676,-2.80368,-4.23858,-4.42569
-0.33715,0.96468,-0.45709,-0.05850,0.02731,-0.16050,-0.05716,0.21118,0.01974,0.28625,-1.18478,0.63687,-0.49018,-0.82112,0.05141,-0.28784,-6.60050,-4.90395,-3.79886
-0.33783,0.96419,-0.45872,-0.05617,0.01452,-0.15178,-0.07054,0.18616,0.00391,0.18774,-0.75761,0.57620,-0.49026,-0.82103,0.05253,-0.28774,-0.38671,-2.00574,-2.95932
-0.33857,0.96379,-0.46037,-0.05481,0.00537,-0.14496,-0.09642,0.16932,0.02623,0.08835,-0.58980,0.40404,-0.48917,-0.82156,0.05379,-0.28787,-2.26219,-1.29218,1.77567
-0.33931,0.96350,-0.46209,-0.05385,-0.00024,-0.14065,-0.08591,0.15750,0.02863,0.05890,-0.36991,0.20471,-0.48881,-0.82189,0.05434,-0.28742,-0.52976,-1.64553,0.90921
-0.33995,0.96311,-0.46372,-0.05183,-0.00594,-0.13600,-0.03828,0.15536,0.06588,0.22557,-0.36409,0.31433,-0.48788,-0.82295,0.05354,-0.28612,2.99344,0.05225,1.49791
-0.34041,0.96265,-0.46513,-0.04847,-0.01193,-0.13148,-0.00489,0.13059,0.07982,0.18811,-0.47653,0.29574,-0.48737,-0.82348,0.05270,-0.28562,1.36409,-1.30139,2.09304
-0.34072,0.96195,-0.46633,-0.04305,-0.02050,-0.12367,0.11983,0.08272,0.01906,0.44649,-0.60717,0.54007,-0.48968,-0.82280,0.04958,-0.28418,6.96236,-2.28658,-3.51331
-0.34096,0.96107,-0.46781,-0.03600,-0.02861,-0.11578,0.19504,0.02768,-0.02394,0.70799,-0.77653,0.82404,-0.49177,-0.82202,0.04653,-0.28334,8.29601,-4.34465,-4.07591
-0.34082,0.95995,-0.46867,-0.02609,-0.03919,-0.10474,0.25184,-0.05783,-0.08883,0.67918,-0.68795,0.79305,-0.49474,-0.82025,0.04321,-0.28382,3.68748,-5.82588,-4.15005
-0.34047,0.95878,-0.46922,-0.01508,-0.04846,-0.09134,0.33992,-0.15174,-0.15045,0.77573,-0.51884,0.90659,-0.49842,-0.81811,0.03840,-0.28425,6.17428,-5.72318,-4.36598
-0.34003,0.95767,-0.46975,-0.00443,-0.05570,-0.08006,0.32846,-0.22710,-0.17490,0.78172,-0.40433,0.79756,-0.50068,-0.81624,0.03551,-0.28604,1.10841,-5.64890,-2.43991
-0.33960,0.95683,-0.47044,0.00358,-0.05708,-0.07384,0.32727,-0.26557,-0.20340,0.58512,0.18836,0.28120,-0.50320,-0.81439,0.03289,-0.28720,-1.92807,-4.67628,-2.54224
-0.33918,0.95652,-0.47120,0.00950,-0.05001,-0.06994,0.31620,-0.27102,-0.14614,0.42023,0.59549,0.24159,-0.50349,-0.81406,0.03015,-0.28791,0.12384,-0.50424,2.33676
-0.33873,0.95636,-0.47199,0.01480,-0.04198,-0.06764,0.26541,-0.27069,-0.05181,0.40247,0.48430,0.14029,-0.50203,-0.81456,0.02819,-0.28925,-3.91790,0.09147,6.79384
-0.33818,0.95612,-0.47272,0.02055,-0.03709,-0.06495,0.23745,-0.28280,-0.01423,0.25629,0.27783,0.09324,-0.50160,-0.81438,0.02604,-0.29070,-2.93499,-0.96443,4.86441
-0.33759,0.95584,-0.47348,0.02557,-0.03365,-0.06308,0.26391,-0.27954,-0.02557,0.40494,0.21926,0.13036,-0.50275,-0.81367,0.02318,-0.29093,1.69744,-0.00989,-0.65109
-0.33695,0.95554,-0.47424,0.03081,-0.03197,-0.06159,0.24662,-0.28075,-0.02588,0.55434,0.05992,0.26189,-0.50334,-0.81302,0.02119,-0.29188,0.87314,0.68626,-0.87511
-0.33610,0.95516,-0.47495,0.03806,-0.03198,-0.05960,0.17600,-0.28739,-0.02181,0.47690,0.03684,0.04564,-0.50322,-0.81236,0.02066,-0.29397,-5.05699,-0.12492,1.08723
-0.33523,0.95497,-0.47576,0.04384,-0.02857,-0.05971,0.14919,-0.27118,-0.03224,0.34129,0.43295,-0.07549,-0.50378,-0.81166,0.01983,-0.29499,-2.67610,0.62222,-1.89133
-0.33432,0.95524,-0.47655,0.04922,-0.01851,-0.05945,0.08410,-0.25509,0.01206,0.43544,0.60440,0.10671,-0.50252,-0.81184,0.01970,-0.29664,-3.41316,1.27938,2.35627
-0.33336,0.95536,-0.47726,0.05376,-0.01289,-0.05798,0.06019,-0.26731,0.03219,0.43859,0.56281,0.10951,-0.50189,-0.81157,0.01856,-0.29852,-3.85039,-0.01649,3.16587
-0.33216,0.95593,-0.47781,0.06115,-0.00199,-0.05460,0.12989,-0.27765,0.01148,0.44402,0.85610,0.06506,-0.50308,-0.81074,0.01543,-0.29896,2.76939,-1.41801,-0.92663
-0.33100,0.95691,-0.47839,0.06692,0.01226,-0.05272,0.22665,-0.28896,0.01714,0.46488,1.16621,0.13182,-0.50413,-0.81023,0.01085,-0.29878,7.38985,-0.80581,-0.25155
-0.32981,0.95818,-0.47906,0.07161,0.02781,-0.05237,0.27048,-0.28395,0.05575,0.44143,1.41563,0.01389,-0.50390,-0.81042,0.00704,-0.29875,4.58938,0.22753,2.55781
-0.32851,0.96048,-0.47976,0.07739,0.05583,-0.05265,0.31785,-0.26786,0.15480,0.32328,1.71360,-0.06231,-0.50194,-0.81186,0.00249,-0.29823,2.01873,1.12259,5.48807
-0.32722,0.96270,-0.48042,0.08151,0.07710,-0.05210,0.41345,-0.26138,0.22939,0.40685,1.81048,-0.02669,-0.50063,-0.81314,-0.00369,-0.29691,5.35555,0.54396,6.25130
-0.32572,0.96565,-0.48096,0.08824,0.10503,-0.04988,0.58981,-0.26215,0.31770,0.42513,1.67043,0.19488,-0.49948,-0.81479,-0.01293,-0.29407,10.65546,-0.41126,5.77993
-0.32427,0.96839,-0.48140,0.09306,0.12363,-0.04668,0.70337,-0.26911,0.37048,0.40032,1.45701,0.36876,-0.49851,-0.81602,-0.02146,-0.29178,10.19880,-0.16451,4.69291
-0.32270,0.97147,-0.48158,0.09893,0.14273,-0.04067,0.82945,-0.28416,0.42282,0.45300,1.32873,0.44573,-0.49752,-0.81726,-0.03131,-0.28910,8.63297,-1.18200,4.52860
-0.32090,0.97481,-0.48157,0.10669,0.16240,-0.03257,0.93853,-0.30249,0.47533,0.50132,1.12934,0.67450,-0.49630,-0.81850,-0.04164,-0.28637,8.89082,-1.37964,3.57575
-0.31917,0.97796,-0.48148,0.11205,0.17508,-0.02560,0.96274,-0.31423,0.52474,0.51386,0.99994,0.62099,-0.49425,-0.81988,-0.05030,-0.28457,3.05397,-0.92061,3.60217
-0.31727,0.98130,-0.48119,0.11887,0.18744,-0.01705,0.97432,-0.32368,0.57453,0.51396,0.74796,0.67637,-0.49177,-0.82139,-0.05892,-0.28285,1.59942,-1.09122,3.91147
-0.31526,0.98445,-0.48082,0.12530,0.19482,-0.00893,0.96553,-0.33253,0.60220,0.55964,0.52116,0.72619,-0.48939,-0.82267,-0.06692,-0.28148,-0.65982,-0.99058,2.60342
-0.31296,0.98760,-0.48004,0.13480,0.20112,0.00339,0.91926,-0.35581,0.61346,0.62369,0.28741,0.85458,-0.48690,-0.82364,-0.07398,-0.28121,-2.25057,-1.48950,0.79739
-0.31053,0.99062,-0.47903,0.14432,0.20398,0.01696,0.85099,-0.37781,0.62266,0.63568,0.06922,0.87769,-0.48407,-0.82461,-0.08029,-0.28151,-4.52026,-1.59818,0.16654
-0.30801,0.99347,-0.47794,0.15328,0.20399,0.02960,0.80068,-0.40267,0.60956,0.65988,-0.01509,0.86484,-0.48180,-0.82515,-0.08657,-0.28197,-3.94228,-1.57569,-0.72382
-0.30541,0.99633,-0.47667,0.16169,0.20403,0.04201,0.77654,-0.41644,0.60240,0.61218,0.02658,0.88583,-0.47958,-0.82571,-0.09320,-0.28199,-1.85157,-1.03296,-1.22158
-0.30280,0.99926,-0.47524,0.16841,0.20491,0.05431,0.73127,-0.42558,0.60991,0.43935,0.10540,0.88660,-0.47674,-0.82653,-0.09927,-0.28234,-2.48982,-1.08147,0.08228
-0.30018,1.00230,-0.47379,0.17302,0.20732,0.06449,0.68902,-0.43540,0.62535,0.38417,0.26554,0.84347,-0.47355,-0.82745,-0.10525,-0.28283,-3.15789,-0.64041,0.76286
-0.29755,1.00557,-0.47199,0.17758,0.21210,0.07733,0.61035,-0.44680,0.67243,0.24271,0.33800,0.75347,-0.46894,-0.82899,-0.11036,-0.28404,-4.91584,-1.58220,2.79021
-0.29501,1.00890,-0.47033,0.17929,0.21684,0.08555,0.58006,-0.44320,0.69126,0.01164,0.46651,0.57489,-0.46511,-0.83024,-0.11596,-0.28447,-4.42765,-0.74768,1.87115
-0.29263,1.01242,-0.46848,0.17787,0.22348,0.09498,0.52898,-0.43385,0.72473,-0.17655,0.41334,0.92466,-0.46055,-0.83190,-0.12089,-0.28499,-1.67472,1.48808,1.77171
-0.29047,1.01586,-0.46616,0.17398,0.22699,0.10930,0.32744,-0.48693,0.78185,-0.16272,-0.00917,1.49042,-0.45340,-0.83399,-0.12261,-0.28958,-10.85404,-2.28472,3.31872
-0.28804,1.01909,-0.46346,0.17477,0.22677,0.12609,0.14123,-0.57167,0.79929,0.24010,-0.02613,1.27626,-0.44645,-0.83529,-0.12385,-0.29603,-18.32487,-8.20226,2.13170
-0.28505,1.02225,-0.46000,0.18305,0.22562,0.15072,0.12744,-0.65347,0.75270,0.41160,-0.06232,1.31514,-0.44237,-0.83499,-0.12841,-0.30102,-3.68989,-5.86414,-2.32502
-0.28227,1.02554,-0.45635,0.18672,0.22655,0.17367,0.34693,-0.68862,0.66445,0.01460,0.37824,1.08225,-0.44206,-0.83329,-0.13838,-0.30177,11.99244,-2.29389,-5.43582
-0.27986,1.02936,-0.45300,0.18390,0.23591,0.18746,0.55649,-0.67137,0.66606,-0.24101,0.96180,0.90453,-0.44029,-0.83281,-0.14938,-0.30042,16.63148,1.57408,-1.04078
-0.27764,1.03356,-0.44987,0.17863,0.24904,0.19515,0.65469,-0.64142,0.73019,-0.49732,1.11721,0.66534,-0.43618,-0.83361,-0.15893,-0.29930,10.45759,2.35065,4.43714
-0.27580,1.03814,-0.44664,0.16860,0.26425,0.20272,0.66493,-0.60226,0.83145,-0.69894,0.62985,0.54841,-0.43004,-0.83553,-0.16694,-0.29848,1.61802,2.25920,6.97459
-0.27396,1.04220,-0.44337,0.16076,0.26905,0.20924,0.64517,-0.56286,0.86491,-0.52560,0.06601,0.41588,-0.42490,-0.83694,-0.17357,-0.29809,-2.27487,1.85794,3.96419
-0.27196,1.04589,-0.44019,0.15666,0.26760,0.21368,0.65221,-0.51068,0.84607,-0.38366,-0.31047,0.22499,-0.42135,-0.83777,-0.18002,-0.29698,-0.79914,3.73975,-0.10125
-0.27003,1.04907,-0.43709,0.15208,0.25868,0.21615,0.73369,-0.38843,0.76850,-0.39981,-0.74724,-0.04588,-0.42066,-0.83809,-0.18680,-0.29285,4.35015,7.35430,-3.22919
-0.26821,1.05208,-0.43418,0.14699,0.24926,0.21487,0.78462,-0.25323,0.67954,-0.41639,-0.64469,0.02382,-0.42087,-0.83839,-0.19244,-0.28799,5.57314,10.28172,-6.21482
-0.26648,1.05519,-0.43136,0.14138,0.24352,0.21309,0.72164,-0.18587,0.65444,-0.40074,-0.40266,0.03256,-0.41865,-0.83951,-0.19617,-0.28542,-2.40026,7.62565,-3.61383
-0.26493,1.05836,-0.42862,0.13411,0.23955,0.21032,0.59146,-0.14406,0.66805,-0.56087,-0.21933,-0.24067,-0.41461,-0.84150,-0.19807,-0.28416,-9.33196,2.80412,0.05100
-0.26397,1.06118,-0.42615,0.11790,0.23042,0.20403,0.50395,-0.05360,0.69769,-0.57215,-0.52858,-0.14433,-0.41053,-0.84407,-0.19994,-0.28114,-2.83212,3.60539,0.78162
-0.26101,1.06701,-0.42051,0.11219,0.22178,0.20417,0.48093,-0.03600,0.67687,-0.31104,-0.71593,0.15346,-0.40462,-0.84644,-0.20774,-0.27689,-1.80958,1.76857,-0.65556
-0.25952,1.06932,-0.41745,0.11054,0.21035,0.20777,0.47011,-0.04725,0.63647,0.04964,-0.90235,0.30503,-0.40251,-0.84698,-0.21142,-0.27552,-1.04021,-0.00607,-2.26901
-0.25760,1.07139,-0.41430,0.11498,0.19838,0.21213,0.53052,-0.05449,0.57563,0.43279,-0.80510,0.13309,-0.40191,-0.84662,-0.21677,-0.27334,1.90455,-0.53690,-4.19561
-0.25546,1.07348,-0.41121,0.12163,0.18895,0.21439,0.67420,-0.02953,0.50980,0.54348,-0.65965,-0.03901,-0.40298,-0.84554,-0.22439,-0.26892,9.09934,1.56016,-5.01617
-0.25296,1.07564,-0.40824,0.13238,0.18261,0.21471,0.86135,0.01744,0.42416,0.83533,-0.13574,0.24332,-0.40598,-0.84358,-0.23349,-0.26275,14.22793,5.00160,-5.95787
-0.25021,1.07829,-0.40527,0.14429,0.18433,0.21430,0.83677,-0.02538,0.40487,1.01583,0.25673,0.07464,-0.40515,-0.84289,-0.23906,-0.26123,1.54684,-1.91517,-2.06875
-0.24688,1.08147,-0.40252,0.16229,0.19364,0.21102,0.73995,-0.08232,0.37420,1.19908,0.89196,-0.35731,-0.40385,-0.84240,-0.24250,-0.26164,-5.77968,-3.86905,-2.05743
-0.24362,1.08514,-0.40010,0.17643,0.20796,0.20363,0.66074,-0.11189,0.37855,1.25741,1.61890,-1.00529,-0.40179,-0.84248,-0.24586,-0.26142,-7.68010,-3.19965,-1.31436
-0.23978,1.09038,-0.39860,0.19539,0.24192,0.18415,0.70406,-0.02474,0.42523,1.11601,2.83085,-1.66375,-0.40026,-0.84328,-0.25110,-0.25616,0.50899,3.42685,2.73867
-0.23587,1.09682,-0.39756,0.21187,0.28677,0.16171,0.74666,0.08840,0.55053,1.49744,3.73286,-1.56782,-0.39666,-0.84548,-0.25687,-0.24868,5.12815,8.52437,7.18977
-0.23162,1.10427,-0.39666,0.23045,0.33660,0.14230,0.75241,0.16162,0.71514,1.78057,4.64401,-1.59424,-0.39063,-0.84862,-0.26255,-0.24151,-0.66605,5.74130,13.04249
-0.22645,1.11378,-0.39590,0.25771,0.40586,0.12493,0.87407,0.23497,0.91745,2.17703,5.39135,-1.07917,-0.38352,-0.85165,-0.27203,-0.23151,6.09210,5.65199,14.74797
-0.22080,1.12417,-0.39480,0.28586,0.47225,0.11587,1.00695,0.23766,1.07028,2.50502,5.71883,-0.46417,-0.37638,-0.85353,-0.28335,-0.22256,11.93880,3.01097,13.98102
-0.21465,1.13651,-0.39352,0.31534,0.55300,0.11102,1.03668,-0.02416,0.95387,2.42728,5.92041,-0.50358,-0.37345,-0.85064,-0.29393,-0.22483,0.93357,-14.12091,-11.26453
-0.20605,1.15287,-0.39278,0.37583,0.67879,0.09831,1.40450,0.05220,1.36361,3.99414,9.16949,-1.86505,-0.36089,-0.85240,-0.31484,-0.20988,28.45259,-12.20412,17.54970
-0.19844,1.16870,-0.39243,0.40842,0.76871,0.08356,1.57071,0.31472,1.56338,1.95178,8.75757,-1.04675,-0.35251,-0.85552,-0.32784,-0.19063,13.32539,35.28165,40.39108
-0.19059,1.19064,-0.39272,0.43776,0.92622,0.06283,1.63447,0.47424,1.83038,1.86235,10.79519,-0.92115,-0.33976,-0.85962,-0.34037,-0.17252,8.10845,10.07875,16.93832
-0.18334,1.21496,-0.39301,0.45273,1.08892,0.04592,1.37128,0.44393,2.09341,0.30000,12.46517,-0.83114,-0.32161,-0.86635,-0.34563,-0.16293,-13.87220,-1.77656,18.21267
-0.17755,1.24149,-0.39332,0.44417,1.24731,0.03237,1.08343,0.34514,2.40839,-1.46113,14.28516,-1.23592,-0.29851,-0.87426,-0.34987,-0.15541,-22.57528,-15.38988,21.91816
-0.17431,1.27604,-0.39376,0.40200,1.48665,0.01977,1.06498,0.42637,2.99085,-4.01674,15.89449,-0.80448,-0.26791,-0.88321,-0.35997,-0.13632,-5.92875,-2.43201,35.36285
-0.17363,1.31194,-0.39314,0.33159,1.70175,0.02423,1.31018,0.58441,3.51064,-6.11047,15.41063,0.96902,-0.23826,-0.88843,-0.37658,-0.11010,14.31002,12.33307,38.11664
-0.17479,1.34850,-0.39138,0.25041,1.87950,0.04367,1.48884,0.64113,3.96045,-7.27193,14.33172,2.51325,-0.20596,-0.89203,-0.39316,-0.08537,17.87027,10.51573,37.85101
-0.18268,1.39298,-0.38678,0.08621,2.14094,0.10033,1.43490,0.34871,4.58668,-9.36301,11.69517,3.26954,-0.16007,-0.89646,-0.40730,-0.06954,2.23366,-19.55456,30.48162
-0.18942,1.43154,-0.38267,-0.03193,2.27080,0.13975,1.45908,0.20434,4.87733,-10.84632,10.17905,3.03268,-0.12223,-0.89741,-0.42057,-0.05320,4.14488,-20.15586,24.13689
-0.20070,1.47177,-0.37745,-0.19034,2.39662,0.18662,1.65095,0.24959,5.19644,-12.29036,8.13225,3.11411,-0.08395,-0.89508,-0.43696,-0.02923,11.87498,0.24606,22.03382
-0.21545,1.51161,-0.37170,-0.36560,2.49115,0.23169,1.82172,0.35939,5.49322,-13.00308,5.36720,3.30754,-0.04528,-0.89065,-0.45243,-0.00214,11.16720,12.05773,23.30664
-0.23326,1.55036,-0.36556,-0.54918,2.54865,0.27308,1.86005,0.38017,5.73797,-13.31731,2.58393,2.94188,-0.00492,-0.88533,-0.46440,0.02246,4.69733,3.11923,18.90255
-0.25387,1.58728,-0.35933,-0.73632,2.56924,0.30766,1.76313,0.30599,5.91623,-13.58154,0.09941,2.35188,0.03636,-0.87985,-0.47188,0.04328,-1.87513,-6.53000,13.28728
-0.27868,1.62154,-0.35280,-0.95203,2.55189,0.34019,1.59062,0.13132,6.07477,-13.64430,-2.25045,1.87014,0.07965,-0.87387,-0.47576,0.06047,-4.92995,-15.74535,8.91257
-0.30283,1.65440,-0.34653,-1.11296,2.51428,0.36240,1.48278,0.03340,6.17747,-13.52493,-4.13409,1.72064,0.12151,-0.86563,-0.47928,0.07876,-4.15923,-14.22709,7.29159
-0.33075,1.68429,-0.33983,-1.29337,2.44236,0.38594,1.35213,-0.13335,6.25416,-12.39864,-6.23409,1.77396,0.16425,-0.85637,-0.48039,0.09422,-3.92250,-12.44627,5.77371
-0.36115,1.71020,-0.33250,-1.47882,2.32970,0.41397,1.24681,-0.39662,6.26350,-11.01116,-7.92738,1.78476,0.20695,-0.84580,-0.48041,0.10487,0.53972,-18.94227,-0.02457
-0.38993,1.73566,-0.32506,-1.60103,2.22974,0.43781,1.25395,-0.55480,6.23622,-9.73814,-8.76504,2.08485,0.24766,-0.83226,-0.48213,0.11640,4.09579,-14.31920,-2.91942
-0.41966,1.75889,-0.31702,-1.70838,2.12055,0.46517,1.36537,-0.62633,6.17476,-8.72061,-9.49277,2.20716,0.28598,-0.81563,-0.48633,0.12826,9.80368,-6.01313,-4.12094
-0.45231,1.77679,-0.30797,-1.83831,1.95920,0.50079,1.57894,-0.47064,6.15020,-8.05140,-10.84261,1.63755,0.32120,-0.79460,-0.49411,0.14596,9.59074,12.53797,-1.95173
-0.48373,1.79428,-0.29982,-1.92500,1.82343,0.51701,1.63431,-0.19756,6.17734,-6.89275,-12.01641,0.65997,0.35435,-0.77307,-0.49820,0.16911,0.57911,21.37638,4.60668
-0.51721,1.80600,-0.29231,-2.01921,1.63017,0.52023,1.53451,0.04650,6.16563,-4.74212,-12.49536,-0.09144,0.38511,-0.75269,-0.49775,0.19338,-14.17078,15.51540,3.48097
-0.54977,1.81520,-0.28569,-2.08353,1.43486,0.50931,1.41098,-0.02768,6.00962,-2.96763,-12.33469,-0.93222,0.41559,-0.73481,-0.49434,0.20730,-5.46699,-5.26255,-8.81550
-0.58088,1.82534,-0.27922,-2.11231,1.29183,0.49870,1.31384,-0.12236,5.83378,-1.75659,-11.82093,-0.79134,0.44484,-0.71675,-0.49025,0.21918,-4.96957,-9.14721,-14.50514
-0.61156,1.83076,-0.27279,-2.12712,1.10924,0.48931,1.25145,-0.20761,5.53748,-0.04901,-11.31282,-0.54027,0.46982,-0.70008,-0.48706,0.22790,-1.60784,-6.11707,-18.32544
-0.64093,1.83573,-0.26615,-2.11918,0.95549,0.48402,1.20378,-0.20581,5.24116,1.25124,-10.92594,-0.48213,0.49176,-0.68326,-0.48476,0.23735,-2.31913,-0.75300,-20.49144
-0.66974,1.84154,-0.25958,-2.10483,0.84821,0.47945,1.16861,-0.20364,5.01181,1.84971,-10.80180,-0.58040,0.51333,-0.66576,-0.48208,0.24669,-4.29940,2.57226,-22.75313
-0.69642,1.83971,-0.25411,-2.06300,0.65575,0.46076,1.15383,-0.32752,4.57324,3.10406,-10.66354,-1.37945,0.53062,-0.65294,-0.48003,0.24838,1.69968,-3.21187,-24.05875
-0.72246,1.83851,-0.24911,-2.01981,0.50803,0.43951,1.17869,-0.53811,4.22079,3.30413,-10.46412,-1.41585,0.54993,-0.63991,-0.47671,0.24666,4.86028,-11.56523,-27.09090
-0.74718,1.83411,-0.24454,-1.96396,0.34098,0.41558,1.27972,-0.78163,3.89610,3.93270,-10.29399,-1.47084,0.56991,-0.62636,-0.47401,0.24122,11.27939,-10.51433,-21.42106
-0.77059,1.82951,-0.24008,-1.90563,0.20020,0.39742,1.42141,-0.97716,3.65384,4.20694,-9.97880,-0.93182,0.59035,-0.61125,-0.47189,0.23490,12.99482,-11.43491,-19.32171
-0.79339,1.82433,-0.23541,-1.85203,0.08184,0.38646,1.57573,-1.03543,3.50919,4.55458,-9.98180,-1.00061,0.61011,-0.59355,-0.47154,0.23048,15.94403,-2.73008,-13.79493
-0.81433,1.81592,-0.23102,-1.78103,-0.05796,0.37322,1.63409,-0.98819,3.45843,5.19835,-10.26301,-1.15453,0.62897,-0.57454,-0.47053,0.22999,8.15936,2.62854,-5.57655
-0.83298,1.80409,-0.22684,-1.68940,-0.21922,0.35802,1.49472,-0.77942,3.55740,6.08116,-10.00676,-1.16966,0.64615,-0.55425,-0.46722,0.23874,-9.74986,9.91148,6.38891
-0.85136,1.79316,-0.22260,-1.61307,-0.33424,0.34702,1.31142,-0.61006,3.65149,6.70026,-9.30679,-0.78825,0.66252,-0.53433,-0.46205,0.24915,-18.34027,9.31530,8.61755
-0.86733,1.77989,-0.21847,-1.51829,-0.45838,0.33672,1.15156,-0.43894,3.71229,7.10706,-8.47710,-0.58691,0.67731,-0.51419,-0.45724,0.26037,-16.67660,9.42084,5.54230
-0.88349,1.76776,-0.21426,-1.44797,-0.53937,0.33006,1.09637,-0.35139,3.72027,7.28753,-7.80216,-0.48283,0.69211,-0.49369,-0.45308,0.26827,-10.48014,6.80290,3.19316
-0.90029,1.75679,-0.20992,-1.40490,-0.58479,0.32681,1.07521,-0.30496,3.71430,7.33588,-7.42923,-0.44843,0.70665,-0.47298,-0.44877,0.27485,-7.85942,6.26622,1.19390
-0.90774,1.73729,-0.20611,-1.24735,-0.73187,0.31728,1.09735,-0.17807,3.65891,7.27073,-6.11165,-0.33888,0.71856,-0.45169,-0.44769,0.28146,0.11947,5.68872,-1.94043
-0.91091,1.71660,-0.20251,-1.02889,-0.89191,0.30435,0.88275,0.11113,3.65503,7.23131,-4.75842,-0.71863,0.72652,-0.43103,-0.44608,0.29564,-13.34881,7.87220,1.58385
-0.93165,1.68691,-0.19500,-0.91606,-0.96083,0.29046,0.70111,0.21676,3.70694,7.03910,-3.80237,-0.93761,0.74777,-0.38820,-0.43566,0.31676,-15.44697,3.22946,4.44058
-0.93873,1.67065,-0.19208,-0.83537,-1.00185,0.27440,0.70954,0.24268,3.71080,6.60243,-2.96650,-1.37235,0.75811,-0.36569,-0.43107,0.32515,-4.43698,2.68697,1.38285
-0.94421,1.65416,-0.18983,-0.74858,-1.03685,0.25210,0.74806,0.22258,3.67985,6.17612,-2.03083,-1.76020,0.76849,-0.34366,-0.42608,0.33132,3.41178,0.12007,-1.42173
-0.94839,1.63816,-0.18824,-0.66121,-1.05911,0.22529,0.72675,0.21670,3.65633,6.44921,-1.22956,-2.31854,0.77767,-0.32222,-0.42031,0.33873,0.59866,0.09150,-2.44479
-0.95023,1.62267,-0.18782,-0.55618,-1.06884,0.18639,0.60922,0.19394,3.63400,6.71996,0.02485,-2.67545,0.78563,-0.30233,-0.41238,0.34832,-7.17967,-3.24739,-0.90001
-0.95238,1.60822,-0.18761,-0.47691,-1.06310,0.15254,0.53906,0.18716,3.58903,6.66996,0.98107,-2.96876,0.79282,-0.28260,-0.40525,0.35685,-5.87090,-2.91553,-2.86629
-0.95255,1.59490,-0.18885,-0.38629,-1.04163,0.10517,0.56319,0.16432,3.50374,6.47377,2.30829,-3.66046,0.80024,-0.26300,-0.39907,0.36220,-1.27367,-1.57798,-4.83599
-0.95189,1.58330,-0.19157,-0.30187,-1.00074,0.04644,0.69142,0.11174,3.34285,5.86267,3.67006,-4.67210,0.80814,-0.24466,-0.39440,0.36263,8.97389,0.29981,-10.79284
-0.95136,1.57303,-0.19514,-0.23693,-0.95044,-0.01177,0.79851,-0.01890,3.18091,5.17449,4.80575,-5.22351,0.81683,-0.22831,-0.38756,0.36118,11.16432,-4.19539,-13.08664
-0.94901,1.56685,-0.20189,-0.15849,-0.85102,-0.10366,0.94484,-0.32282,2.87400,3.78409,6.45352,-5.04654,0.82738,-0.21835,-0.37788,0.35351,10.91744,-13.80690,-16.99045
-0.94567,1.56802,-0.21140,-0.07078,-0.64137,-0.23136,1.20278,-0.74982,2.16731,2.84790,8.59051,-4.02629,0.83777,-0.21942,-0.36984,0.33646,12.77180,-11.21897,-26.72850
-0.94473,1.56030,-0.22165,-0.02864,-0.49360,-0.28634,1.26117,-0.93683,1.73344,2.39688,10.00577,-3.09226,0.85330,-0.20496,-0.35515,0.32209,9.52283,-7.16882,-27.45319
-0.94316,1.56345,-0.22770,0.00027,-0.34566,-0.31625,1.12753,-1.13936,1.35250,1.74871,11.23032,-1.53261,0.85925,-0.20838,-0.34531,0.31470,-2.34150,-12.46772,-27.96250
-0.94194,1.56968,-0.23256,0.01794,-0.18300,-0.32272,0.86098,-1.26324,0.87160,0.97917,12.20418,0.42042,0.86164,-0.21854,-0.33714,0.31008,-13.26004,-10.66370,-34.02988
-0.94115,1.57882,-0.23602,0.02578,-0.01082,-0.30716,0.55028,-1.24243,0.29865,0.27998,12.67715,1.86047,0.86001,-0.23408,-0.33363,0.30705,-18.64405,-0.22019,-41.05962
-0.94073,1.59069,-0.23827,0.02664,0.16582,-0.27728,0.24663,-1.12799,-0.33044,0.01970,12.83407,2.41849,0.85497,-0.25419,-0.33432,0.30437,-17.53098,8.71876,-45.92729
-0.94015,1.60511,-0.23984,0.02982,0.34397,-0.24378,-0.04393,-1.02342,-0.97777,0.57366,12.88623,2.30419,0.84752,-0.27883,-0.33634,0.30139,-17.09360,9.00847,-47.10797
-0.93871,1.62205,-0.24125,0.04515,0.52203,-0.21462,-0.34503,-0.91546,-1.61354,1.81012,12.78462,1.86234,0.83724,-0.30737,-0.33934,0.29900,-16.84000,7.70170,-47.39237
-0.93550,1.64132,-0.24296,0.08327,0.69780,-0.19615,-0.59605,-0.72769,-2.22145,3.51128,12.42760,0.83481,0.82369,-0.33764,-0.34583,0.29655,-17.89186,15.70307,-46.40479
-0.93010,1.66253,-0.24558,0.14605,0.86651,-0.19480,-0.69278,-0.63355,-2.75059,5.51520,11.88495,-0.43564,0.81046,-0.36810,-0.35167,0.28979,-4.92351,7.15493,-40.33028
-0.92186,1.68569,-0.24922,0.23725,1.02856,-0.20871,-0.72018,-0.59455,-3.21842,7.57965,11.43558,-1.49089,0.79657,-0.39928,-0.35696,0.28042,-1.26280,2.42677,-34.32198
-0.91151,1.70926,-0.25370,0.33913,1.16175,-0.23144,-0.67124,-0.60909,-3.57576,9.48026,10.93502,-2.13553,0.78309,-0.42929,-0.36117,0.26839,2.42018,-2.46795,-31.39173
-0.89496,1.73714,-0.25975,0.51034,1.33017,-0.27241,-0.51555,-0.64403,-3.98948,11.95244,10.29818,-2.93124,0.76814,-0.46099,-0.36686,0.25073,10.58394,-5.36455,-25.78255
-0.87385,1.76645,-0.26668,0.71846,1.49000,-0.31884,-0.49689,-0.78631,-4.38381,14.42914,9.80248,-3.10604,0.75127,-0.49557,-0.36809,0.23347,2.31512,-10.00588,-23.86571
-0.85345,1.79379,-0.27311,0.87042,1.58627,-0.34787,-0.54665,-0.87621,-4.65401,16.42103,9.57366,-2.97188,0.73281,-0.52895,-0.36807,0.21844,-5.68714,-9.23885,-25.42831
-0.81851,1.82701,-0.28170,1.20503,1.74807,-0.40265,-0.64280,-1.03337,-5.13012,21.42522,8.46800,-3.11922,0.70862,-0.56919,-0.36607,0.19966,-6.64189,-7.68084,-27.27650
-0.78005,1.85865,-0.29012,1.53124,1.85740,-0.44466,-0.74431,-1.14385,-5.48062,25.51849,7.21029,-2.94539,0.68309,-0.60712,-0.36305,0.18165,-5.86321,-7.03831,-24.71201
-0.74449,1.88816,-0.29787,1.73554,1.90967,-0.46709,-0.88841,-1.39355,-5.65280,25.18693,5.32196,-3.19678,0.65915,-0.64353,-0.35309,0.16343,-9.59403,-4.86399,-26.86995
-0.68150,1.92166,-0.30431,2.29634,2.00887,-0.46411,-1.76643,-0.82335,-6.20491,35.22095,5.62246,1.89334,0.61021,-0.68996,-0.34903,0.17257,-26.20273,60.56056,-23.74134
-0.61863,1.95318,-0.30888,2.75977,2.06224,-0.43571,-2.53184,-0.18413,-7.41911,31.74451,1.91333,2.41193,0.53700,-0.74763,-0.34995,0.17382,-21.05327,41.60572,-108.83790
-0.56206,1.98258,-0.31301,3.01820,2.07109,-0.40765,-2.91307,0.30395,-8.02637,33.03934,0.44367,4.68020,0.46932,-0.79174,-0.35008,0.17414,-31.68711,58.87762,-86.50985
-0.47618,2.00871,-0.31234,3.63776,2.03094,-0.31766,-2.79987,1.74322,-9.74542,36.30492,-5.06421,5.95319,0.35327,-0.83631,-0.38334,0.16981,32.82508,42.54126,-107.63800
-0.38984,2.02860,-0.31182,4.15776,1.90842,-0.24650,-2.38136,3.10301,-11.38168,38.85074,-13.45623,3.75155,0.22489,-0.86441,-0.42070,0.15888,59.22907,32.81253,-136.09710
-0.29885,2.04002,-0.31313,4.62886,1.68952,-0.21669,-2.10331,4.24331,-12.84870,39.98218,-24.32616,0.53810,0.08429,-0.87748,-0.44874,0.14683,48.07863,35.03291,-146.22260
-0.19677,2.03379,-0.31867,5.16679,1.24512,-0.24125,-1.75596,5.45177,-14.32449,34.98025,-39.61892,-3.81815,-0.07244,-0.86779,-0.47305,0.13382,37.76320,34.12054,-141.08420
-0.09061,1.99782,-0.33088,5.66027,0.44272,-0.34940,-0.97646,6.38620,-15.41520,26.12318,-62.24544,-9.39951,-0.22003,-0.83103,-0.49772,0.11513,53.01195,1.96195,-92.43654
0.00263,1.94765,-0.34690,5.85745,-0.38243,-0.49669,-0.39051,6.30854,-16.06537,6.02593,-75.29801,-13.88497,-0.34499,-0.78703,-0.50543,0.07813,9.22036,-26.99745,-84.05787
0.07559,1.86507,-0.36934,5.73438,-1.46552,-0.71498,-0.00447,5.59181,-15.39161,-22.01455,-76.63206,-16.41434,-0.42141,-0.75061,-0.50688,0.04541,-19.85458,-53.61556,17.80570
0.11265,1.75834,-0.39936,5.11441,-2.70405,-1.00430,-0.49222,4.28005,-13.93254,-45.34782,-60.47970,-14.95840,-0.46343,-0.73938,-0.48832,0.00993,-52.77748,-31.62799,93.13139
0.13646,1.67197,-0.42514,4.41229,-3.42505,-1.17877,-1.55513,3.38203,-12.37593,-54.24318,-44.01997,-9.47312,-0.49972,-0.73892,-0.45161,-0.01796,-64.18900,11.90787,125.31420
0.15251,1.59414,-0.44690,3.75225,-3.86985,-1.25570,-2.51812,2.60269,-10.99304,-55.32153,-31.44586,-3.07160,-0.52879,-0.74063,-0.41172,-0.04825,-71.82336,27.15311,135.11490
0.15244,1.51573,-0.46424,3.00172,-4.22783,-1.25168,-3.44047,1.81262,-9.50670,-52.23077,-20.64184,3.30934,-0.54315,-0.74964,-0.36955,-0.08040,-71.66656,21.79593,126.48960
0.14190,1.43914,-0.47412,2.24068,-4.48808,-1.13886,-3.44533,1.80404,-8.37127,-45.50021,-10.63139,9.51476,-0.56672,-0.74429,-0.34144,-0.09097,-12.92712,16.69921,83.25959
0.13923,1.36946,-0.47954,1.74793,-4.59369,-0.98515,-2.19898,2.44845,-8.07490,-38.97155,-4.65200,14.54414,-0.61459,-0.70838,-0.33842,-0.07713,90.45269,1.99299,26.37084
0.12875,1.30310,-0.47665,1.24871,-4.62853,-0.74532,-0.19786,2.17252,-8.32060,-33.29221,-0.32852,18.92195,-0.66201,-0.64633,-0.37194,-0.07527,131.13930,-94.02097,-45.29018
0.11911,1.24270,-0.47213,0.86688,-4.57122,-0.53401,0.17202,1.13040,-8.14106,-28.05966,6.26614,19.04439,-0.68628,-0.60770,-0.38510,-0.10687,32.42172,-82.52840,-2.82239
0.09979,1.19187,-0.46170,0.42408,-4.39000,-0.28155,-1.38557,-0.88457,-6.77567,-27.13041,13.09093,13.40940,-0.66253,-0.61984,-0.37753,-0.18530,-138.69560,-93.77457,65.50268
0.08455,1.14356,-0.45666,0.12532,-4.21026,-0.15446,-2.98730,-1.21913,-5.29764,-25.48520,15.58367,8.57054,-0.64401,-0.64612,-0.33788,-0.23157,-165.93890,54.04279,132.68340
0.06061,1.10089,-0.45080,-0.23622,-3.98663,-0.04206,-4.18463,-1.20858,-4.07673,-21.62704,13.36158,4.43449,-0.62552,-0.66977,-0.29559,-0.26974,-85.27753,43.32665,69.73190
0.03847,1.05659,-0.44782,-0.50553,-3.82910,0.00888,-4.30263,-0.80387,-3.62468,-18.53190,11.51210,1.81760,-0.62815,-0.67223,-0.26478,-0.28884,-26.72395,44.27878,31.33882
0.01733,1.01163,-0.44531,-0.70362,-3.70995,0.04297,-3.46486,-0.48956,-3.58222,-15.45531,10.72240,2.09056,-0.64504,-0.65754,-0.25622,-0.29313,50.44840,21.84816,4.67362
-0.00862,0.97111,-0.44147,-0.93080,-3.55345,0.08868,-1.91087,-0.38405,-3.66888,-13.33840,9.88412,2.95173,-0.67014,-0.62981,-0.27197,-0.28335,98.81287,-17.97456,-1.57716
-0.03401,0.93187,-0.43789,-1.10930,-3.40961,0.12240,-1.11243,-0.40459,-3.71003,-12.46777,9.73778,2.95103,-0.68898,-0.60584,-0.27808,-0.28448,73.96924,-23.14869,-1.46651
-0.06289,0.89636,-0.43479,-1.30391,-3.23552,0.14234,-1.33772,-0.18140,-3.67961,-12.43452,10.93431,1.24115,-0.70134,-0.59368,-0.25863,-0.29794,-1.79728,8.68871,0.68661
-0.09208,0.86287,-0.43271,-1.46545,-3.06547,0.14317,-2.20439,0.38747,-3.57375,-11.29066,12.11227,0.45759,-0.70874,-0.59246,-0.21531,-0.31672,-36.61634,46.27666,0.29473
-0.12219,0.83220,-0.43103,-1.60555,-2.88637,0.13793,-3.52319,1.17103,-3.49272,-8.70057,13.11984,-0.33190,-0.70997,-0.59734,-0.14925,-0.34184,-78.78046,77.75148,-0.88103
-0.15060,0.80279,-0.42895,-1.69192,-2.72998,0.14005,-4.20074,1.73087,-3.48098,-5.90047,14.17393,-0.61541,-0.71238,-0.59540,-0.09143,-0.36007,-63.39279,71.96922,-9.07598
-0.17931,0.77888,-0.42628,-1.76752,-2.53378,0.14978,-3.98661,2.02399,-3.48214,-4.45715,15.59290,-0.33902,-0.72148,-0.58638,-0.05410,-0.36426,0.41805,29.07564,-9.30957
-0.20802,0.76109,-0.42301,-1.82640,-2.28260,0.16578,-2.81793,1.91101,-3.38772,-2.18630,16.86966,0.66837,-0.73922,-0.57169,-0.04798,-0.35273,64.34735,-19.28616,-3.32527
-0.23508,0.74566,-0.41948,-1.84886,-2.04264,0.18291,-1.81851,1.67754,-3.12394,-0.65827,17.26979,1.96298,-0.75328,-0.56016,-0.04858,-0.34120,78.01743,-33.66418,7.98459
-0.26118,0.73401,-0.41573,-1.85302,-1.79788,0.19965,-1.54644,1.67126,-2.70470,0.16301,16.82627,1.99540,-0.75736,-0.55806,-0.03628,-0.33713,36.40916,-13.03850,25.13234
-0.28627,0.72265,-0.41216,-1.84285,-1.60251,0.21030,-1.69734,1.93082,-2.35660,1.21564,15.44540,1.12716,-0.75674,-0.56042,-0.00956,-0.33642,0.37483,19.94007,29.95383
-0.31010,0.71428,-0.40813,-1.81513,-1.40502,0.22535,-1.84778,2.27135,-2.09233,2.43648,13.31496,1.15148,-0.75540,-0.56356,0.02174,-0.33360,-5.79955,30.84108,20.15766
-0.33240,0.70828,-0.40250,-1.77038,-1.21106,0.25953,-1.72262,2.33250,-2.00994,3.12921,11.67846,2.52155,-0.75876,-0.56031,0.04418,-0.32922,9.00052,11.67231,5.80194
-0.35349,0.70196,-0.39536,-1.71754,-1.05878,0.30945,-1.53509,1.92872,-2.07873,4.82466,10.59967,3.68904,-0.76539,-0.54847,0.05463,-0.33222,7.55431,-25.39294,-2.84523
-0.37373,0.69447,-0.38814,-1.66429,-0.95613,0.34981,-1.40275,1.54859,-2.11377,6.03133,10.14903,4.15655,-0.77146,-0.53615,0.06327,-0.33675,9.36968,-38.50534,-2.82664
-0.38943,0.69290,-0.37882,-1.55717,-0.79311,0.40917,-1.47118,1.02801,-2.04056,7.73995,10.12345,3.50723,-0.77351,-0.52386,0.06804,-0.35018,-5.11629,-34.47259,5.61214
-0.40304,0.69198,-0.37073,-1.44162,-0.65125,0.44078,-1.70209,0.78367,-1.81113,9.11526,9.94874,1.37344,-0.76978,-0.51795,0.07913,-0.36457,-18.26581,-17.29895,17.45071
-0.41263,0.69396,-0.36444,-1.28951,-0.49358,0.44059,-1.77533,0.68355,-1.43414,10.12541,9.92981,-1.56792,-0.76381,-0.51826,0.08843,-0.37440,-8.49524,-3.72116,23.50064
-0.42103,0.69659,-0.36053,-1.14915,-0.35661,0.40612,-1.62586,0.75850,-1.01707,10.18201,9.65898,-3.42358,-0.75835,-0.52369,0.09637,-0.37599,9.81743,4.87682,27.23505
-0.42877,0.69943,-0.35797,-1.03023,-0.24623,0.36061,-1.39500,0.87733,-0.64505,9.84423,8.82256,-4.28955,-0.75334,-0.53132,0.10317,-0.37354,18.49247,12.49614,29.75212
-0.43257,0.70486,-0.35736,-0.87805,-0.12104,0.29643,-0.98605,0.95118,-0.24777,9.23032,7.09593,-3.84016,-0.74939,-0.54200,0.10398,-0.36584,27.62195,7.58291,23.98475
-0.43526,0.70987,-0.35658,-0.73609,-0.02449,0.24610,-0.63583,0.89579,0.01546,8.71537,5.25859,-2.66331,-0.74698,-0.54964,0.10220,-0.35982,23.96723,-1.22533,16.31971
-0.43966,0.71282,-0.35465,-0.65055,0.02221,0.22368,-0.46353,0.80205,0.13122,8.49870,4.31128,-1.95036,-0.74504,-0.55392,0.10211,-0.35730,20.06719,-6.75445,12.64512
-0.43956,0.71730,-0.35314,-0.51878,0.08053,0.20027,-0.32408,0.64451,0.27959,8.13242,3.15588,-0.92433,-0.74232,-0.55870,0.09892,-0.35642,11.62696,-10.26176,9.39241
-0.43826,0.72144,-0.35114,-0.39222,0.12328,0.18804,-0.33474,0.53008,0.40439,7.90485,2.29303,-0.49959,-0.73787,-0.56331,0.09849,-0.35850,0.91248,-7.03099,8.47036
-0.43937,0.72438,-0.34880,-0.32953,0.14016,0.18371,-0.37016,0.48715,0.46054,7.92945,1.98811,-0.44889,-0.73366,-0.56729,0.10034,-0.36035,-2.19019,-6.60070,7.87515
-0.43513,0.72855,-0.34680,-0.20716,0.17007,0.17569,-0.52673,0.43322,0.60205,7.47193,1.81521,-0.34882,-0.72578,-0.57313,0.10287,-0.36631,-7.55670,-4.11208,9.14562
-0.43082,0.73273,-0.34488,-0.10602,0.19485,0.16812,-0.65628,0.35196,0.72707,7.17732,1.77121,-0.96460,-0.71765,-0.57867,0.10452,-0.37310,-12.13476,-2.85143,9.89032
-0.42449,0.73740,-0.34340,0.00511,0.22188,0.15556,-0.61083,0.13406,0.83158,6.74263,1.66275,-0.91565,-0.71195,-0.58281,0.09913,-0.37899,3.69824,-13.57129,7.47592
-0.41820,0.74210,-0.34219,0.09405,0.24454,0.14132,-0.60865,0.00813,0.91896,6.07221,1.57980,-1.01687,-0.70554,-0.58741,0.09564,-0.38473,2.18309,-10.25208,6.43952
-0.41196,0.74686,-0.34124,0.16346,0.26325,0.12648,-0.59682,-0.07149,0.98524,5.60771,1.58559,-1.52136,-0.69915,-0.59218,0.09256,-0.38981,-0.71804,-6.37640,6.37742
-0.40375,0.75242,-0.34134,0.24700,0.28974,0.09975,-0.51190,-0.14190,1.08418,4.94744,1.76282,-1.91165,-0.69281,-0.59815,0.08715,-0.39323,5.81327,-4.74537,5.74919
-0.39530,0.75864,-0.34241,0.31829,0.32107,0.06516,-0.39893,-0.13607,1.23744,4.08373,2.06946,-2.33428,-0.68524,-0.60677,0.08149,-0.39451,6.87182,0.85866,9.55156
-0.38726,0.76509,-0.34388,0.37022,0.34987,0.03125,-0.27400,-0.09473,1.38359,3.41112,2.05194,-2.50732,-0.67744,-0.61638,0.07571,-0.39424,8.31598,3.27163,10.49752
