posX, posY, posZ, velX, velY, velZ, angVelX, angVelY, angVelZ, accX, accY, accZ, rotX, rotY, rotZ, rotW, angAccX, angAccY, angAccZ
-0.26615,1.06842,-0.50820,-0.16867,0.53872,-0.20333,0.09206,1.26151,1.10806,-2.16702,-2.04128,1.49822,-0.45212,-0.85786,-0.07667,-0.23192,-13.91886,-2.47370,-1.92768
-0.27046,1.07384,-0.50942,-0.19774,0.51028,-0.18004,0.02455,1.25442,1.01966,-2.07512,-1.95861,1.65252,-0.44821,-0.86209,-0.07242,-0.22509,-7.01101,-1.75085,-5.69098
-0.27512,1.07890,-0.51017,-0.22622,0.48306,-0.15465,-0.04199,1.23489,0.98285,-1.89478,-1.95300,1.98514,-0.44324,-0.86663,-0.06836,-0.21869,-3.99534,-1.09442,-3.61351
-0.28004,1.08356,-0.51042,-0.25225,0.45395,-0.12701,-0.14606,1.18222,0.97364,-1.83250,-2.25179,1.99408,-0.43704,-0.87129,-0.06353,-0.21407,-7.43075,-3.65975,1.06842
-0.28508,1.08739,-0.51019,-0.27516,0.42069,-0.09819,-0.19057,1.14558,0.91301,-1.61346,-2.48021,2.00725,-0.43271,-0.87500,-0.05926,-0.20886,-4.82917,-3.47356,-2.77128
-0.29026,1.09052,-0.50942,-0.29586,0.38408,-0.06741,-0.23440,1.09008,0.83331,-1.34676,-2.73482,2.36167,-0.42925,-0.87799,-0.05493,-0.20458,-2.41129,-3.25149,-5.90742
-0.29531,1.09342,-0.50838,-0.30958,0.35068,-0.03904,-0.26775,1.01940,0.75638,-0.97556,-2.83132,2.33765,-0.42611,-0.88056,-0.05090,-0.20112,-4.18277,-5.85242,-4.84357
-0.30027,1.09490,-0.50629,-0.31977,0.30545,-0.00190,-0.27086,0.93036,0.59227,-0.52999,-2.70657,2.17302,-0.42619,-0.88130,-0.04729,-0.19857,-1.31652,-6.31084,-9.39275
-0.30514,1.09649,-0.50419,-0.32708,0.26996,0.02842,-0.24524,0.86702,0.45451,-0.54937,-2.37352,2.14221,-0.42674,-0.88192,-0.04440,-0.19529,1.55356,-4.65396,-11.13290
-0.31020,1.09818,-0.50207,-0.33491,0.24256,0.05293,-0.24950,0.82048,0.37985,-0.63139,-2.19030,1.98290,-0.42604,-0.88311,-0.04095,-0.19217,-0.11946,-4.00443,-6.75844
-0.31530,1.09910,-0.49946,-0.34319,0.21353,0.07851,-0.25425,0.78763,0.30840,-0.55051,-1.86426,1.63688,-0.42572,-0.88411,-0.03732,-0.18902,-1.13770,-3.45034,-5.33933
-0.32048,1.09985,-0.49680,-0.35127,0.18775,0.10009,-0.26693,0.76508,0.28142,-0.54494,-1.79377,1.49681,-0.42444,-0.88555,-0.03360,-0.18579,-0.10897,-1.56107,-3.26510
-0.32596,1.10027,-0.49384,-0.36021,0.15864,0.12196,-0.28766,0.73500,0.26356,-0.51399,-1.81625,1.18885,-0.42284,-0.88702,-0.02973,-0.18308,-2.31993,-2.26317,0.05840
-0.33125,1.10053,-0.49094,-0.36486,0.13296,0.13875,-0.23942,0.73023,0.21029,-0.24244,-1.79747,1.05788,-0.42291,-0.88793,-0.02729,-0.17885,2.42397,-0.45221,-3.60195
-0.33641,1.10077,-0.48810,-0.36678,0.11207,0.15138,-0.18371,0.72029,0.15938,-0.05617,-1.66221,1.00916,-0.42342,-0.88860,-0.02543,-0.17454,4.12583,0.01769,-5.45555
-0.34143,1.10025,-0.48494,-0.36669,0.08498,0.16608,-0.15085,0.69139,0.12550,0.12889,-1.73193,0.91727,-0.42358,-0.88926,-0.02360,-0.17098,2.84540,-1.07627,-2.01010
-0.34609,1.09943,-0.48193,-0.36268,0.06120,0.17612,-0.14160,0.67139,0.07974,0.35791,-1.55678,0.51079,-0.42417,-0.88968,-0.02106,-0.16766,0.35078,-2.50282,-3.42296
-0.35072,1.09894,-0.47916,-0.35884,0.04599,0.18056,-0.13673,0.66497,0.04678,0.38458,-1.44987,0.39455,-0.42469,-0.89016,-0.01835,-0.16409,0.66489,-0.96386,-3.76146
-0.35524,1.09759,-0.47637,-0.35294,0.02035,0.18433,-0.25139,0.63246,0.06733,0.41065,-1.38295,0.14388,-0.42297,-0.89127,-0.01267,-0.16302,-5.68521,-1.48524,1.48149
-0.35970,1.09653,-0.47382,-0.34660,0.00177,0.18384,-0.35466,0.61877,0.08934,0.47694,-1.28586,-0.19770,-0.42097,-0.89251,-0.00647,-0.16176,-8.34240,-1.36857,2.51661
-0.36395,1.09528,-0.47140,-0.33856,-0.01581,0.18196,-0.42359,0.60330,0.08394,0.64075,-1.22359,-0.15253,-0.41976,-0.89335,-0.00062,-0.16042,-5.44438,-0.36453,0.30868
-0.36803,1.09402,-0.46893,-0.32943,-0.02996,0.18081,-0.46172,0.56906,0.07569,0.87462,-1.13171,-0.12419,-0.41876,-0.89396,0.00444,-0.15952,-3.76096,-2.16328,-0.37959
-0.37160,1.09238,-0.46653,-0.31541,-0.04626,0.17914,-0.46141,0.52640,0.03040,1.00500,-1.18838,-0.24956,-0.41914,-0.89390,0.00851,-0.15872,-0.81935,-3.77225,-1.46959
-0.37490,1.09056,-0.46432,-0.30049,-0.06204,0.17525,-0.41137,0.50259,-0.08737,0.94192,-1.04608,-0.42975,-0.42242,-0.89264,0.01164,-0.15689,1.99138,-2.87225,-7.75070
-0.37818,1.08862,-0.46240,-0.28766,-0.07642,0.16768,-0.36818,0.50722,-0.20857,0.71506,-0.73687,-0.55480,-0.42655,-0.89110,0.01520,-0.15420,2.88997,0.02955,-8.27146
-0.38157,1.08695,-0.46068,-0.27888,-0.08437,0.15883,-0.33197,0.53381,-0.29439,0.59089,-0.39168,-0.69097,-0.43025,-0.88983,0.01896,-0.15076,2.73679,1.32665,-6.98143
-0.38496,1.08550,-0.45915,-0.27197,-0.08785,0.14909,-0.30306,0.56338,-0.35820,0.46004,-0.12186,-0.65278,-0.43379,-0.88865,0.02279,-0.14704,2.39472,2.17931,-4.94150
-0.38825,1.08435,-0.45790,-0.26512,-0.08534,0.13743,-0.29309,0.58798,-0.40364,0.38194,0.45932,-0.63078,-0.43701,-0.88753,0.02708,-0.14349,-0.07430,1.28481,-2.73153
-0.39163,1.08366,-0.45644,-0.26080,-0.07710,0.13089,-0.25347,0.59978,-0.43172,0.34656,0.94550,-0.56243,-0.44012,-0.88648,0.03024,-0.13974,2.12903,1.23398,-2.39614
-0.39495,1.08371,-0.45509,-0.25666,-0.05999,0.12428,-0.19293,0.60748,-0.44128,0.34118,1.53917,-0.39379,-0.44304,-0.88559,0.03239,-0.13561,4.60852,0.29326,-2.38597
-0.39835,1.08447,-0.45376,-0.25421,-0.03544,0.11889,-0.17599,0.58607,-0.36197,0.24030,1.98373,-0.22504,-0.44324,-0.88584,0.03463,-0.13278,2.66286,-0.78289,3.71472
-0.40180,1.08565,-0.45235,-0.25317,-0.01029,0.11574,-0.19173,0.55027,-0.22720,0.17435,2.23293,-0.18837,-0.44104,-0.88709,0.03712,-0.13104,-0.50850,-1.97935,9.98138
-0.40512,1.08798,-0.45102,-0.25032,0.02596,0.11201,-0.21786,0.50307,-0.00311,0.27271,2.30441,-0.31472,-0.43521,-0.89000,0.03920,-0.13021,-1.58211,-3.13259,14.45677
-0.40833,1.09018,-0.44972,-0.24614,0.05278,0.10857,-0.20119,0.46861,0.14335,0.35826,2.16767,-0.34503,-0.43051,-0.89245,0.04036,-0.12871,0.26006,-2.56098,12.99242
-0.41128,1.09278,-0.44848,-0.23917,0.07934,0.10515,-0.13949,0.42474,0.25953,0.52671,1.61759,-0.27937,-0.42599,-0.89489,0.03976,-0.12699,3.93142,-2.76681,9.86180
-0.41370,1.09536,-0.44726,-0.22608,0.10081,0.10197,-0.00448,0.35500,0.27553,0.90244,1.09552,-0.27717,-0.42428,-0.89612,0.03643,-0.12500,7.46667,-3.96332,2.37888
-0.41579,1.09764,-0.44611,-0.21021,0.11366,0.09886,0.16493,0.29592,0.19667,1.15223,0.75229,-0.26310,-0.42566,-0.89605,0.03162,-0.12208,11.62348,-3.88946,-4.80541
-0.41786,1.09971,-0.44497,-0.19806,0.12067,0.09603,0.28254,0.25504,0.12264,1.24457,0.64418,-0.26516,-0.42741,-0.89575,0.02736,-0.11921,11.99372,-3.90566,-7.31044
-0.41914,1.10201,-0.44420,-0.17690,0.13019,0.08956,0.42118,0.18134,0.03963,1.15973,0.53100,-0.35649,-0.43016,-0.89491,0.02111,-0.11689,8.56244,-4.16246,-4.83717
-0.42066,1.10428,-0.44358,-0.16294,0.13768,0.08234,0.45112,0.13476,0.04364,1.05812,0.51785,-0.39231,-0.43033,-0.89509,0.01731,-0.11545,4.58435,-3.32215,-1.87996
-0.42214,1.10656,-0.44312,-0.15123,0.14397,0.07403,0.38933,0.07682,0.14877,0.93133,0.36873,-0.52060,-0.42703,-0.89663,0.01543,-0.11602,-3.14636,-4.26161,5.95932
-0.42346,1.10879,-0.44279,-0.13946,0.14766,0.06457,0.29631,0.02294,0.26487,0.78686,0.22658,-0.76894,-0.42250,-0.89859,0.01468,-0.11752,-6.73378,-4.32728,8.87190
-0.42469,1.11098,-0.44272,-0.12861,0.15019,0.05362,0.24029,-0.00240,0.34888,0.75902,0.11573,-0.79550,-0.41831,-0.90048,0.01369,-0.11819,-4.54888,-2.11323,5.32581
-0.42576,1.11303,-0.44279,-0.11776,0.15010,0.04257,0.20449,-0.02799,0.42363,0.82859,-0.13322,-0.83615,-0.41388,-0.90245,0.01232,-0.11889,-3.34945,-1.59037,6.17155
-0.42651,1.11480,-0.44301,-0.10460,0.14581,0.03098,0.20619,-0.04707,0.43909,0.85676,-0.41651,-0.96628,-0.41087,-0.90382,0.01024,-0.11910,-0.77546,-1.96979,3.34107
-0.42698,1.11635,-0.44364,-0.08968,0.13939,0.01599,0.28472,-0.01832,0.36530,0.91623,-0.39730,-0.92925,-0.41083,-0.90417,0.00677,-0.11683,4.87788,1.50948,-5.03621
-0.42754,1.11788,-0.44419,-0.07930,0.13370,0.00487,0.32762,-0.00849,0.34428,0.96821,-0.54504,-0.87525,-0.40958,-0.90496,0.00355,-0.11522,4.27122,1.74058,-3.11054
-0.42775,1.11906,-0.44507,-0.06592,0.12404,-0.00837,0.33673,-0.01522,0.32570,1.02240,-0.90399,-0.89857,-0.40829,-0.90566,0.00089,-0.11440,1.50083,0.28585,-0.77846
-0.42763,1.11978,-0.44616,-0.05022,0.10967,-0.02195,0.32325,-0.01715,0.24376,1.09509,-1.12642,-0.94934,-0.40895,-0.90544,-0.00085,-0.11375,-0.34765,-0.48395,-3.89556
-0.42711,1.12013,-0.44749,-0.03180,0.09260,-0.03664,0.27035,-0.02330,0.15100,1.26086,-1.02407,-0.85005,-0.41036,-0.90479,-0.00125,-0.11382,-2.31867,-0.10605,-6.93270
-0.42666,1.12065,-0.44875,-0.01793,0.08153,-0.04724,0.20588,-0.03839,0.11017,1.18239,-0.83701,-0.86422,-0.41065,-0.90457,-0.00121,-0.11456,-5.50325,-1.27769,-3.96379
-0.42595,1.12035,-0.44966,-0.00387,0.07204,-0.05950,0.12815,-0.04925,0.08907,0.91168,-0.44600,-0.93143,-0.41081,-0.90435,0.00041,-0.11572,-5.96071,-1.33964,-1.73147
-0.42544,1.12113,-0.45127,0.00646,0.06905,-0.07337,0.07354,-0.03247,0.11993,0.55422,0.05855,-0.84807,-0.40944,-0.90495,0.00093,-0.11588,-3.50760,0.90050,0.58207
-0.42502,1.12291,-0.45367,0.01054,0.07071,-0.08279,0.04004,-0.01913,0.19285,0.32675,0.21763,-0.78388,-0.40589,-0.90654,0.00071,-0.11594,-2.87405,1.39043,5.05480
-0.42466,1.12418,-0.45558,0.01394,0.07445,-0.09328,0.02775,0.00195,0.26536,0.12040,0.37203,-0.86604,-0.40230,-0.90820,0.00066,-0.11549,-2.96794,1.21689,6.43168
-0.42439,1.12567,-0.45756,0.01533,0.08086,-0.10321,0.07181,0.05052,0.30164,0.06889,0.47767,-0.58997,-0.39967,-0.90963,-0.00054,-0.11326,3.10964,3.39712,2.30503
-0.42413,1.12721,-0.45941,0.01689,0.08624,-0.10959,0.10178,0.06280,0.34927,0.25941,0.30915,-0.34627,-0.39644,-0.91121,-0.00206,-0.11191,2.95283,1.68489,3.62623
-0.42352,1.12875,-0.46127,0.02350,0.09060,-0.11475,0.15739,0.06053,0.33957,0.43973,0.20003,-0.29221,-0.39474,-0.91211,-0.00452,-0.11054,3.23504,-0.39298,0.78558
-0.42271,1.13016,-0.46300,0.03101,0.09259,-0.11685,0.22357,0.04928,0.28465,0.58898,0.08417,-0.03156,-0.39463,-0.91230,-0.00759,-0.10915,4.69881,0.24162,-4.13713
-0.42170,1.13156,-0.46456,0.04004,0.09400,-0.11627,0.28148,0.02413,0.21937,0.73973,0.17696,0.09705,-0.39521,-0.91213,-0.01093,-0.10817,4.04866,-1.24033,-4.58224
-0.42059,1.13311,-0.46606,0.04838,0.09726,-0.11472,0.35230,-0.00122,0.15859,0.63886,0.37566,0.12931,-0.39618,-0.91178,-0.01515,-0.10706,5.56425,-2.40330,-5.16386
-0.41942,1.13506,-0.46744,0.05596,0.10537,-0.11221,0.43502,-0.03903,0.13049,0.47617,0.62183,0.21502,-0.39669,-0.91157,-0.02054,-0.10611,6.05258,-1.60474,-3.68180
-0.41845,1.13719,-0.46880,0.05937,0.11409,-0.11035,0.45036,-0.08823,0.19087,0.25244,0.59310,0.12854,-0.39438,-0.91243,-0.02487,-0.10641,1.74733,-3.46430,3.49469
-0.41750,1.13933,-0.47020,0.06160,0.12127,-0.10934,0.46982,-0.13062,0.25628,0.08140,0.42357,-0.04123,-0.39149,-0.91350,-0.02952,-0.10673,0.35794,-3.92206,5.16689
-0.41657,1.14144,-0.47172,0.06322,0.12665,-0.11018,0.54887,-0.13348,0.25746,-0.02316,0.28971,-0.20437,-0.39036,-0.91393,-0.03547,-0.10532,3.90721,-0.70738,1.00378
-0.41575,1.14349,-0.47325,0.06297,0.12984,-0.11135,0.64478,-0.10592,0.23515,-0.06820,0.24134,-0.12785,-0.39011,-0.91408,-0.04197,-0.10253,7.39631,1.92507,-1.87362
-0.41501,1.14560,-0.47477,0.06162,0.13315,-0.11199,0.79765,-0.06614,0.19657,-0.10288,0.24042,-0.10674,-0.39076,-0.91385,-0.05056,-0.09815,9.40900,2.92069,-1.82429
-0.41415,1.14767,-0.47629,0.06179,0.13552,-0.11185,0.98725,-0.02698,0.14239,0.10523,0.11540,0.02259,-0.39234,-0.91310,-0.06108,-0.09262,13.61201,3.62671,-3.87649
-0.41316,1.14966,-0.47776,0.06393,0.13586,-0.11142,1.16458,-0.00579,0.06939,0.19921,-0.13070,0.10501,-0.39488,-0.91172,-0.07246,-0.08708,13.40771,2.18909,-4.88422
-0.41210,1.15150,-0.47926,0.06664,0.13418,-0.11129,1.30206,0.00746,0.01211,0.16722,-0.05406,-0.09938,-0.39731,-0.91019,-0.08379,-0.08170,9.24277,1.32422,-4.19089
-0.41112,1.15342,-0.48088,0.06728,0.13399,-0.11300,1.43036,0.04664,-0.02579,-0.03292,-0.04413,-0.09589,-0.39956,-0.90863,-0.09539,-0.07513,10.19812,3.05232,-3.07988
-0.41033,1.15531,-0.48259,0.06527,0.13340,-0.11575,1.48928,0.07691,-0.00663,-0.10824,-0.11066,-0.15203,-0.40013,-0.90771,-0.10578,-0.06905,5.82304,2.95607,-0.20349
-0.40965,1.15707,-0.48453,0.06194,0.13137,-0.12120,1.44315,0.09782,0.07939,-0.17253,-0.21728,-0.37843,-0.39827,-0.90795,-0.11351,-0.06418,-2.06235,0.86447,5.04473
-0.40888,1.15869,-0.48650,0.06046,0.12734,-0.12631,1.38038,0.11277,0.14611,-0.10804,-0.50435,-0.45265,-0.39633,-0.90821,-0.12045,-0.05970,-4.77274,0.63359,6.28491
-0.40800,1.15995,-0.48879,0.06091,0.11817,-0.13511,1.27714,0.15553,0.19193,0.03547,-0.72786,-0.62651,-0.39454,-0.90863,-0.12534,-0.05501,-6.66690,2.14273,3.55211
-0.40702,1.16086,-0.49122,0.06303,0.10630,-0.14397,1.18317,0.20567,0.20200,0.18189,-1.01822,-0.64649,-0.39360,-0.90872,-0.12961,-0.05004,-6.15799,3.48444,1.65878
-0.40581,1.16145,-0.49372,0.06824,0.09172,-0.15199,1.07939,0.24294,0.18563,0.51658,-1.05468,-0.48678,-0.39333,-0.90859,-0.13293,-0.04560,-7.61750,3.40231,-0.22658
-0.40446,1.16212,-0.49605,0.07406,0.08211,-0.15551,1.04234,0.25989,0.16579,0.58017,-0.81706,-0.38025,-0.39332,-0.90810,-0.13772,-0.04099,-6.76619,1.53872,-1.12323
-0.40270,1.16234,-0.49822,0.08453,0.06818,-0.15572,1.11401,0.31635,0.08923,0.59981,-0.72953,0.15107,-0.39548,-0.90634,-0.14487,-0.03395,3.38678,3.67084,-3.77893
-0.40086,1.16261,-0.50016,0.09408,0.05808,-0.15217,1.19181,0.34165,0.03767,0.78741,-0.73940,0.33412,-0.39727,-0.90446,-0.15296,-0.02719,6.21622,2.83240,-4.50427
-0.39900,1.16284,-0.50206,0.10187,0.04962,-0.14894,1.22043,0.34172,0.01765,0.90142,-1.05943,0.46667,-0.39827,-0.90289,-0.16037,-0.02139,5.05848,1.53201,-2.89424
-0.39640,1.16208,-0.50378,0.11913,0.02782,-0.14396,1.08475,0.26359,0.02628,1.17037,-1.48721,0.36571,-0.39802,-0.90236,-0.16409,-0.01995,-6.29528,-3.98682,-0.42476
-0.39378,1.16132,-0.50552,0.13344,0.00989,-0.14082,0.90917,0.16134,0.04818,1.32737,-1.64345,0.34364,-0.39701,-0.90240,-0.16622,-0.02064,-13.52077,-7.17579,1.45627
-0.39077,1.16007,-0.50719,0.15004,-0.01083,-0.13736,0.72741,0.04681,0.05324,1.40059,-1.84254,0.22636,-0.39611,-0.90252,-0.16735,-0.02318,-15.75731,-10.06800,1.42557
-0.38706,1.15809,-0.50881,0.17355,-0.03875,-0.13439,0.57978,-0.03142,-0.03557,1.21956,-1.58108,-0.08319,-0.39813,-0.90142,-0.16808,-0.02590,-11.23951,-6.36017,-4.55571
-0.38335,1.15610,-0.51039,0.19301,-0.06276,-0.13213,0.60722,0.03613,-0.21270,1.01389,-1.38705,0.09200,-0.40415,-0.89818,-0.17147,-0.02310,0.38062,3.55466,-9.67202
-0.38010,1.15459,-0.51201,0.20138,-0.07315,-0.13005,0.64391,0.08856,-0.30752,1.03030,-1.17748,0.29957,-0.40889,-0.89534,-0.17544,-0.01978,4.33088,6.46819,-12.06159
-0.37613,1.15257,-0.51289,0.21816,-0.08874,-0.11761,0.75310,0.16056,-0.45649,0.86425,-0.45272,1.03755,-0.41630,-0.89082,-0.18143,-0.01471,6.31068,4.38128,-7.65357
-0.37244,1.15132,-0.51314,0.22850,-0.09086,-0.09803,0.72147,0.07899,-0.40993,0.89705,0.06302,1.63054,-0.41771,-0.88925,-0.18583,-0.01457,0.17499,-3.17215,0.25964
-0.36880,1.15037,-0.51323,0.23587,-0.08773,-0.07984,0.57186,-0.10987,-0.26292,0.82014,0.27567,1.74068,-0.41501,-0.88992,-0.18828,-0.01923,-8.88945,-11.82841,8.62452
-0.36497,1.14964,-0.51289,0.24448,-0.08151,-0.05878,0.34426,-0.35937,-0.06929,0.49226,0.53553,1.28712,-0.40914,-0.89228,-0.18881,-0.02813,-18.40868,-19.37962,14.29122
-0.36105,1.14902,-0.51252,0.25276,-0.07533,-0.04210,0.28239,-0.46135,-0.00740,0.44768,0.69293,1.06506,-0.40653,-0.89273,-0.19149,-0.03315,-11.35795,-13.76399,9.11287
-0.35669,1.14879,-0.51164,0.26545,-0.06425,-0.02137,0.43648,-0.43203,-0.07404,0.69593,0.89912,1.08942,-0.40828,-0.89036,-0.19873,-0.03271,8.28130,0.51565,-3.34275
-0.35229,1.14898,-0.51074,0.27686,-0.05044,-0.00504,0.61569,-0.37500,-0.12513,0.99436,1.11130,1.12717,-0.41029,-0.88758,-0.20722,-0.03036,14.16693,5.10762,-4.33601
-0.34770,1.14948,-0.50998,0.28846,-0.03482,0.00587,0.67052,-0.36424,-0.10683,1.22214,1.32163,0.94976,-0.41022,-0.88611,-0.21362,-0.02984,8.50859,2.51406,-0.29530
-0.34232,1.15080,-0.50920,0.30900,-0.00976,0.01488,0.57789,-0.42224,-0.02200,1.58738,1.83592,0.39070,-0.40744,-0.88648,-0.21694,-0.03278,-4.47981,-3.88613,4.88583
-0.33640,1.15296,-0.50875,0.33388,0.02274,0.01695,0.47147,-0.45528,0.04860,1.98503,2.82660,-0.05662,-0.40464,-0.88714,-0.21903,-0.03580,-8.64625,-3.30573,4.86170
-0.32973,1.15655,-0.50852,0.36496,0.06976,0.01539,0.39924,-0.47923,0.11568,2.49276,4.08428,-0.30817,-0.40153,-0.88784,-0.22143,-0.03846,-5.85634,-1.55591,4.06290
-0.32234,1.16218,-0.50863,0.39943,0.13734,0.00946,0.36496,-0.48353,0.23292,2.45734,5.69659,-0.67587,-0.39662,-0.88923,-0.22441,-0.03994,-3.40579,-1.30892,6.61615
-0.31479,1.17014,-0.50919,0.42908,0.22475,-0.00206,0.34615,-0.45749,0.43480,1.88288,6.93747,-1.04366,-0.38862,-0.89202,-0.22737,-0.03963,-2.20714,0.68031,12.98850
-0.30747,1.17956,-0.50998,0.44891,0.31450,-0.01417,0.38317,-0.42996,0.65588,1.53607,8.25941,-1.13363,-0.37875,-0.89519,-0.23182,-0.03790,-0.68669,1.78906,16.79401
-0.29999,1.19382,-0.51106,0.46705,0.45749,-0.02773,0.56946,-0.39149,1.00905,0.79867,10.00643,-0.84087,-0.36362,-0.89928,-0.24091,-0.03220,8.71749,1.89087,22.40013
-0.29310,1.21042,-0.51176,0.47266,0.60714,-0.03294,0.89003,-0.33469,1.34397,-0.05883,11.82193,-0.22997,-0.34719,-0.90222,-0.25481,-0.02308,18.99627,4.08023,23.51346
-0.28707,1.22900,-0.51198,0.46481,0.75318,-0.03009,1.28550,-0.21887,1.71403,-1.16395,12.83995,0.38851,-0.32784,-0.90463,-0.27218,-0.00900,28.38461,7.49577,29.24642
-0.28237,1.25354,-0.51166,0.43895,0.95635,-0.01973,1.71788,-0.08434,2.26222,-1.80418,12.45628,1.01962,-0.30060,-0.90771,-0.29259,0.01014,28.82290,11.23283,35.09079
-0.27824,1.27854,-0.51128,0.41006,1.12616,-0.01079,1.86813,-0.06399,2.70920,-2.33842,11.64813,0.57062,-0.27200,-0.91146,-0.30770,0.02409,13.83394,-0.31641,34.45454
-0.27418,1.30224,-0.51122,0.38697,1.24009,-0.00822,1.89411,-0.01510,2.94590,-2.70075,11.05585,0.14637,-0.24702,-0.91417,-0.31922,0.03697,5.65452,-0.92955,28.33748
-0.27244,1.33326,-0.51109,0.33456,1.43309,-0.00545,1.90763,0.20098,3.22733,-3.60069,10.43133,0.30234,-0.22033,-0.91682,-0.32821,0.05630,-1.33309,9.22221,17.70329
-0.27208,1.36426,-0.51037,0.27048,1.59500,0.00570,1.92494,0.46220,3.40195,-4.58242,9.83868,1.18292,-0.19636,-0.91777,-0.33631,0.07766,-2.00192,15.57778,13.19026
-0.27104,1.39183,-0.50951,0.23133,1.67194,0.01650,1.89449,0.52030,3.49841,-4.98450,9.37655,1.80651,-0.17215,-0.91819,-0.34428,0.09367,-3.19660,13.46696,13.00416
-0.27494,1.42669,-0.50673,0.12922,1.83286,0.05228,1.68269,0.34075,3.76144,-6.08494,8.59918,2.51498,-0.13957,-0.92143,-0.34767,0.10301,-8.14511,-12.45958,13.70742
-0.27960,1.46039,-0.50345,0.03430,1.94922,0.08854,1.52089,0.09079,3.97056,-7.67820,8.08074,2.76286,-0.10594,-0.92372,-0.35163,0.10893,-7.52229,-24.23452,13.03797
-0.28698,1.49488,-0.49907,-0.08087,2.05389,0.13378,1.48054,-0.00239,4.16258,-9.26996,7.06310,3.44625,-0.07231,-0.92372,-0.35685,0.11902,-1.71001,-13.05559,12.37669
-0.29600,1.52876,-0.49396,-0.19543,2.12959,0.18034,1.52454,0.01727,4.32586,-10.22841,5.85693,4.08826,-0.03907,-0.92135,-0.36330,0.13268,2.33399,-1.31553,13.53632
-0.31029,1.56388,-0.48636,-0.36354,2.20705,0.25317,1.63304,0.06627,4.54062,-10.91032,3.83033,5.05931,-0.00319,-0.91668,-0.37094,0.14860,4.89942,4.53491,14.15910
-0.32582,1.59738,-0.47777,-0.51757,2.24763,0.32692,1.77082,-0.00897,4.70635,-11.17460,2.15400,5.60894,0.03385,-0.91025,-0.38007,0.16075,9.19873,-1.03820,11.44822
-0.34520,1.62991,-0.46704,-0.69926,2.26442,0.41854,2.00171,-0.06751,4.85460,-11.97011,-0.06838,5.75354,0.07200,-0.90064,-0.39209,0.17297,15.21165,-3.58348,9.29153
-0.36438,1.66058,-0.45651,-0.84027,2.25177,0.48817,2.19212,0.10874,4.95538,-12.25219,-2.07376,5.50631,0.10677,-0.88841,-0.40331,0.19148,13.94294,11.63295,9.38264
-0.38874,1.68853,-0.44397,-1.02886,2.20192,0.57324,2.29184,0.37666,5.12435,-11.41824,-4.41747,5.32599,0.14207,-0.87421,-0.41169,0.21467,1.04232,21.02152,13.16147
-0.41204,1.71489,-0.43214,-1.16331,2.13924,0.63079,2.29171,0.27654,5.25438,-10.47879,-6.15083,4.96195,0.18073,-0.86111,-0.41702,0.22786,0.18964,1.35314,11.81575
-0.43788,1.73796,-0.41929,-1.30636,2.04340,0.69133,2.31513,-0.12342,5.35564,-9.78614,-7.58245,4.25988,0.22342,-0.84801,-0.42165,0.23059,10.16995,-25.65641,4.50519
-0.46485,1.75848,-0.40578,-1.43581,1.92900,0.74877,2.39942,-0.39363,5.39334,-9.23818,-8.87857,3.82090,0.26425,-0.83237,-0.42756,0.23352,14.66522,-22.17434,-0.61922
-0.49267,1.77628,-0.39167,-1.55134,1.79856,0.80263,2.50337,-0.39539,5.41485,-7.98701,-9.94943,3.54108,0.30167,-0.81335,-0.43445,0.24231,8.84134,-0.92517,1.74589
-0.52102,1.79126,-0.37733,-1.65101,1.65320,0.84883,2.57330,-0.29200,5.40766,-6.65802,-11.15897,2.89836,0.33628,-0.79259,-0.44094,0.25355,2.98529,7.96796,1.29030
-0.54960,1.80309,-0.36318,-1.73385,1.49174,0.88285,2.57480,-0.16497,5.40148,-5.36613,-12.19956,1.89341,0.36919,-0.77103,-0.44552,0.26595,-1.84845,9.46942,1.00047
-0.57892,1.81037,-0.34934,-1.80862,1.29222,0.90347,2.51500,-0.11699,5.37689,-3.89043,-13.03018,0.77433,0.40143,-0.74968,-0.44754,0.27666,-5.77766,3.44522,-0.42778
-0.60660,1.81928,-0.33647,-1.84462,1.16069,0.90681,2.50963,-0.18817,5.34634,-3.09569,-13.43788,0.11908,0.43454,-0.72750,-0.44914,0.28319,-1.55350,-2.88492,-2.81728
-0.63522,1.82031,-0.32420,-1.88524,0.94479,0.89998,2.53903,-0.34786,5.27340,-1.88147,-13.73970,-0.89920,0.46750,-0.70519,-0.45029,0.28529,5.16840,-7.93276,-6.12718
-0.66301,1.81837,-0.31275,-1.90434,0.72467,0.87959,2.55753,-0.49049,5.20849,-0.41471,-13.94141,-1.82403,0.49974,-0.68211,-0.45035,0.28664,5.01584,-7.56482,-5.86579
-0.68970,1.81890,-0.30162,-1.90369,0.58709,0.86039,2.55280,-0.54579,5.17185,0.53581,-13.79779,-2.32265,0.53070,-0.65751,-0.44963,0.28961,3.25976,-5.19910,-5.02898
-0.71445,1.81032,-0.29308,-1.87852,0.34700,0.81172,2.47654,-0.61651,5.10892,2.25879,-13.24586,-3.11252,0.55979,-0.63410,-0.44644,0.29196,-1.60849,-4.78743,-3.94572
-0.73672,1.80002,-0.28590,-1.82028,0.11634,0.75286,2.38444,-0.56837,5.07846,3.96733,-12.46963,-3.44555,0.58692,-0.60888,-0.44320,0.29727,-5.25649,0.55216,-1.58329
-0.75848,1.79243,-0.27833,-1.76601,-0.02632,0.70998,2.27429,-0.49300,5.06750,5.01417,-11.57642,-3.77710,0.61255,-0.58280,-0.43909,0.30386,-8.67836,3.28195,-0.71332
-0.77790,1.78209,-0.27205,-1.68733,-0.17902,0.65557,2.04892,-0.36622,5.03985,6.26858,-10.63831,-4.29052,0.63476,-0.55790,-0.43293,0.31368,-14.70800,3.47736,-1.12572
-0.79540,1.77059,-0.26680,-1.59432,-0.31662,0.59641,1.66496,-0.25918,5.03279,7.13764,-9.33866,-4.44035,0.65460,-0.53496,-0.42210,0.32732,-27.11127,0.11650,-0.67479
-0.81089,1.75838,-0.26252,-1.49164,-0.43563,0.53523,1.33101,-0.24524,4.97983,7.90697,-7.74789,-4.25643,0.67335,-0.51353,-0.40955,0.33934,-26.88479,-6.31434,-2.75359
-0.82426,1.74582,-0.25918,-1.37961,-0.53438,0.47288,1.16548,-0.30151,4.83068,8.44834,-6.28072,-4.36038,0.69130,-0.49307,-0.39865,0.34650,-12.87118,-7.10686,-9.44823
-0.83680,1.73381,-0.25614,-1.27868,-0.60228,0.41954,1.09810,-0.36618,4.64678,8.72669,-5.08484,-4.41214,0.70848,-0.47286,-0.38901,0.35091,-4.77571,-6.05056,-14.69773
-0.84630,1.72118,-0.25463,-1.15643,-0.66479,0.35568,1.14771,-0.45435,4.38476,9.00048,-3.79771,-4.50609,0.72464,-0.45415,-0.38165,0.35069,1.80761,-4.42955,-18.17458
-0.85406,1.70883,-0.25416,-1.03300,-0.70978,0.28938,1.32203,-0.54717,4.09031,8.89858,-2.56756,-4.84199,0.74081,-0.43544,-0.37697,0.34567,13.84548,-0.66007,-20.11423
-0.85995,1.69711,-0.25484,-0.90838,-0.73690,0.22018,1.47727,-0.63358,3.78459,9.09563,-1.40438,-5.20184,0.75575,-0.41833,-0.37286,0.33885,13.92650,-0.53423,-21.98829
-0.86516,1.68610,-0.25605,-0.80049,-0.74764,0.15808,1.55726,-0.73434,3.55796,9.07151,-0.49140,-5.43429,0.77052,-0.40169,-0.36669,0.33239,11.00955,-2.33283,-20.58151
-0.86736,1.67590,-0.25923,-0.67272,-0.74437,0.08105,1.55828,-0.89260,3.36271,9.34442,0.76962,-5.95047,0.78501,-0.38712,-0.35751,0.32572,6.28003,-7.02051,-16.56760
-0.86736,1.66696,-0.26374,-0.53853,-0.72346,0.00059,1.38387,-1.12821,3.24231,9.90330,2.02700,-5.92818,0.79915,-0.37507,-0.34196,0.32210,-5.07635,-16.01053,-12.19095
-0.86498,1.65958,-0.26922,-0.39777,-0.68503,-0.07770,1.22700,-1.36199,3.14505,10.38324,3.53283,-5.24101,0.81307,-0.36364,-0.32461,0.31828,-8.99333,-19.93617,-9.37444
-0.86023,1.65415,-0.27534,-0.25114,-0.62643,-0.14934,1.26792,-1.50431,2.98095,10.71930,5.14274,-4.57181,0.82661,-0.35161,-0.31171,0.30971,2.69607,-11.77087,-10.75359
-0.85218,1.65174,-0.28211,-0.08438,-0.53448,-0.21675,1.45555,-1.56405,2.71654,10.34699,6.55590,-3.55650,0.83913,-0.34039,-0.30380,0.29613,13.95340,-0.16220,-15.13189
-0.84381,1.65117,-0.28797,0.05531,-0.43361,-0.25804,1.61991,-1.54076,2.46661,9.69845,8.01452,-2.37077,0.85017,-0.32923,-0.29818,0.28269,13.91951,5.22130,-15.55807
-0.83461,1.65323,-0.29309,0.17829,-0.31500,-0.28019,1.63942,-1.58664,2.21607,8.25431,8.93477,-1.31155,0.85984,-0.32148,-0.28988,0.27074,7.78354,3.72624,-17.22115
-0.82446,1.65808,-0.29719,0.29036,-0.17956,-0.28259,1.28543,-1.70630,1.93146,8.15393,10.29597,0.46977,0.86590,-0.32116,-0.27529,0.26699,-12.44755,-10.07314,-22.05529
-0.81266,1.66608,-0.29974,0.40363,-0.02587,-0.26207,0.59189,-1.48850,1.51338,8.14473,11.63427,2.09516,0.86284,-0.32794,-0.26659,0.27729,-46.23050,8.23782,-33.12903
-0.79959,1.67710,-0.30145,0.51264,0.14061,-0.23384,0.18071,-1.27811,1.09772,7.69334,12.81661,2.63341,0.85961,-0.33514,-0.26148,0.28351,-35.92800,12.12416,-32.63005
-0.78711,1.68834,-0.30290,0.58816,0.27230,-0.20813,0.01314,-1.07986,0.74214,7.82448,14.15809,3.20864,0.85719,-0.34123,-0.25961,0.28530,-18.90902,14.23212,-32.93140
-0.77178,1.70517,-0.30298,0.68566,0.45002,-0.16988,-0.07975,-0.69283,0.29035,8.42362,15.90493,3.55354,0.85054,-0.35006,-0.26748,0.28722,-10.18130,27.63482,-39.01732
-0.75298,1.73139,-0.30074,0.81103,0.72194,-0.10676,-0.52473,-0.16062,-0.43682,7.88672,18.72951,3.93743,0.83296,-0.37105,-0.28121,0.29904,-13.33445,30.96791,-39.88244
-0.73631,1.75601,-0.29855,0.88299,0.91729,-0.05750,-1.13431,0.14776,-1.08199,7.28033,20.54628,4.65774,0.81148,-0.39781,-0.28808,0.31665,-50.18089,33.01443,-60.83984
-0.71758,1.78846,-0.29478,0.96596,1.17090,0.00132,-2.10959,0.45244,-2.03644,7.66532,22.08891,4.26292,0.77387,-0.44231,-0.29399,0.34505,-71.14960,27.86485,-75.65614
-0.68895,1.84242,-0.28978,1.17130,1.67546,0.06596,-3.45588,1.06147,-4.06227,11.79865,23.95876,1.66224,0.69926,-0.52003,-0.31271,0.37792,-62.55976,23.34053,-93.58956
-0.66532,1.87929,-0.28873,1.27051,1.85876,0.06761,-3.59392,1.30636,-4.84457,13.19277,22.85228,0.10986,0.65225,-0.56311,-0.32842,0.38681,-41.08686,17.27588,-102.01120
-0.61993,1.93905,-0.29133,1.65569,2.32225,0.01724,-3.25740,1.95720,-7.31469,23.03834,19.70202,-4.08035,0.56397,-0.63594,-0.37990,0.36496,10.56913,1.88740,-114.97400
-0.57686,1.98548,-0.29482,1.94221,2.52287,-0.03634,-3.21466,2.24086,-8.77193,25.20706,13.69542,-5.57412,0.48021,-0.69190,-0.41127,0.34860,-4.54785,-16.26029,-137.28860
-0.51852,2.03235,-0.30233,2.39084,2.68843,-0.13710,-3.48716,2.49096,-10.49107,31.02971,6.59527,-7.86746,0.37200,-0.75070,-0.43696,0.32731,-27.15843,5.91547,-104.72820
-0.42399,2.06585,-0.32238,3.37330,2.60936,-0.43868,-3.59390,2.31678,-13.78995,39.28646,-14.16459,-13.68448,0.22049,-0.81672,-0.46220,0.26593,-29.52384,-23.56004,-113.86840
-0.29269,2.11742,-0.34843,3.90937,2.30610,-0.64074,-3.53824,1.82968,-15.14632,36.94635,-29.49179,-14.94733,0.00072,-0.86640,-0.46872,0.17221,-53.70648,-37.10539,-100.16100
-0.19927,2.10652,-0.37385,4.47912,1.67007,-0.88374,-3.96900,1.17960,-16.48275,31.89279,-51.36479,-15.27659,-0.13372,-0.87965,-0.44601,0.09699,-67.63425,-10.93320,-76.86726
-0.11549,2.08205,-0.39702,4.79311,0.97010,-1.04364,-4.38639,1.06459,-16.86063,18.52558,-64.41293,-11.68393,-0.25248,-0.87276,-0.41565,0.04218,-53.49632,17.63594,-52.62022
-0.03700,2.02793,-0.42048,4.95724,-0.00659,-1.17156,-4.40212,1.41638,-16.62665,4.14966,-73.53501,-7.01307,-0.35650,-0.84871,-0.39060,0.00580,22.65478,19.66482,4.04968
0.02939,1.96393,-0.44145,4.91707,-0.90905,-1.23679,-4.36811,1.51898,-16.62932,-12.70364,-76.05709,-2.85169,-0.45729,-0.81211,-0.36034,-0.03905,18.31023,-1.84926,5.25497
0.06810,1.87290,-0.45662,4.49184,-2.01099,-1.20621,-3.83211,1.72914,-15.20973,-36.99168,-58.47956,6.56080,-0.51641,-0.78210,-0.34433,-0.05556,48.40688,0.89155,57.51902
0.09058,1.79629,-0.46555,3.91487,-2.70238,-1.09204,-3.38525,0.67737,-13.34102,-42.57093,-40.14137,10.83967,-0.53733,-0.76797,-0.33515,-0.09577,1.94077,-39.80752,147.66660
0.10355,1.72872,-0.47044,3.32021,-3.12980,-0.94382,-3.02448,-0.24432,-11.28401,-42.28359,-23.31865,9.45729,-0.54150,-0.76236,-0.32938,-0.13074,-37.47404,-42.23843,163.43650
0.11653,1.66894,-0.47615,2.85233,-3.36055,-0.83945,-2.65019,-0.19159,-9.77553,-38.79185,-15.90492,6.73510,-0.55939,-0.75117,-0.31996,-0.14299,11.20782,-10.67799,139.17740
0.11738,1.60696,-0.48082,2.30363,-3.57338,-0.74009,-1.76645,0.63490,-8.34804,-32.40637,-11.60935,5.19616,-0.58293,-0.73711,-0.31935,-0.12197,78.47406,22.69933,92.05743
0.12413,1.54830,-0.48678,1.94753,-3.70149,-0.67829,-0.91520,1.22866,-7.84038,-28.54287,-10.16300,5.22729,-0.62121,-0.70733,-0.31936,-0.10858,92.93873,9.30178,47.80085
0.13161,1.49035,-0.49248,1.68100,-3.78676,-0.62649,-0.20293,1.57303,-7.67865,-25.58451,-7.07067,5.56486,-0.66271,-0.66974,-0.31973,-0.10018,86.22816,-6.82893,17.02599
0.12045,1.43333,-0.49289,1.20797,-3.84293,-0.51121,0.40783,1.55688,-7.12394,-22.25433,-0.24814,7.27966,-0.68955,-0.63931,-0.32743,-0.09274,35.84014,-20.96104,21.18833
0.11271,1.38350,-0.49230,0.85290,-3.79033,-0.39842,-0.54182,1.07596,-6.16692,-21.27230,4.47068,8.44550,-0.69631,-0.63811,-0.30653,-0.11836,-46.46489,-8.85769,62.75388
0.11051,1.33543,-0.49272,0.65197,-3.72067,-0.32452,-1.74146,0.76284,-5.31035,-18.43843,7.40903,8.04849,-0.69904,-0.64357,-0.27271,-0.15097,-93.81529,16.74756,74.12083
0.10130,1.29399,-0.48916,0.39647,-3.57568,-0.20951,-4.16788,0.36949,-3.50827,-13.58840,9.63514,6.79918,-0.66452,-0.68772,-0.20770,-0.20570,-149.23300,43.59030,110.13400
0.09476,1.25291,-0.48518,0.22502,-3.45450,-0.10877,-5.39460,0.20781,-2.32977,-13.24546,9.66002,5.86397,-0.63699,-0.71386,-0.15674,-0.24511,-117.50350,52.49492,99.37341
0.08592,1.21194,-0.47952,0.05459,-3.35155,-0.00444,-4.58990,0.10956,-1.96818,-12.36008,8.97665,5.41327,-0.63611,-0.71330,-0.14933,-0.25352,12.23252,5.56701,39.25661
0.07440,1.17270,-0.47152,-0.12262,-3.24599,0.11310,-1.57686,-0.15393,-2.32946,-11.22566,7.19622,6.53595,-0.66736,-0.68123,-0.20275,-0.22237,170.82020,-44.86169,-10.79139
0.06370,1.13311,-0.46406,-0.25287,-3.16737,0.19937,0.45869,-0.48824,-2.68631,-10.58806,5.09652,9.18687,-0.69433,-0.64517,-0.24829,-0.20003,202.67210,-63.65992,-31.42760
0.04949,1.09582,-0.45485,-0.40497,-3.06984,0.29154,0.50719,-0.86838,-2.54199,-10.56357,5.35466,8.14297,-0.69999,-0.63048,-0.26076,-0.21102,48.58164,-42.23606,0.39109
0.03370,1.06041,-0.44622,-0.54964,-2.96628,0.35623,-0.90560,-0.84210,-2.05392,-10.28145,6.86141,4.09063,-0.69007,-0.64016,-0.23251,-0.24481,-92.16090,8.49756,27.45778
0.01691,1.02566,-0.43845,-0.68017,-2.87567,0.39623,-2.15572,-0.51752,-1.78488,-9.47584,6.73033,1.67817,-0.68266,-0.64889,-0.19287,-0.27517,-102.01600,38.61666,18.66886
-0.00162,0.99115,-0.43027,-0.80879,-2.79626,0.43416,-2.40277,-0.31001,-1.95052,-9.40365,6.72846,1.98872,-0.68865,-0.64156,-0.16937,-0.29236,-37.99908,25.79790,-7.72213
-0.02158,0.95822,-0.42067,-0.93262,-2.71145,0.48461,-2.12870,-0.41872,-2.34553,-8.19994,6.61173,3.98750,-0.70244,-0.62169,-0.16183,-0.30642,21.95578,-9.96733,-26.45679
-0.04230,0.92833,-0.41032,-1.04322,-2.60117,0.53554,-2.09737,-0.61269,-2.58823,-7.44236,8.99089,3.58154,-0.71144,-0.60322,-0.15290,-0.32649,6.00035,-21.26665,-19.88750
-0.06366,0.90240,-0.40067,-1.13979,-2.45425,0.56602,-2.42085,-0.53603,-2.52034,-5.97820,11.35820,1.58566,-0.71235,-0.59506,-0.13268,-0.34763,-16.23259,-0.22418,-1.67858
-0.08497,0.88373,-0.39292,-1.22114,-2.22889,0.56516,-2.94549,0.04448,-2.15673,-3.00026,13.38861,-0.96273,-0.70654,-0.60041,-0.09735,-0.36171,-26.19821,38.99782,11.27826
-0.10331,0.86354,-0.38594,-1.24321,-2.07056,0.55346,-3.02406,0.43232,-1.85543,-0.58041,13.54794,-1.66380,-0.70305,-0.60348,-0.07149,-0.36935,-12.88562,45.31128,17.93786
-0.12085,0.84910,-0.37858,-1.24651,-1.85739,0.54864,-2.13462,0.37594,-1.57782,0.28714,14.28996,-0.84533,-0.70843,-0.60061,-0.07448,-0.36312,43.78553,5.36932,15.61136
-0.13826,0.83603,-0.37006,-1.24707,-1.66639,0.56167,-1.02679,-0.15616,-1.39896,0.10154,13.38072,1.93260,-0.71737,-0.58983,-0.09755,-0.35772,83.23766,-43.73415,18.91496
-0.15513,0.82383,-0.36094,-1.24026,-1.50540,0.58075,-0.64099,-0.59074,-1.22549,0.94044,13.04834,2.53321,-0.71972,-0.58093,-0.11131,-0.36350,50.03676,-42.79683,14.33488
-0.17145,0.81745,-0.35203,-1.22550,-1.29062,0.59179,-0.87911,-0.76509,-0.86145,0.83709,13.17491,0.29783,-0.71172,-0.58135,-0.11256,-0.37791,-10.85882,-16.86629,23.15978
-0.18746,0.81139,-0.34513,-1.20950,-1.11349,0.57104,-1.45768,-0.42313,-0.51701,1.17479,11.79361,-2.16702,-0.69974,-0.59002,-0.09491,-0.39144,-37.40366,19.92529,22.23081
-0.20246,0.80573,-0.34022,-1.18229,-0.96828,0.52556,-1.92752,0.16473,-0.33269,2.22139,9.52554,-4.25844,-0.68984,-0.60017,-0.06824,-0.39907,-40.67441,43.33515,12.97703
-0.21654,0.80020,-0.33644,-1.14602,-0.84976,0.47226,-2.00109,0.65540,-0.32043,2.58892,8.34294,-4.16827,-0.68611,-0.60632,-0.04527,-0.39947,-10.66084,40.26736,-2.49650
-0.23031,0.79586,-0.33292,-1.11322,-0.73877,0.42622,-1.87480,0.89521,-0.34716,2.44056,7.84531,-3.22286,-0.68492,-0.60924,-0.02923,-0.39856,7.15043,21.74025,-5.19679
-0.24335,0.79265,-0.32933,-1.07618,-0.63393,0.39103,-1.58113,0.91150,-0.39966,3.13448,7.47997,-2.44345,-0.68648,-0.60896,-0.02087,-0.39683,17.78801,4.31197,-4.58558
