posX, posY, posZ, velX, velY, velZ, angVelX, angVelY, angVelZ, accX, accY, accZ, rotX, rotY, rotZ, rotW, angAccX, angAccY, angAccZ
-0.36496,1.02953,-0.45111,-0.14602,0.00430,0.16602,-0.03449,-0.59507,0.74304,0.41826,1.41059,0.56068,-0.33095,-0.88793,-0.00151,-0.31946,75.59960,20.58476,-24.35354
-0.36652,1.03100,-0.44855,-0.13897,0.02479,0.16954,0.59486,-0.46038,0.48734,0.74830,1.32274,1.00302,-0.34075,-0.88690,-0.01934,-0.31132,48.43098,13.50456,-17.73517
-0.36814,1.03218,-0.44594,-0.13417,0.03670,0.17310,0.61984,-0.49897,0.45684,0.44212,0.88380,0.92430,-0.34022,-0.88619,-0.02615,-0.31343,14.61761,1.19510,-5.43125
-0.36960,1.03356,-0.44338,-0.12766,0.04912,0.17478,0.30263,-0.63019,0.51093,0.69538,0.91031,-0.02457,-0.33377,-0.88538,-0.02481,-0.32262,-18.21377,-9.23019,1.46954
-0.37086,1.03507,-0.44117,-0.11983,0.06109,0.17121,0.01530,-0.73545,0.59197,0.11260,0.74081,-0.45731,-0.32572,-0.88491,-0.02275,-0.33215,-22.24020,-9.18426,4.54572
-0.37222,1.03699,-0.43925,-0.11407,0.07596,0.16304,-0.04176,-0.77019,0.61438,0.79333,1.25163,-1.34960,-0.32056,-0.88439,-0.02469,-0.33836,-11.39789,-5.09031,2.68427
-0.37296,1.03939,-0.43800,-0.10057,0.09468,0.14701,0.22496,-0.67033,0.53506,0.81170,1.22674,-1.77149,-0.32174,-0.88408,-0.03350,-0.33730,13.17559,4.54438,-2.03103
-0.37364,1.04183,-0.43733,-0.08964,0.11068,0.12626,0.56536,-0.50448,0.40381,0.69343,1.00890,-1.33826,-0.32660,-0.88379,-0.04450,-0.33206,26.66910,13.58459,-8.66755
-0.37428,1.04421,-0.43696,-0.07985,0.12201,0.10492,0.69948,-0.40852,0.32873,0.90682,0.70532,-1.22968,-0.32912,-0.88345,-0.05225,-0.32934,14.71921,9.75605,-5.53718
-0.37452,1.04647,-0.43687,-0.06598,0.12915,0.08386,0.67942,-0.36108,0.27896,1.08679,0.32030,-1.37406,-0.32988,-0.88304,-0.05664,-0.32897,0.20537,3.87902,-3.05026
-0.37440,1.04842,-0.43690,-0.05040,0.13118,0.06579,0.61050,-0.32259,0.21016,1.13564,0.01513,-1.07875,-0.33096,-0.88238,-0.05906,-0.32921,-3.72413,3.24497,-5.30644
-0.37426,1.05018,-0.43689,-0.03779,0.12981,0.05216,0.49691,-0.31490,0.17345,1.08403,-0.19686,-1.13968,-0.33082,-0.88176,-0.06011,-0.33084,-8.36307,1.07293,-3.81835
-0.37370,1.05189,-0.43739,-0.02199,0.12826,0.03400,0.30641,-0.31324,0.14831,1.19944,0.04065,-1.23778,-0.32946,-0.88130,-0.05815,-0.33375,-11.53221,0.42498,-3.37257
-0.37324,1.05377,-0.43810,-0.01058,0.12905,0.01636,0.05043,-0.32944,0.18202,0.62243,0.22634,-1.19925,-0.32517,-0.88143,-0.05381,-0.33830,-17.77774,-1.39846,1.40700
-0.37297,1.05625,-0.43903,-0.00367,0.13769,-0.00132,-0.20471,-0.33309,0.24079,0.41452,1.02427,-1.41663,-0.31930,-0.88205,-0.04814,-0.34310,-18.88300,-1.04718,2.84840
-0.37300,1.05933,-0.44017,-0.00263,0.15304,-0.01802,-0.36167,-0.29468,0.33348,-0.06683,1.58206,-1.60720,-0.31251,-0.88357,-0.04392,-0.34599,-15.46899,1.27779,5.90003
-0.37357,1.06388,-0.44209,-0.01005,0.18747,-0.04249,-0.43382,-0.19501,0.55942,-0.58684,2.15853,-1.54732,-0.30180,-0.88740,-0.04224,-0.34592,-6.61767,5.37260,11.78286
-0.37435,1.06851,-0.44377,-0.01896,0.21653,-0.05936,-0.19505,-0.02984,0.68938,-0.76157,1.82940,-1.70004,-0.29620,-0.89117,-0.04808,-0.34025,9.91912,9.92535,12.79483
-0.37505,1.07284,-0.44559,-0.02492,0.23480,-0.07435,0.17616,0.17587,0.68716,-0.53090,1.02601,-1.43851,-0.29610,-0.89437,-0.05761,-0.33031,26.97711,17.78908,2.81136
-0.37548,1.07675,-0.44818,-0.02561,0.24325,-0.09748,0.75697,0.45847,0.55763,0.06700,-0.21187,-1.90880,-0.30328,-0.89677,-0.07309,-0.31382,33.20316,19.94149,-7.17979
-0.37542,1.07949,-0.45138,-0.01896,0.23318,-0.12498,1.31519,0.83249,0.28839,0.76150,-1.33869,-1.30152,-0.31638,-0.89819,-0.08805,-0.29224,39.72063,23.53197,-12.24602
-0.37450,1.08139,-0.45415,-0.00140,0.21259,-0.14046,1.20769,0.87664,0.06442,1.57203,-1.46585,0.26266,-0.32387,-0.89812,-0.08915,-0.28381,11.61112,16.86632,-24.70998
-0.37367,1.08307,-0.45684,0.01102,0.19362,-0.15134,0.78545,0.75042,0.01696,0.94946,-1.49402,-0.97246,-0.32315,-0.89883,-0.08268,-0.28433,-35.58581,-10.30888,-3.62197
-0.37283,1.08449,-0.45989,0.02089,0.17483,-0.16512,0.41291,0.69813,-0.04334,0.45263,-1.25929,-1.24785,-0.32281,-0.89982,-0.07414,-0.28395,-29.64639,-5.97671,-2.73534
-0.37223,1.08584,-0.46320,0.02545,0.15852,-0.17969,0.04214,0.66456,-0.07014,0.35988,-1.01184,-0.81645,-0.32116,-0.90124,-0.06356,-0.28388,-23.46985,-0.76340,-2.36672
-0.37176,1.08729,-0.46689,0.02692,0.14730,-0.19742,-0.45856,0.58870,-0.00004,-0.12254,-0.30658,-1.35697,-0.31440,-0.90345,-0.04816,-0.28741,-32.84437,-6.26538,5.65629
-0.37180,1.08935,-0.47061,0.02052,0.14719,-0.21203,-0.78034,0.57801,0.11085,-0.58706,0.39005,-1.02463,-0.30693,-0.90635,-0.03530,-0.28823,-24.70662,-0.43498,7.05003
-0.37216,1.09185,-0.47427,0.01114,0.15335,-0.22226,-1.00897,0.56423,0.27134,-0.78132,0.65295,-0.92363,-0.29733,-0.90975,-0.02396,-0.28875,-20.19016,-0.75245,12.62966
-0.37280,1.09457,-0.47802,-0.00030,0.16150,-0.23185,-1.11791,0.57989,0.41590,-0.92286,0.52676,-0.94527,-0.28782,-0.91335,-0.01472,-0.28765,-12.01346,0.53050,12.99335
-0.37364,1.09744,-0.48172,-0.01241,0.17019,-0.23910,-0.97053,0.66922,0.48023,-0.88451,0.47112,-0.50251,-0.28251,-0.91687,-0.01150,-0.28179,5.74486,5.50396,4.46277
-0.37442,1.10023,-0.48508,-0.02123,0.17603,-0.23947,-0.63936,0.76347,0.44324,-0.54158,0.30078,-0.03637,-0.28215,-0.91956,-0.01383,-0.27316,20.74156,7.52009,-2.20669
-0.37511,1.10309,-0.48802,-0.02721,0.18176,-0.23393,-0.13615,0.87708,0.33824,-0.31037,0.27729,0.68416,-0.28636,-0.92158,-0.02223,-0.26114,28.67195,7.82298,-8.02581
-0.37563,1.10581,-0.49077,-0.02931,0.18457,-0.22672,0.08644,0.88899,0.31017,0.05772,0.25869,0.86197,-0.28702,-0.92347,-0.02656,-0.25321,22.57862,3.87845,-5.13708
-0.37602,1.10851,-0.49340,-0.02923,0.18614,-0.21893,0.23120,0.85868,0.29426,0.00717,0.04816,0.74328,-0.28717,-0.92505,-0.03056,-0.24676,14.10508,-1.71590,-2.47818
-0.37636,1.11109,-0.49585,-0.02860,0.18555,-0.21067,0.36372,0.81658,0.27399,0.01363,-0.18689,0.43334,-0.28767,-0.92631,-0.03526,-0.24073,8.90090,-3.54135,-1.60131
-0.37666,1.11346,-0.49841,-0.02743,0.18204,-0.20570,0.56805,0.83269,0.20083,0.08392,-0.36156,0.11719,-0.29083,-0.92721,-0.04204,-0.23222,13.19691,0.00124,-4.82833
-0.37692,1.11559,-0.50114,-0.02591,0.17587,-0.20387,0.64612,0.83850,0.15491,0.09083,-0.46171,0.58207,-0.29292,-0.92822,-0.04647,-0.22458,10.78607,2.85197,-5.94853
-0.37731,1.11767,-0.50380,-0.02680,0.17031,-0.20191,0.37189,0.70063,0.28402,0.30045,-0.13741,0.50144,-0.28679,-0.93026,-0.04309,-0.22472,-11.53527,-7.27394,4.76978
-0.37765,1.11980,-0.50650,-0.02695,0.16659,-0.20103,0.01875,0.52936,0.48588,-0.20780,-0.43267,-0.29708,-0.27603,-0.93294,-0.03669,-0.22822,-27.90716,-15.11764,18.07620
-0.37793,1.12167,-0.50928,-0.02581,0.15963,-0.20080,-0.12896,0.45642,0.54618,-0.00867,-0.54629,-0.18114,-0.26969,-0.93490,-0.03299,-0.22837,-12.03394,-5.39579,5.32822
-0.37810,1.12340,-0.51194,-0.02324,0.15177,-0.19907,-0.00518,0.47091,0.46781,0.06083,-0.69649,-0.36013,-0.26937,-0.93594,-0.03513,-0.22410,2.31837,-1.65120,-2.14950
-0.37814,1.12497,-0.51462,-0.01942,0.14352,-0.19815,0.37056,0.61456,0.24325,0.08822,-0.48588,-0.13160,-0.27653,-0.93604,-0.04351,-0.21321,23.85119,9.18727,-15.33543
-0.37849,1.12674,-0.51735,-0.02073,0.13968,-0.19787,0.74421,0.77524,0.05950,-0.13798,-0.02769,0.14347,-0.28451,-0.93603,-0.05389,-0.20001,27.38148,12.70380,-15.86735
-0.37908,1.12881,-0.51997,-0.02530,0.14105,-0.19615,1.04224,0.90002,-0.03775,-0.26788,0.29588,0.33756,-0.29086,-0.93613,-0.06472,-0.18672,22.37528,10.88291,-9.41166
-0.37983,1.13114,-0.52238,-0.03143,0.14627,-0.19185,1.23911,0.96231,-0.05453,-0.43387,0.44285,0.58302,-0.29487,-0.93640,-0.07511,-0.17484,15.92111,6.15903,-3.29702
-0.38068,1.13354,-0.52453,-0.03803,0.15152,-0.18394,1.30201,0.93989,0.01073,-0.20842,0.21940,0.73700,-0.29564,-0.93704,-0.08384,-0.16589,5.96763,-0.14086,3.00891
-0.38132,1.13574,-0.52663,-0.04034,0.15268,-0.17695,1.29135,0.88574,0.07175,-0.28661,-0.12128,0.28840,-0.29551,-0.93765,-0.09096,-0.15877,-2.06386,-5.99562,5.91470
-0.38195,1.13762,-0.52867,-0.04168,0.14883,-0.17073,1.49134,0.95926,-0.03110,-0.31330,-0.47313,-0.00133,-0.30133,-0.93664,-0.10232,-0.14643,8.90364,2.16325,-3.92838
-0.38248,1.13933,-0.53075,-0.04113,0.14324,-0.16639,1.77944,1.11153,-0.21613,0.09296,-0.51571,0.36544,-0.31139,-0.93416,-0.11633,-0.12982,22.10126,13.38209,-14.41481
-0.38294,1.14070,-0.53260,-0.03987,0.13378,-0.15940,2.08897,1.26621,-0.42511,0.07563,-0.81642,0.67484,-0.32376,-0.93021,-0.13222,-0.11138,20.65489,11.85389,-14.36471
-0.38328,1.14181,-0.53442,-0.03679,0.12231,-0.15356,2.10694,1.28251,-0.50631,0.66226,-0.87240,0.86814,-0.33194,-0.92727,-0.14256,-0.09829,6.56774,5.97924,-8.13147
-0.38343,1.14282,-0.53610,-0.03159,0.11171,-0.14699,1.98348,1.18460,-0.48441,0.48267,-0.94953,0.66548,-0.33642,-0.92531,-0.15018,-0.08987,-8.31174,-5.63191,-0.28734
-0.38337,1.14324,-0.53756,-0.02444,0.09461,-0.13857,1.90315,1.12029,-0.52800,0.25868,-1.24146,0.22739,-0.34267,-0.92254,-0.15779,-0.08127,-8.23707,-6.03486,-0.41235
-0.38330,1.14349,-0.53906,-0.01832,0.07876,-0.13240,1.93654,1.13298,-0.63181,0.61239,-1.36264,0.46423,-0.35167,-0.91838,-0.16743,-0.06978,0.83298,2.34878,-8.14084
-0.38293,1.14318,-0.54047,-0.00924,0.05811,-0.12616,1.98147,1.15209,-0.76696,0.50610,-1.67868,0.41223,-0.36234,-0.91317,-0.17737,-0.05800,2.61280,1.59383,-8.54256
-0.38254,1.14245,-0.54186,-0.00186,0.03561,-0.12103,1.94756,1.17029,-0.87844,0.67547,-1.56068,0.50425,-0.37291,-0.90800,-0.18511,-0.04691,-0.12412,3.68293,-9.66641
-0.38214,1.14140,-0.54324,0.00420,0.01288,-0.11690,1.79438,1.10512,-0.90516,0.20322,-1.33445,0.19583,-0.38074,-0.90408,-0.19005,-0.03953,-9.80208,-3.10238,-1.58517
-0.38203,1.14057,-0.54470,0.00475,-0.00200,-0.11458,1.65640,1.07017,-0.89617,0.03745,-1.19117,0.34160,-0.38767,-0.90051,-0.19442,-0.03164,-10.02729,-2.26672,-0.33788
-0.38200,1.13964,-0.54602,0.00404,-0.01485,-0.11070,1.46675,0.97466,-0.84977,-0.02039,-0.97834,0.39534,-0.39279,-0.89787,-0.19706,-0.02679,-15.37496,-5.17687,3.29735
-0.38202,1.13834,-0.54701,0.00292,-0.03117,-0.10321,1.41683,0.96700,-0.90019,-0.29631,-0.71740,0.13019,-0.40089,-0.89344,-0.20168,-0.01934,-4.82461,-2.21888,-1.65736
-0.38204,1.13730,-0.54798,0.00212,-0.04096,-0.09698,1.49180,1.05621,-0.99673,0.00803,-0.58485,0.57268,-0.41149,-0.88719,-0.20863,-0.00754,6.39350,7.41091,-7.42724
-0.38210,1.13646,-0.54892,0.00076,-0.04524,-0.09167,1.46543,1.05539,-0.98573,0.18070,-0.41465,0.82832,-0.41889,-0.88246,-0.21399,0.00154,3.23616,4.99906,-4.30589
-0.38227,1.13570,-0.54949,-0.00173,-0.04750,-0.08156,1.06618,0.79603,-0.70433,0.06203,-0.16772,0.89850,-0.41627,-0.88424,-0.21174,-0.00039,-20.50491,-12.53382,15.32977
-0.38243,1.13498,-0.54990,-0.00358,-0.04867,-0.07101,0.68587,0.52472,-0.44551,-0.18041,-0.00201,0.68168,-0.41221,-0.88688,-0.20858,-0.00487,-28.51196,-21.02103,19.92649
-0.38250,1.13431,-0.55033,-0.00360,-0.04892,-0.06298,0.49225,0.37667,-0.30601,-0.10074,0.07190,0.66120,-0.41039,-0.88796,-0.20751,-0.00657,-24.18649,-17.44194,16.56923
-0.38245,1.13355,-0.55016,-0.00196,-0.05036,-0.04818,0.43782,0.28870,-0.22712,-0.09153,-0.04661,0.73378,-0.40958,-0.88801,-0.20889,-0.00649,-9.09951,-9.93276,8.21495
-0.38222,1.13260,-0.54986,0.00204,-0.05407,-0.03439,0.51142,0.27792,-0.24765,0.46573,-0.30392,1.02246,-0.41203,-0.88588,-0.21314,-0.00324,6.08135,0.27624,-2.75610
-0.38154,1.13157,-0.54946,0.01182,-0.05840,-0.02199,0.59847,0.27044,-0.28636,0.93711,-0.31795,0.84360,-0.41510,-0.88321,-0.21823,0.00029,5.88198,-0.49244,-1.99652
-0.38051,1.13047,-0.54908,0.02436,-0.06269,-0.01239,0.66301,0.23104,-0.33043,1.11215,-0.42696,0.74255,-0.41834,-0.88033,-0.22363,0.00261,5.14167,-2.02676,-3.25070
-0.37909,1.12908,-0.54843,0.03969,-0.07047,-0.00108,0.85948,0.28430,-0.48115,0.73531,-0.47313,0.58813,-0.42568,-0.87451,-0.23226,0.00874,9.54871,0.34589,-7.46927
-0.37748,1.12748,-0.54751,0.05488,-0.07971,0.01183,1.23572,0.49583,-0.74677,1.01085,-0.60970,0.86436,-0.43857,-0.86435,-0.24507,0.02219,25.40856,13.61062,-17.63469
-0.37596,1.12592,-0.54671,0.06619,-0.08671,0.02069,1.29291,0.52472,-0.80954,1.14359,-0.75178,0.93938,-0.44587,-0.85826,-0.25248,0.02908,12.09636,7.93229,-8.76610
-0.37457,1.12439,-0.54606,0.07308,-0.09194,0.02527,1.10356,0.39005,-0.71021,0.31028,-0.36600,0.22620,-0.44754,-0.85662,-0.25511,0.02876,-12.14203,-9.47793,5.43866
-0.37343,1.12286,-0.54559,0.07505,-0.09584,0.02651,0.92168,0.31026,-0.60774,-0.04899,-0.24545,-0.09806,-0.44869,-0.85565,-0.25634,0.02894,-14.47176,-7.17866,7.68395
-0.37245,1.12144,-0.54525,0.07522,-0.09840,0.02490,0.81178,0.32696,-0.56529,-0.18303,0.08994,-0.39234,-0.45160,-0.85370,-0.25740,0.03169,-9.97108,-1.33674,3.95642
-0.37169,1.12040,-0.54523,0.07188,-0.09486,0.01865,0.72311,0.41851,-0.45958,-0.30210,0.26955,-0.59490,-0.45327,-0.85259,-0.25735,0.03746,-3.10862,6.98094,2.25367
-0.37109,1.11953,-0.54523,0.06604,-0.08882,0.01401,0.67450,0.54893,-0.47796,-0.36659,0.54278,-0.12782,-0.45828,-0.84963,-0.25720,0.04424,-1.27166,8.98480,-3.11572
-0.37058,1.11897,-0.54505,0.06057,-0.07926,0.01288,0.55994,0.55000,-0.34675,-0.06235,0.74697,0.15403,-0.45841,-0.84961,-0.25630,0.04833,-5.30414,2.89076,8.11120
-0.36992,1.11868,-0.54472,0.05823,-0.06770,0.01443,0.43730,0.49003,-0.20453,-0.17436,1.17502,0.08809,-0.45690,-0.85063,-0.25521,0.05040,-11.96141,-4.78909,12.07477
-0.36925,1.11900,-0.54431,0.05668,-0.04940,0.01692,0.54560,0.56892,-0.11149,-0.62979,2.36868,-0.59508,-0.45650,-0.84951,-0.25788,0.05863,-5.82983,-4.40610,10.13430
-0.36858,1.11986,-0.54404,0.05528,-0.02694,0.01708,0.85843,0.88074,-0.21173,-0.01428,1.58980,0.44640,-0.46301,-0.84277,-0.26364,0.07651,29.29857,28.19665,-11.16543
-0.36840,1.12123,-0.54338,0.04692,-0.00174,0.02304,1.06420,0.98152,-0.14649,-0.42613,1.68589,0.74853,-0.46399,-0.83874,-0.27017,0.09076,18.40315,10.63119,2.00243
-0.36841,1.12294,-0.54226,0.03748,0.02359,0.03485,1.16449,0.95706,0.00266,-0.49247,1.63948,1.14967,-0.46130,-0.83696,-0.27625,0.10186,8.73979,-1.11261,9.19252
-0.36823,1.12472,-0.54054,0.03314,0.04403,0.05264,1.25513,0.92074,0.11910,0.12601,0.79046,1.71855,-0.45832,-0.83504,-0.28279,0.11260,7.31929,-1.91115,10.32758
-0.36781,1.12604,-0.53876,0.03293,0.05364,0.06738,1.11489,0.66398,0.30176,0.69143,0.48708,1.77351,-0.45129,-0.83735,-0.28663,0.11417,1.05620,-10.52721,6.93485
-0.36705,1.12771,-0.53609,0.03791,0.06600,0.09140,0.61558,0.08889,0.72368,0.39758,0.46519,1.26466,-0.43380,-0.84895,-0.28428,0.10140,-25.85418,-34.07864,22.06783
-0.36618,1.12898,-0.53378,0.04365,0.07016,0.10575,0.30215,-0.28386,0.96993,0.09073,0.39150,0.53858,-0.41950,-0.85759,-0.28306,0.09187,-24.89040,-33.36999,20.30001
-0.36509,1.13018,-0.53183,0.05141,0.07259,0.11198,0.25450,-0.40567,1.00700,0.17278,0.38990,-0.25065,-0.41078,-0.86138,-0.28525,0.08893,-6.58275,-11.04469,3.82172
-0.36375,1.13132,-0.53040,0.06126,0.07345,0.10957,0.39772,-0.28161,0.92014,0.72937,0.00439,-0.50726,-0.40689,-0.86117,-0.28983,0.09395,7.29248,3.18785,-2.45646
-0.36163,1.13208,-0.52916,0.08065,0.06815,0.10516,0.53933,-0.06121,0.73089,2.01391,-0.89632,0.04748,-0.40784,-0.85839,-0.29395,0.10208,14.93599,21.99731,-14.75556
-0.35872,1.13215,-0.52789,0.10808,0.05382,0.10188,0.18921,-0.35480,0.77466,2.44800,-1.63847,0.13800,-0.40020,-0.86408,-0.29103,0.09222,-15.07140,-12.56613,0.81358
-0.35532,1.13163,-0.52656,0.13725,0.03342,0.09973,-0.26455,-0.77424,0.84856,1.98586,-1.40444,-0.24258,-0.38982,-0.87240,-0.28529,0.07461,-33.88985,-34.76599,5.47573
-0.35128,1.13072,-0.52525,0.16998,0.01142,0.09773,-0.50562,-1.01779,0.78242,2.18599,-1.47166,-0.49802,-0.38334,-0.87751,-0.28186,0.05987,-20.27433,-22.59630,-2.30640
-0.34697,1.12958,-0.52415,0.19926,-0.00838,0.09355,-0.58056,-1.08589,0.60386,2.13504,-1.50134,-0.44735,-0.38147,-0.87946,-0.28039,0.04907,-8.59552,-11.20630,-12.02332
-0.34171,1.12808,-0.52307,0.23668,-0.02969,0.08969,-0.55043,-1.12352,0.34893,2.21471,-0.87231,-0.55087,-0.38285,-0.87902,-0.28149,0.03886,0.79450,-4.01371,-14.87078
-0.33639,1.12696,-0.52234,0.26727,-0.04115,0.08132,-0.36785,-0.97141,0.06179,1.87300,-0.59790,-0.71700,-0.38803,-0.87576,-0.28500,0.03523,12.83804,7.39175,-19.32354
-0.33123,1.12602,-0.52167,0.28894,-0.04706,0.07416,-0.21655,-0.84943,-0.15128,1.87929,-0.42754,-0.44128,-0.39301,-0.87246,-0.28868,0.03207,15.90103,12.02435,-19.06345
-0.32589,1.12545,-0.52122,0.30845,-0.04658,0.06501,-0.20342,-0.86164,-0.27359,1.34630,0.36831,-0.63409,-0.39585,-0.87079,-0.29056,0.02470,5.42978,1.59448,-12.22266
-0.32131,1.12750,-0.52190,0.31171,-0.00150,0.03757,-0.45010,-0.99511,-0.04474,-0.81342,3.30559,-1.62430,-0.38930,-0.87536,-0.28638,0.01325,-10.29078,-5.81987,10.67718
-0.31345,1.13107,-0.52255,0.30034,0.05080,0.01196,-0.49185,-0.87780,0.20512,-0.57407,4.24623,-2.29971,-0.37971,-0.88069,-0.28317,0.00390,-4.07797,7.73909,16.32048
-0.30950,1.13569,-0.52433,0.29742,0.10639,-0.01669,-0.43933,-0.67978,0.35189,-0.26300,5.21706,-2.58489,-0.37417,-0.88367,-0.28123,0.00574,-1.84607,11.70906,15.75600
-0.30477,1.14318,-0.52674,0.30654,0.19229,-0.04824,-0.26315,-0.47258,0.49733,1.61291,5.54184,-1.41751,-0.36830,-0.88559,-0.28275,0.01153,13.02024,19.75824,8.83635
-0.29903,1.15171,-0.52875,0.32864,0.27706,-0.06865,-0.26118,-0.60639,0.68933,2.05911,6.81343,-1.60012,-0.35726,-0.88976,-0.28398,0.00677,2.39802,-8.66975,9.55927
-0.29272,1.16167,-0.53107,0.35373,0.36403,-0.08878,-0.15213,-0.56811,0.86961,1.68609,7.93933,-2.05305,-0.34644,-0.89322,-0.28648,0.00803,1.39608,-3.02003,19.27452
-0.28583,1.17629,-0.53429,0.38189,0.50094,-0.11763,0.09485,-0.47117,1.04842,1.66681,9.35600,-1.70798,-0.33527,-0.89525,-0.29311,0.01399,17.88830,11.13452,10.04258
-0.28001,1.19327,-0.53792,0.38935,0.64611,-0.14722,0.17148,-0.50634,1.37470,-0.22756,11.48509,-2.51038,-0.31734,-0.90041,-0.29714,0.01641,3.93296,-4.66796,18.86423
-0.27494,1.21380,-0.54257,0.38438,0.81248,-0.18548,0.17663,-0.34739,1.87509,-0.38509,12.02343,-2.61724,-0.29358,-0.90828,-0.29689,0.02638,1.01842,10.93076,35.84151
-0.26998,1.23679,-0.54759,0.37904,0.98089,-0.22128,0.12294,-0.32919,2.23518,-0.48965,12.36000,-2.53952,-0.26972,-0.91577,-0.29596,0.03192,-6.06854,-0.25872,28.98385
-0.26626,1.27006,-0.55339,0.35467,1.28555,-0.26446,0.25040,-0.10116,2.64717,-2.47888,13.43850,-0.99381,-0.24446,-0.92181,-0.29730,0.04603,3.03945,9.06882,17.40405
-0.26097,1.32457,-0.55995,0.28850,1.55128,-0.25204,0.55350,-0.00550,3.06648,-3.57818,13.37353,2.03654,-0.19685,-0.92884,-0.30655,0.06726,14.42605,9.11722,20.78058
-0.26036,1.35676,-0.56142,0.23839,1.70740,-0.22218,0.75014,-0.10288,3.33526,-4.82186,13.01977,3.03917,-0.16685,-0.93125,-0.31491,0.07591,15.05901,-6.57276,23.59364
-0.26195,1.39263,-0.56045,0.16707,1.88113,-0.16296,1.19175,-0.05888,3.55747,-5.53809,12.19347,5.11542,-0.13687,-0.92929,-0.33080,0.09087,26.38817,7.30149,17.82146
-0.26427,1.42850,-0.55792,0.10073,2.01859,-0.09477,1.64486,-0.02743,3.68603,-5.97896,10.87318,6.09453,-0.10792,-0.92452,-0.34991,0.10577,35.51112,10.38163,14.74486
-0.27021,1.46773,-0.55209,-0.00452,2.17703,0.00632,2.20003,0.07683,3.81448,-7.32246,8.95264,6.61063,-0.07842,-0.91567,-0.37403,0.12450,34.12195,16.65054,8.21318
-0.27814,1.50600,-0.54591,-0.11833,2.29017,0.09363,2.48511,0.09702,3.99758,-9.06093,7.17593,6.05637,-0.04570,-0.90780,-0.39255,0.14043,23.05343,4.67593,12.97843
-0.28799,1.54341,-0.53951,-0.23493,2.36727,0.16550,2.64518,0.24505,4.17528,-10.58165,5.30663,6.16183,-0.01363,-0.89894,-0.40745,0.16033,13.65149,11.59982,15.82274
-0.30331,1.58140,-0.53023,-0.40563,2.43797,0.26396,2.61479,0.02156,4.52023,-10.39412,3.05626,6.55355,0.02853,-0.89214,-0.41719,0.17096,3.53875,-10.89380,20.45001
-0.31893,1.61758,-0.52037,-0.54818,2.46813,0.35247,2.53102,-0.24588,4.70705,-9.63199,1.32116,6.59214,0.06881,-0.88506,-0.42492,0.17714,0.98336,-23.87012,12.07852
-0.33633,1.65251,-0.50802,-0.69087,2.47604,0.46135,2.52498,-0.56387,4.72859,-8.73646,-0.29222,6.90174,0.10652,-0.87637,-0.43449,0.17846,5.72041,-22.16616,-0.57333
-0.35281,1.68630,-0.49577,-0.79181,2.46713,0.54687,2.60258,-0.63577,4.64770,-9.02679,-1.29690,7.16669,0.13893,-0.86474,-0.44618,0.18398,7.62618,-9.59308,-6.58768
-0.37290,1.71860,-0.48092,-0.92192,2.43628,0.65051,2.76053,-0.44233,4.62578,-10.17335,-2.92764,7.38455,0.16956,-0.84890,-0.46001,0.19749,8.11771,12.87206,-2.20579
-0.39587,1.74864,-0.46465,-1.06882,2.38263,0.75505,2.89326,-0.33509,4.75086,-10.83428,-4.76711,7.89586,0.20471,-0.83100,-0.47216,0.21117,3.60565,15.32840,9.35170
-0.42148,1.77591,-0.44693,-1.22323,2.29835,0.85906,3.03739,-0.37323,4.94642,-10.79726,-7.07950,7.13888,0.24463,-0.81072,-0.48349,0.22162,11.44284,-2.85221,14.12669
-0.44827,1.80045,-0.42833,-1.36255,2.19096,0.95415,3.11815,-0.31702,5.02401,-9.67747,-8.64460,6.46192,0.28033,-0.78943,-0.49379,0.23320,5.85280,1.14052,8.74614
-0.47617,1.82177,-0.40904,-1.49061,2.05996,1.04046,3.14259,-0.01515,5.06961,-9.20030,-10.42026,5.57274,0.31057,-0.76586,-0.50355,0.25189,-2.31215,16.89132,6.15656
-0.50447,1.84099,-0.39023,-1.59817,1.92784,1.10219,3.11857,0.15894,5.13237,-8.75168,-11.80425,5.04900,0.34152,-0.74180,-0.51066,0.26894,-11.14882,18.66604,9.92576
-0.53689,1.85323,-0.37033,-1.74032,1.72097,1.16547,3.11060,0.15003,5.28066,-8.84213,-14.31254,2.99435,0.37721,-0.71585,-0.51529,0.28239,3.07201,-2.66203,7.00800
-0.56916,1.86259,-0.35177,-1.85376,1.51217,1.19776,3.00156,0.13582,5.44650,-7.18824,-15.83426,1.70458,0.41253,-0.68989,-0.51546,0.29693,-8.24269,-3.62371,13.14823
-0.60065,1.86971,-0.33427,-1.93330,1.31688,1.20925,2.99311,-0.05645,5.49598,-5.74467,-16.81871,0.52972,0.44848,-0.66375,-0.51579,0.30376,0.89153,-13.76398,3.88665
-0.63391,1.86645,-0.31771,-2.01999,1.00930,1.20239,2.93651,-0.27984,5.55179,-3.97351,-17.63375,-1.22361,0.48482,-0.63753,-0.51286,0.30900,3.46138,-13.64534,-0.44157
-0.66496,1.86567,-0.30191,-2.05736,0.79559,1.18489,2.89957,-0.37698,5.59954,-2.23373,-18.22273,-1.95359,0.51887,-0.60903,-0.50982,0.31614,-1.30637,-9.73944,2.37684
-0.69531,1.85613,-0.28820,-2.07808,0.50051,1.14103,2.85599,-0.48454,5.71359,-0.33178,-18.71832,-3.97697,0.55373,-0.57863,-0.50408,0.32322,2.60014,-8.98106,3.59285
-0.72363,1.84809,-0.27601,-2.06929,0.28473,1.08896,2.72029,-0.53889,5.83258,1.71315,-17.61417,-4.73093,0.58666,-0.54795,-0.49492,0.33263,-6.52155,-9.85189,9.55902
-0.74912,1.83353,-0.26691,-2.02423,0.01907,1.00622,2.55730,-0.61926,5.86984,3.99207,-15.87215,-5.49876,0.61719,-0.51864,-0.48375,0.34070,-8.21193,-8.87016,1.99917
-0.77192,1.81778,-0.25948,-1.94713,-0.21770,0.91256,2.46614,-0.73804,5.76037,5.57733,-14.15469,-6.02535,0.64518,-0.49090,-0.47352,0.34429,-2.10641,-9.09267,-7.79025
-0.79413,1.80368,-0.25188,-1.87371,-0.37982,0.83667,2.40936,-0.82551,5.64901,6.90974,-12.85802,-6.56460,0.67163,-0.46252,-0.46324,0.34698,-2.48652,-5.70419,-9.96403
-0.81339,1.78701,-0.24654,-1.77330,-0.54327,0.74455,2.46522,-0.95020,5.38768,7.85862,-10.59891,-6.56386,0.69611,-0.43604,-0.45528,0.34353,4.89285,-5.72140,-15.82693
-0.83051,1.76993,-0.24276,-1.66338,-0.68011,0.64887,2.50638,-1.05562,5.08173,7.90710,-9.16430,-7.48676,0.71818,-0.41151,-0.44792,0.33801,11.09787,0.75735,-24.28029
-0.84506,1.75179,-0.24133,-1.53570,-0.80695,0.53639,2.34154,-1.22805,4.79527,8.30618,-7.06891,-6.81414,0.73851,-0.39183,-0.43497,0.33446,-8.37236,-11.74047,-18.60917
-0.85979,1.73507,-0.23952,-1.43764,-0.88772,0.45315,2.45076,-1.35041,4.48222,8.41776,-6.26214,-6.61175,0.75894,-0.36973,-0.42673,0.32438,5.30102,-5.91908,-25.19473
-0.87175,1.71708,-0.23985,-1.32152,-0.96966,0.35709,2.69222,-1.45273,4.12826,8.34554,-5.52543,-6.93200,0.77872,-0.34745,-0.42160,0.30844,23.36476,3.09296,-24.70742
-0.88192,1.69858,-0.24127,-1.20144,-1.04153,0.26417,2.77861,-1.49195,3.89964,8.59064,-5.07273,-7.04175,0.79688,-0.32482,-0.41451,0.29606,13.28707,4.10112,-19.21947
-0.89017,1.67979,-0.24390,-1.07874,-1.10348,0.17291,2.59221,-1.58823,3.83513,8.89913,-4.07790,-6.57042,0.81425,-0.30384,-0.40023,0.29067,-7.58548,-6.51429,-8.00093
-0.89638,1.66083,-0.24752,-0.95105,-1.15524,0.08589,2.51399,-1.63513,3.77085,9.65076,-3.29076,-5.97609,0.83088,-0.28149,-0.38724,0.28362,-6.57260,-7.76137,-7.08982
-0.90123,1.64251,-0.25136,-0.83174,-1.18747,0.01418,2.40262,-1.67659,3.77681,10.09790,-2.05022,-6.01476,0.84680,-0.25807,-0.37259,0.27841,-4.10317,-1.46700,-2.77667
-0.90185,1.62485,-0.25688,-0.67536,-1.20251,-0.06684,2.31721,-1.66544,3.71258,9.82909,0.06134,-4.14267,0.86079,-0.23573,-0.35940,0.27259,-6.71052,-4.41833,-3.87809
-0.90186,1.60881,-0.26155,-0.53988,-1.19190,-0.12064,2.31120,-1.51797,3.60002,9.60474,1.55398,-3.30178,0.87223,-0.21261,-0.35140,0.26558,-1.29335,10.07270,-6.20086
-0.89947,1.59465,-0.26593,-0.39502,-1.15581,-0.15966,2.15241,-1.29296,3.43756,8.72928,2.81590,-1.68695,0.88006,-0.19254,-0.34545,0.26284,-10.64732,10.77305,-8.59832
-0.89780,1.58110,-0.26961,-0.29022,-1.11863,-0.18103,1.88183,-1.15353,3.36802,8.93647,3.29547,-2.63102,0.88707,-0.17300,-0.33658,0.26438,-17.65535,16.72929,-8.85384
-0.89225,1.56995,-0.27426,-0.15032,-1.05365,-0.21209,1.44252,-1.20953,3.35139,8.43250,4.73500,-1.19696,0.89400,-0.15685,-0.32009,0.27149,-31.52483,-14.80418,-4.11766
-0.88686,1.55984,-0.27873,-0.03965,-0.98663,-0.23452,1.45372,-0.99856,3.25949,7.98859,5.30465,-1.16824,0.90004,-0.13577,-0.31479,0.26908,-6.74373,9.44356,-4.54096
-0.88086,1.55096,-0.28332,0.05592,-0.91507,-0.25374,1.53380,-0.77935,3.17083,8.09021,6.76079,-1.52580,0.90554,-0.11356,-0.31172,0.26444,1.40679,20.48454,-4.04132
-0.87280,1.54479,-0.28818,0.16031,-0.82061,-0.27273,1.61114,-0.57632,3.05831,7.02384,6.72763,-1.37669,0.91017,-0.09223,-0.31007,0.25873,3.58404,19.26719,-6.86601
-0.86385,1.54047,-0.29294,0.25688,-0.71868,-0.28663,1.52990,-0.51897,2.98309,7.09917,8.13185,-1.18612,0.91448,-0.07318,-0.30411,0.25668,-2.75193,7.57154,-5.00637
-0.85438,1.53779,-0.29747,0.34005,-0.61459,-0.29409,1.28886,-0.61343,2.93823,6.72464,9.17860,-0.77061,0.91861,-0.05697,-0.29252,0.25950,-13.58084,-5.20101,-4.63498
-0.84270,1.54023,-0.30164,0.43811,-0.45914,-0.29502,0.94369,-0.79064,2.80121,5.72311,10.49327,0.76592,0.92197,-0.04680,-0.27785,0.26567,-19.98508,-18.20801,-9.89185
-0.83494,1.53699,-0.30559,0.46035,-0.41691,-0.29282,0.88865,-0.78236,2.75883,5.46864,10.85736,1.15646,0.92532,-0.03047,-0.26836,0.26616,-17.96018,-15.69324,-11.89450
-0.82853,1.53119,-0.30966,0.46035,-0.41691,-0.29282,0.88865,-0.78236,2.75883,5.46864,10.85736,1.15646,0.92881,-0.01248,-0.25834,0.26537,-17.21552,-16.21929,-12.28354
-0.81229,1.55849,-0.30934,0.57305,-0.01659,-0.23784,0.40759,-0.58596,1.85771,0.90833,11.63588,2.24215,0.92417,-0.03079,-0.26536,0.27304,-17.01614,-2.50808,-30.34545
-0.80434,1.56966,-0.31010,0.57262,0.14194,-0.20236,0.09756,-0.44695,1.23235,-0.64188,11.37171,2.94506,0.92144,-0.04175,-0.26817,0.27802,-20.30092,3.93722,-43.30516
-0.79704,1.57984,-0.31095,0.56323,0.25273,-0.17564,-0.04566,-0.27582,0.77047,-1.20159,11.06041,2.84223,0.91893,-0.05001,-0.27314,0.28010,-19.21878,13.17641,-46.80821
-0.79106,1.59754,-0.31005,0.53804,0.44409,-0.13060,-0.22109,0.03681,-0.10971,-1.13680,10.57441,2.08521,0.91266,-0.07419,-0.28906,0.27928,-9.21351,18.20788,-48.57281
-0.78451,1.62433,-0.30780,0.52513,0.76648,-0.06758,-0.68941,0.19330,-1.66631,0.48492,11.64663,1.97128,0.90159,-0.12343,-0.30610,0.27963,-16.81314,3.25348,-53.10955
-0.76905,1.65830,-0.30797,0.53753,0.94869,-0.04318,-0.84710,0.44384,-2.51813,1.32315,11.33634,1.36951,0.88608,-0.17242,-0.32844,0.27797,-13.05140,12.04297,-55.33773
-0.75859,1.68390,-0.30759,0.58192,1.13065,-0.02889,-1.07428,0.53273,-3.21645,4.90849,14.31378,0.06349,0.87227,-0.21156,-0.34285,0.27720,-8.45342,12.80597,-49.24323
-0.74506,1.71326,-0.30766,0.66123,1.32912,-0.02421,-1.50802,0.28677,-3.90781,6.38086,13.88469,-0.20283,0.85634,-0.26015,-0.34675,0.28066,-33.38482,-9.38271,-48.23735
-0.72895,1.74498,-0.30795,0.76293,1.52300,-0.02348,-2.01634,0.04445,-4.60924,8.51821,14.39292,0.29156,0.83548,-0.31457,-0.34819,0.28599,-43.66269,-15.33710,-45.25070
-0.70930,1.77959,-0.30854,0.89489,1.71780,-0.02747,-2.35587,0.13078,-5.37711,10.64242,13.99706,-0.23771,0.80698,-0.37078,-0.35880,0.28736,-29.37899,2.89073,-52.57431
-0.68565,1.81624,-0.30986,1.05848,1.90317,-0.04125,-2.45041,0.45558,-6.20945,12.95552,12.90110,-0.86262,0.77130,-0.42720,-0.37862,0.28152,-6.85675,11.66841,-62.39345
-0.65731,1.85424,-0.31198,1.25805,2.07137,-0.06403,-2.46224,0.85013,-7.12264,15.91125,11.20408,-2.16515,0.72694,-0.48578,-0.40299,0.27051,8.10195,15.68923,-68.49680
-0.62554,1.89160,-0.31486,1.46240,2.19249,-0.09262,-2.52358,1.11154,-7.87472,18.43177,9.03656,-2.98798,0.67715,-0.54348,-0.42328,0.25872,2.89870,11.72933,-68.10380
-0.58585,1.92962,-0.31920,1.73628,2.29771,-0.13585,-2.78261,1.33004,-8.75376,21.03389,5.83424,-3.72845,0.61448,-0.60656,-0.43993,0.24691,-10.99610,10.62370,-64.62113
-0.52012,1.96549,-0.32873,2.39406,2.35178,-0.25681,-3.82899,1.64287,-10.28833,26.34830,-2.32722,-3.70667,0.52187,-0.68633,-0.44543,0.24124,-45.91903,-16.83214,-24.47217
-0.42035,2.02729,-0.34237,2.85995,2.28163,-0.34760,-4.58035,2.51343,-11.26701,31.95147,-6.89089,-6.42951,0.34665,-0.78440,-0.45826,0.23357,-7.12727,74.95463,-70.31314
-0.35282,2.05249,-0.35417,3.24313,2.16910,-0.44107,-4.51363,2.97184,-12.26271,32.93543,-11.99177,-7.46594,0.23487,-0.82484,-0.46894,0.21110,-5.11430,19.85419,-89.96693
-0.27248,2.06825,-0.37029,3.71750,1.94893,-0.57131,-3.95807,3.24936,-13.61323,36.03759,-20.16863,-10.39422,0.10975,-0.85222,-0.48423,0.16491,12.24751,-29.59314,-96.24524
-0.17556,2.06216,-0.39253,4.36492,1.46100,-0.77821,-3.93722,3.68730,-15.42255,36.34855,-35.73544,-13.80951,-0.04526,-0.86710,-0.48256,0.11497,-13.68434,-6.70538,-104.48040
-0.08514,2.04807,-0.41485,4.79697,0.95516,-0.94744,-4.23749,4.15666,-16.73653,35.10710,-50.59301,-15.09951,-0.19980,-0.86146,-0.46105,0.07353,-12.97633,30.00292,-101.86150
0.01180,2.00302,-0.44330,5.22368,0.10983,-1.16763,-4.29528,4.47370,-18.26233,24.70803,-71.80868,-16.12576,-0.36118,-0.82721,-0.43003,0.01836,-13.03172,11.08195,-109.75860
0.09609,1.92711,-0.47371,5.38337,-1.00710,-1.37251,-4.39710,4.61744,-19.32870,-4.22261,-85.90861,-12.25544,-0.50663,-0.77093,-0.38423,-0.03686,-37.08638,10.80495,-95.01263
0.15282,1.82678,-0.50091,5.11721,-2.24743,-1.49079,-4.11923,4.42795,-18.97635,-31.19850,-88.53558,-4.18140,-0.60475,-0.71281,-0.34664,-0.07756,11.47693,-12.37844,5.96200
0.18369,1.71324,-0.52372,4.53060,-3.42574,-1.52093,-4.02571,3.35566,-18.75114,-52.17034,-79.89278,0.19742,-0.68159,-0.64934,-0.30517,-0.14374,-57.43247,-37.52914,48.39779
0.18196,1.59193,-0.54088,3.58049,-4.49690,-1.45983,-4.01805,3.20223,-18.11494,-67.32793,-53.14309,6.64526,-0.74961,-0.58317,-0.25485,-0.18180,-15.52003,15.86485,42.26897
0.16698,1.49103,-0.55045,2.62045,-5.06207,-1.29922,-2.24566,3.65109,-17.22471,-69.68480,-24.68662,13.79682,-0.81280,-0.49823,-0.24489,-0.17650,80.31131,-73.14056,33.86456
0.14762,1.40808,-0.55574,1.80499,-5.23869,-1.11119,-0.31319,3.31262,-15.95484,-64.65317,-4.76362,17.18303,-0.85413,-0.41806,-0.25919,-0.16887,81.34681,-166.49230,57.59250
0.11620,1.34110,-0.55528,0.99611,-5.14877,-0.88157,1.38580,1.91110,-14.31511,-49.68736,14.54549,15.79951,-0.86993,-0.35044,-0.30094,-0.17276,4.63503,-176.01440,86.64821
0.08880,1.28964,-0.55602,0.40731,-4.85903,-0.71678,1.66282,0.93589,-12.32466,-35.96114,23.73046,10.32064,-0.87428,-0.31544,-0.31984,-0.18393,-44.33563,-114.16170,121.01170
0.06647,1.24811,-0.55873,0.00831,-4.48151,-0.61210,0.28873,0.84503,-9.79568,-23.11909,26.53897,7.46095,-0.87145,-0.33055,-0.29789,-0.20632,-54.28267,14.37222,167.56400
0.04995,1.21238,-0.56237,-0.22735,-4.10124,-0.54070,-1.70265,1.54227,-7.06450,-11.80209,26.37929,3.89545,-0.86159,-0.38064,-0.24399,-0.23074,-92.20631,126.15220,204.83100
0.03978,1.17779,-0.56605,-0.32649,-3.78282,-0.48397,-1.96160,2.15229,-4.84364,-3.91633,23.55616,2.61339,-0.85593,-0.41609,-0.21279,-0.22131,-8.67207,97.64859,167.85150
0.03215,1.14536,-0.56694,-0.37094,-3.48954,-0.39666,-0.33569,1.60846,-3.49730,-1.89091,17.79922,6.21080,-0.85805,-0.41463,-0.23911,-0.18615,98.35744,-45.14577,86.13441
0.02477,1.11212,-0.56502,-0.40452,-3.26505,-0.28514,1.16147,0.69785,-2.69742,-2.79768,14.47489,9.85262,-0.85941,-0.39910,-0.27920,-0.15552,108.62540,-92.58998,45.42989
0.01679,1.08051,-0.55930,-0.43993,-3.06454,-0.14108,1.14320,0.01852,-1.73187,-3.07619,11.00444,12.59480,-0.84959,-0.40519,-0.30092,-0.15316,33.71939,-66.63478,58.99069
0.00775,1.04904,-0.55108,-0.48325,-2.90019,0.00888,-0.37729,0.02768,-0.54792,-4.11569,9.70544,10.58514,-0.83072,-0.44187,-0.28627,-0.18082,-95.88171,-8.37255,84.08046
-0.00204,1.01595,-0.54352,-0.52827,-2.79557,0.11706,-1.66780,0.28434,0.27986,-4.59443,8.48276,7.98139,-0.81286,-0.47720,-0.26112,-0.20821,-118.06620,29.02662,78.66946
-0.01500,0.98381,-0.53491,-0.60974,-2.70134,0.21723,-2.46744,0.42444,0.81402,-7.44068,7.19393,5.58725,-0.79571,-0.50574,-0.23985,-0.23139,-75.47910,18.67782,47.80592
-0.03317,0.95135,-0.52599,-0.75020,-2.62643,0.30195,-2.34546,0.30201,0.66564,-10.19918,4.61674,4.31066,-0.79157,-0.50965,-0.23429,-0.24247,-1.88233,-4.22517,-0.21256
-0.05279,0.91764,-0.51790,-0.88290,-2.58526,0.35802,-2.03139,0.07239,0.20915,-12.24729,3.33487,4.84070,-0.79406,-0.50082,-0.23422,-0.25257,29.90526,-21.89270,-28.71373
-0.07583,0.88472,-0.50893,-1.03426,-2.54326,0.41416,-2.01813,-0.07134,-0.28909,-13.31615,3.06483,5.15763,-0.79714,-0.48971,-0.22795,-0.26979,15.33163,-24.20956,-39.89001
-0.10467,0.85348,-0.49858,-1.23603,-2.48379,0.47811,-2.52334,0.06541,-0.82564,-12.22852,3.69698,3.41734,-0.79919,-0.48037,-0.20383,-0.29832,-30.07375,0.72970,-35.00542
-0.13422,0.82321,-0.48940,-1.41388,-2.42187,0.51438,-2.67384,0.28143,-1.32067,-10.24873,4.65828,0.78720,-0.80445,-0.46823,-0.18001,-0.31813,-20.39131,11.64370,-32.23864
-0.16185,0.79279,-0.48154,-1.52908,-2.37587,0.52490,-2.21424,0.29371,-1.76216,-8.89787,4.26100,0.04332,-0.81488,-0.44913,-0.17016,-0.32448,22.27906,-2.08974,-34.34090
-0.19104,0.76331,-0.47365,-1.63996,-2.32353,0.53302,-1.46400,0.18486,-2.35946,-7.24987,4.13805,0.91206,-0.83201,-0.41852,-0.16760,-0.32328,53.06033,-21.01892,-42.57828
-0.22172,0.73733,-0.46459,-1.75268,-2.23113,0.55704,-0.99727,0.11475,-2.91964,-7.04766,6.77527,3.06085,-0.84794,-0.38626,-0.16110,-0.32534,35.91762,-17.24110,-36.63905
-0.25147,0.71330,-0.45427,-1.83031,-2.13099,0.59445,-1.33117,0.29785,-3.20272,-6.21805,8.51998,4.53511,-0.85457,-0.36562,-0.13784,-0.34211,-3.27396,3.17721,-28.20587
-0.28205,0.69390,-0.44244,-1.90053,-1.98435,0.64432,-2.18693,0.80302,-3.35986,-3.81924,11.44485,3.28237,-0.85396,-0.35358,-0.09508,-0.36972,-51.91260,44.94720,-17.79005
-0.31077,0.67940,-0.43083,-1.93206,-1.79705,0.68197,-2.72181,1.26818,-3.40206,0.17780,12.34816,0.76429,-0.85219,-0.34317,-0.05381,-0.39129,-33.75257,41.95433,-8.16964
-0.33660,0.66602,-0.42077,-1.91436,-1.62697,0.68945,-2.59017,1.38077,-3.37867,2.87207,12.90822,-0.75955,-0.85491,-0.32873,-0.02899,-0.40028,2.73258,14.12771,-2.47015
-0.36035,0.65398,-0.41159,-1.87157,-1.47532,0.68289,-2.20203,1.23758,-3.28222,4.75431,12.72703,-1.08942,-0.85952,-0.31294,-0.01613,-0.40379,25.56256,-11.73407,4.96551
-0.38025,0.64744,-0.40310,-1.78170,-1.27544,0.66768,-1.78972,0.98562,-3.10330,6.66972,12.53417,-0.86751,-0.86398,-0.29824,-0.00999,-0.40558,25.40292,-21.11106,10.84105
-0.39799,0.64214,-0.39484,-1.67894,-1.09572,0.65254,-1.62246,0.84885,-2.88204,8.06534,12.88591,-0.78388,-0.86528,-0.28708,-0.00070,-0.41094,14.03859,-14.44088,15.83073
-0.41299,0.63949,-0.38691,-1.55506,-0.91295,0.63460,-1.82744,1.12280,-2.61205,9.44514,12.93712,-0.84073,-0.86113,-0.28392,0.02258,-0.42111,-2.17773,10.20448,16.68798
-0.42458,0.63945,-0.38023,-1.40779,-0.73043,0.60238,-2.15239,1.69752,-2.21109,11.68212,12.64714,-3.46958,-0.85201,-0.29105,0.05610,-0.43153,-17.93947,50.19740,21.77710
-0.43233,0.64008,-0.37559,-1.23600,-0.57561,0.54802,-2.08918,1.95022,-1.80517,13.50790,9.82049,-5.33998,-0.84606,-0.29786,0.07863,-0.43506,3.85076,32.49150,26.00709
-0.43644,0.64039,-0.37275,-1.04464,-0.45591,0.47872,-1.69826,1.69612,-1.42630,14.43364,8.22666,-5.89738,-0.84518,-0.30024,0.08314,-0.43430,25.57639,-7.69357,24.35761
-0.43733,0.64196,-0.37137,-0.84633,-0.34241,0.40262,-1.21624,1.14197,-1.02725,14.46717,8.14712,-5.67020,-0.84664,-0.30081,0.07376,-0.43276,34.69851,-37.55254,28.25580
-0.43706,0.64394,-0.37050,-0.67465,-0.24702,0.33556,-0.88953,0.69951,-0.68700,14.42443,7.65985,-5.28859,-0.84697,-0.30196,0.06421,-0.43282,31.42257,-41.15392,30.75261
-0.43016,0.64886,-0.37227,-0.44143,-0.12892,0.24400,-0.74915,0.56614,-0.22936,14.71438,7.28019,-5.48212,-0.84312,-0.31150,0.05965,-0.43422,12.29309,-14.20378,28.18021
-0.42389,0.65335,-0.37421,-0.26418,-0.04014,0.16838,-0.69463,0.71949,0.16549,14.94882,7.39874,-6.55872,-0.83734,-0.32566,0.06339,-0.43450,4.25349,10.50865,30.09964
-0.41292,0.66003,-0.37867,-0.05893,0.06077,0.07376,-0.56021,1.00227,0.67095,14.57373,7.08720,-6.78628,-0.83007,-0.34811,0.06799,-0.43033,10.28905,20.22114,34.59815
-0.39623,0.66957,-0.38619,0.19303,0.18530,-0.04766,-0.35464,1.38378,1.33248,13.54212,6.96202,-6.67288,-0.82020,-0.37974,0.07227,-0.42172,12.56848,24.10324,35.23673
-0.38154,0.67872,-0.39293,0.37061,0.28220,-0.13644,-0.21500,1.66083,1.82239,12.05817,7.07403,-6.14335,-0.80972,-0.40887,0.07637,-0.41393,12.10431,22.22997,33.88857
-0.36573,0.68934,-0.40016,0.52802,0.38111,-0.21452,-0.09265,1.81836,2.27888,10.77468,7.24627,-5.27978,-0.79785,-0.43859,0.07752,-0.40628,11.13371,16.52883,31.30325
-0.34888,0.70174,-0.40753,0.66795,0.48561,-0.27822,-0.00231,1.83194,2.75168,9.53380,7.73982,-4.23905,-0.78371,-0.46934,0.07399,-0.40006,10.11942,5.78959,31.54833
-0.33139,0.71601,-0.41492,0.78863,0.59629,-0.32931,0.10573,1.72534,3.25308,7.89455,8.13824,-3.41161,-0.76747,-0.50133,0.06484,-0.39428,12.18279,-3.58302,34.81668
-0.31390,0.73207,-0.42223,0.88477,0.71030,-0.36933,0.27407,1.50519,3.71710,5.94144,8.38498,-2.75860,-0.75053,-0.53266,0.04987,-0.38793,17.22242,-9.82042,32.75357
-0.29712,0.74997,-0.42955,0.94984,0.82755,-0.40097,0.54103,1.20369,4.10087,3.24061,8.76268,-2.03030,-0.73415,-0.56223,0.02915,-0.37957,25.71509,-16.57294,26.56487
-0.28214,0.76862,-0.43669,0.97504,0.93054,-0.42332,0.75992,1.02557,4.36414,0.93530,8.54008,-1.50085,-0.71717,-0.59067,0.01029,-0.36968,26.06245,-12.27722,21.57309
-0.26846,0.78932,-0.44384,0.97626,1.04066,-0.44103,0.99706,0.89169,4.56685,-0.79614,7.43908,-0.82462,-0.69994,-0.61818,-0.00947,-0.35755,21.18282,-5.30219,14.48172
-0.25621,0.81068,-0.45050,0.95580,1.13695,-0.44776,1.20520,0.78394,4.70655,-2.40020,6.64147,-0.00118,-0.68216,-0.64428,-0.02936,-0.34452,18.55429,-2.75735,9.61826
