posX, posY, posZ, velX, velY, velZ, angVelX, angVelY, angVelZ, accX, accY, accZ, rotX, rotY, rotZ, rotW, angAccX, angAccY, angAccZ
-0.40045,1.10719,-0.40685,0.13792,0.13637,0.07331,0.55425,-0.49475,0.24799,-0.00980,-0.59607,0.78855,-0.39773,-0.88003,-0.12067,-0.22977,2.89530,-1.71258,3.72507
-0.39852,1.10817,-0.40521,0.13792,0.12510,0.08367,0.59827,-0.50719,0.28027,0.00330,-1.05467,0.74119,-0.39596,-0.87961,-0.12756,-0.23071,3.23285,-1.12034,3.24382
-0.39650,1.10869,-0.40338,0.13969,0.10731,0.09344,0.62503,-0.52047,0.25799,0.16735,-1.50485,0.71477,-0.39554,-0.87852,-0.13389,-0.23202,2.18004,-0.65977,-0.41288
-0.39427,1.10872,-0.40146,0.14443,0.08575,0.10248,0.65419,-0.53216,0.19231,0.38809,-1.57698,0.55586,-0.39660,-0.87670,-0.14006,-0.23345,1.75139,-0.76430,-3.87768
-0.39187,1.10846,-0.39952,0.15049,0.06448,0.10994,0.70740,-0.53174,0.11239,0.41927,-1.44796,0.47125,-0.39876,-0.87438,-0.14679,-0.23430,3.59168,0.03812,-5.87492
-0.38942,1.10799,-0.39765,0.15546,0.04552,0.11563,0.74447,-0.52333,0.04689,0.32746,-1.27425,0.42423,-0.40097,-0.87208,-0.15324,-0.23497,3.26919,0.99346,-4.80533
-0.38703,1.10742,-0.39571,0.15871,0.02908,0.12129,0.75727,-0.51502,0.00564,0.24345,-1.11582,0.52274,-0.40273,-0.86998,-0.15925,-0.23576,2.11200,0.41584,-3.21720
-0.38462,1.10687,-0.39364,0.16135,0.01607,0.12740,0.73131,-0.53802,-0.00725,0.33080,-1.05950,0.65723,-0.40345,-0.86805,-0.16475,-0.23785,-0.44747,-0.39459,-1.88847
-0.38199,1.10580,-0.39142,0.16674,-0.00039,0.13535,0.63528,-0.60961,-0.01011,0.40373,-1.02629,0.53476,-0.40308,-0.86616,-0.16874,-0.24254,-5.80045,-3.92092,-0.50647
-0.37932,1.10469,-0.38925,0.17147,-0.01465,0.14094,0.53151,-0.67618,-0.01781,0.29040,-0.99524,0.32972,-0.40256,-0.86423,-0.17201,-0.24791,-7.32607,-5.10640,-1.15309
-0.37671,1.10365,-0.38714,0.17467,-0.02581,0.14377,0.45337,-0.72162,-0.03781,0.23373,-0.85910,0.14948,-0.40250,-0.86212,-0.17515,-0.25309,-7.20845,-4.20077,-2.05408
-0.37406,1.10233,-0.38516,0.17784,-0.03773,0.14461,0.37957,-0.75695,-0.05757,0.18653,-0.58714,-0.11705,-0.40242,-0.86001,-0.17790,-0.25843,-4.96486,-2.59281,-1.34037
-0.37145,1.10117,-0.38340,0.17970,-0.04546,0.14198,0.36255,-0.76915,-0.07584,0.07398,-0.47772,-0.32776,-0.40283,-0.85774,-0.18167,-0.26270,-2.39158,-1.11356,-1.40942
-0.36890,1.10001,-0.38182,0.18044,-0.05236,0.13665,0.38465,-0.75334,-0.10929,0.04311,-0.28197,-0.43222,-0.40423,-0.85519,-0.18598,-0.26583,1.45676,0.72001,-1.97359
-0.36637,1.09901,-0.38040,0.18060,-0.05558,0.12983,0.42175,-0.73510,-0.12040,0.00883,-0.15974,-0.57497,-0.40535,-0.85276,-0.19092,-0.26839,2.81226,1.68457,-0.66612
-0.36389,1.09807,-0.37918,0.18008,-0.05725,0.12143,0.42388,-0.71775,-0.12297,-0.03013,-0.10873,-0.78078,-0.40609,-0.85058,-0.19509,-0.27119,1.62832,1.54339,-0.55160
-0.36150,1.09730,-0.37868,0.17861,-0.05657,0.10390,0.41989,-0.65704,-0.11296,-0.11940,0.20385,-1.37494,-0.40671,-0.84901,-0.19853,-0.27267,-0.33307,3.13051,0.22894
-0.35921,1.09685,-0.37867,0.17620,-0.05142,0.08221,0.44351,-0.55527,-0.09019,-0.22506,0.57173,-1.92174,-0.40746,-0.84795,-0.20215,-0.27221,0.32640,5.60376,1.59531
-0.35707,1.09668,-0.37916,0.17196,-0.04343,0.05814,0.53665,-0.39991,-0.05635,-0.31971,0.72918,-1.79972,-0.40889,-0.84729,-0.20704,-0.26841,5.60774,10.22005,2.93927
-0.35454,1.09624,-0.37950,0.17452,-0.04150,0.04120,0.30918,-0.45233,-0.00442,0.15795,-0.01199,-1.23812,-0.40567,-0.84746,-0.20574,-0.27370,-13.86354,0.14062,4.97867
-0.35208,1.09541,-0.38028,0.17576,-0.04592,0.02089,0.20314,-0.47880,-0.02580,-0.07943,-0.40584,-1.93839,-0.40508,-0.84632,-0.20585,-0.27799,-10.94019,-3.67225,-0.82236
-0.34969,1.09456,-0.38167,0.17571,-0.04954,-0.00401,0.29165,-0.39903,-0.08257,-0.03114,-0.00291,-2.08290,-0.40793,-0.84438,-0.20924,-0.27720,1.84144,3.28992,-3.71412
-0.34722,1.09400,-0.38324,0.17647,-0.04791,-0.02607,0.50380,-0.26553,-0.12851,0.15298,0.26389,-1.32791,-0.41266,-0.84203,-0.21583,-0.27222,15.46053,10.90729,-3.74517
-0.34478,1.09373,-0.38494,0.17726,-0.04260,-0.04615,0.63684,-0.20412,-0.11265,0.14163,0.32307,-1.04262,-0.41522,-0.84018,-0.22248,-0.26868,10.05383,4.56569,0.66623
-0.34231,1.09347,-0.38653,0.17806,-0.03817,-0.06034,0.66107,-0.19872,-0.08971,0.05665,0.41712,-1.16739,-0.41633,-0.83867,-0.22741,-0.26755,2.41640,0.69823,2.57104
-0.33983,1.09350,-0.38832,0.17861,-0.03064,-0.07427,0.80533,-0.14491,-0.07042,0.01316,0.64080,-1.05749,-0.41886,-0.83664,-0.23521,-0.26319,6.86558,2.86652,1.38711
-0.33731,1.09358,-0.39019,0.17992,-0.02428,-0.08690,0.99545,-0.11116,-0.05135,0.22426,0.13438,-0.59993,-0.42188,-0.83385,-0.24537,-0.25787,13.36271,3.31024,1.90964
-0.33440,1.09344,-0.39215,0.18661,-0.02174,-0.09836,1.12575,-0.10623,-0.06195,0.53465,0.26358,-0.75643,-0.42518,-0.83059,-0.25480,-0.25380,7.53921,-0.40863,-0.67160
-0.33136,1.09348,-0.39405,0.19322,-0.01657,-0.10631,1.26697,-0.08096,-0.05709,0.53079,0.62523,-0.71469,-0.42854,-0.82726,-0.26507,-0.24846,10.06852,1.62251,-0.27271
-0.32829,1.09397,-0.39606,0.19882,-0.00593,-0.11418,1.42445,-0.04861,-0.03916,0.34320,0.90848,-0.37859,-0.43198,-0.82363,-0.27664,-0.24185,13.67308,2.91097,1.04496
-0.32537,1.09470,-0.39743,0.20120,0.00603,-0.11032,1.23668,-0.14222,0.05449,0.40587,0.64960,1.53213,-0.42968,-0.82293,-0.28192,-0.24224,-4.16231,-0.49728,5.96252
-0.32276,1.09535,-0.39897,0.19862,0.01357,-0.11122,0.89613,-0.42447,0.14851,-0.28617,1.12956,-0.89817,-0.42317,-0.82248,-0.28485,-0.25162,-26.55896,-26.88892,4.98885
-0.32041,1.09697,-0.40129,0.19271,0.03353,-0.12308,0.72927,-0.43745,0.32157,-0.58908,1.18240,-1.00567,-0.41651,-0.82439,-0.28834,-0.25251,-12.48967,-1.57350,10.26765
-0.31822,1.09860,-0.40382,0.18569,0.05031,-0.13539,0.71162,-0.37559,0.44836,-0.49614,1.45907,-1.19116,-0.41185,-0.82557,-0.29400,-0.24973,-5.09742,1.58153,9.24626
-0.31603,1.10072,-0.40653,0.18010,0.07039,-0.14816,0.88721,-0.22518,0.58236,-0.49911,1.60739,-1.09320,-0.40874,-0.82618,-0.30376,-0.24101,8.20923,8.87370,10.19641
-0.31411,1.10319,-0.40930,0.17155,0.09142,-0.15898,1.20514,-0.01562,0.71681,-0.73877,1.48156,-0.79650,-0.40711,-0.82586,-0.31743,-0.22683,20.79140,14.48664,9.79743
-0.31248,1.10574,-0.41209,0.16028,0.10973,-0.16767,1.49642,0.19360,0.83935,-0.64079,1.29947,-0.43069,-0.40562,-0.82533,-0.33162,-0.21057,21.05623,15.99055,10.92148
-0.31078,1.10840,-0.41469,0.15219,0.12578,-0.17166,1.73212,0.36662,0.95378,-0.58692,0.80829,-0.00341,-0.40362,-0.82458,-0.34584,-0.19378,19.23900,13.34370,9.55532
-0.30872,1.11096,-0.41714,0.15121,0.13701,-0.17256,1.85665,0.46841,1.00040,0.15611,0.88835,0.04109,-0.40188,-0.82335,-0.35842,-0.17922,11.58160,9.01219,7.12149
-0.30639,1.11428,-0.41915,0.15394,0.15719,-0.16572,1.66962,0.44955,1.10651,-0.15032,0.17647,0.78893,-0.39596,-0.82494,-0.36586,-0.16979,-9.04062,-3.89096,4.88835
-0.30210,1.11912,-0.42326,0.15374,0.16257,-0.15830,1.24558,0.19756,1.16168,0.05417,0.26478,0.51384,-0.38233,-0.82782,-0.37718,-0.16211,-28.17692,-17.66010,2.75025
-0.29966,1.12151,-0.42511,0.15772,0.16415,-0.15309,0.85858,0.01560,1.16931,0.37855,0.07593,0.00648,-0.37275,-0.83172,-0.37688,-0.16509,-29.17324,-18.36315,1.26738
-0.29681,1.12349,-0.42715,0.16538,0.15984,-0.15169,0.63493,-0.05291,1.08927,0.28127,-0.55770,-0.16446,-0.36707,-0.83391,-0.37733,-0.16576,-17.79490,-8.83676,-5.20873
-0.29404,1.12497,-0.42928,0.17069,0.14919,-0.15188,0.54734,-0.01541,0.98874,0.33920,-1.09474,-0.19137,-0.36416,-0.83506,-0.37881,-0.16298,-10.09249,0.52415,-6.84753
-0.29085,1.12575,-0.43148,0.18140,0.13058,-0.15306,0.48017,0.09446,0.81428,0.83007,-1.23421,-0.02756,-0.36507,-0.83543,-0.37879,-0.15904,-3.24242,6.66993,-11.61735
-0.28742,1.12646,-0.43366,0.19274,0.11451,-0.15378,0.26377,0.09747,0.67278,0.82193,-1.36558,0.31444,-0.36403,-0.83736,-0.37532,-0.15954,-11.75415,3.74913,-10.09006
-0.28420,1.12721,-0.43571,0.19926,0.10256,-0.15229,0.00151,0.00727,0.58117,0.68964,-1.29954,0.40567,-0.36066,-0.84019,-0.37035,-0.16386,-21.38253,-5.77325,-10.06948
-0.28067,1.12725,-0.43733,0.20815,0.08326,-0.14519,-0.36629,-0.16782,0.46871,0.47760,-1.10196,0.44577,-0.35606,-0.84391,-0.36161,-0.17401,-24.85595,-12.54770,-7.06560
-0.27713,1.12713,-0.43866,0.21567,0.06547,-0.13547,-0.50440,-0.23492,0.36883,0.41524,-1.24192,0.57206,-0.35365,-0.84585,-0.35654,-0.17988,-13.65230,-7.41810,-7.28738
-0.27334,1.12636,-0.43957,0.22510,0.04168,-0.12137,-0.47815,-0.20589,0.22963,0.50779,-1.67229,0.90992,-0.35481,-0.84584,-0.35417,-0.18227,1.24955,0.16309,-8.50402
-0.26976,1.12563,-0.44048,0.23086,0.02332,-0.11046,-0.45743,-0.17907,0.11090,0.54101,-2.10359,1.30233,-0.35636,-0.84572,-0.35172,-0.18454,3.59131,3.87778,-9.86897
-0.26580,1.12377,-0.44053,0.24002,-0.00635,-0.09031,-0.49882,-0.22362,-0.06928,0.92635,-2.19452,1.80793,-0.35937,-0.84473,-0.34777,-0.19063,-1.50650,-0.60347,-12.93977
-0.26144,1.12115,-0.43970,0.25315,-0.04116,-0.06166,-0.47008,-0.34147,-0.24130,0.62782,-2.05677,1.61129,-0.36234,-0.84207,-0.34652,-0.19886,-0.65382,-10.46604,-10.13150
-0.25723,1.11862,-0.43872,0.26244,-0.06882,-0.03622,-0.34372,-0.34731,-0.39219,0.52093,-1.84902,1.80384,-0.36753,-0.83854,-0.34715,-0.20311,8.93834,-1.49312,-11.09085
-0.25325,1.11620,-0.43769,0.26654,-0.08925,-0.01547,-0.30754,-0.38490,-0.48210,0.22994,-1.64605,1.83047,-0.37099,-0.83591,-0.34648,-0.20875,7.61865,-1.89022,-9.28726
-0.24952,1.11341,-0.43618,0.26619,-0.11067,0.00766,-0.35548,-0.47086,-0.57519,-0.13785,-1.60688,1.77212,-0.37376,-0.83351,-0.34398,-0.21735,-2.70680,-5.00471,-4.94279
-0.24589,1.11024,-0.43400,0.26463,-0.13279,0.03574,-0.52575,-0.61834,-0.70650,-0.19328,-0.88541,1.37702,-0.37617,-0.83127,-0.33811,-0.23058,-10.39718,-8.47183,-6.83552
-0.24250,1.10790,-0.43240,0.26009,-0.13938,0.05073,-0.60471,-0.66630,-0.76472,-0.65182,-0.06173,0.89890,-0.37845,-0.82938,-0.33338,-0.24033,-8.24854,-5.98802,-7.30636
-0.23997,1.10614,-0.43092,0.24426,-0.13636,0.06113,-0.60015,-0.62106,-0.72064,-1.58565,0.79294,0.24265,-0.37961,-0.82856,-0.33017,-0.24572,-3.08578,1.01265,1.01426
-0.23871,1.10538,-0.42967,0.21372,-0.11944,0.06566,-0.42649,-0.41671,-0.54645,-2.11064,1.56083,0.00718,-0.38014,-0.82901,-0.33090,-0.24239,9.84548,11.54487,9.34863
-0.23790,1.10522,-0.42854,0.18256,-0.09737,0.06784,-0.22093,-0.21629,-0.33672,-2.25935,1.60334,0.22410,-0.37961,-0.82989,-0.33368,-0.23629,15.46720,14.64310,14.70062
-0.23721,1.10518,-0.42735,0.15616,-0.07862,0.07114,-0.09290,-0.09856,-0.15513,-2.03697,1.43853,0.50719,-0.37783,-0.83105,-0.33611,-0.23159,12.66526,12.17888,15.67462
-0.23991,1.10678,-0.42754,0.12989,-0.05945,0.07893,-0.01522,-0.03581,0.02275,-1.66448,1.20795,0.79877,-0.37486,-0.83262,-0.33844,-0.22735,6.58890,6.07957,13.54897
-0.23734,1.10588,-0.42452,0.11210,-0.04669,0.08955,0.03732,-0.02014,0.13558,-1.33951,0.84284,1.03275,-0.37188,-0.83361,-0.34057,-0.22543,4.75384,2.30154,10.99446
-0.23617,1.10555,-0.42119,0.09516,-0.03723,0.10782,0.07841,-0.04042,0.22073,-0.85263,0.26853,1.29386,-0.36815,-0.83445,-0.34356,-0.22390,3.03198,-0.80907,6.15458
-0.23552,1.10528,-0.41846,0.08739,-0.03496,0.12386,0.11480,-0.06599,0.22874,-0.53443,0.10240,1.29697,-0.36662,-0.83421,-0.34597,-0.22359,2.53357,-2.27653,2.08271
-0.23488,1.10500,-0.41515,0.08148,-0.03352,0.14457,0.20745,-0.04871,0.22663,-0.34048,0.02068,1.16572,-0.36634,-0.83335,-0.34972,-0.22140,5.85800,0.59320,-0.32696
-0.23422,1.10451,-0.41202,0.07597,-0.03476,0.15930,0.20901,-0.04496,0.20550,-0.34151,-0.31587,1.19339,-0.36593,-0.83307,-0.35128,-0.22065,2.63738,1.86238,-0.76730
-0.23358,1.10398,-0.40884,0.07187,-0.03677,0.17166,0.11295,-0.10783,0.16839,-0.22463,-0.18878,1.11608,-0.36453,-0.83323,-0.35056,-0.22351,-5.87060,-3.25018,-2.81214
-0.23304,1.10353,-0.40537,0.06746,-0.03751,0.18536,-0.01173,-0.19055,0.14876,-0.32321,0.03041,0.85387,-0.36197,-0.83385,-0.34886,-0.22796,-9.57074,-6.88978,-2.25453
-0.23267,1.10299,-0.40166,0.06114,-0.03902,0.19985,-0.05804,-0.24155,0.15080,-0.41845,-0.11105,0.77924,-0.35949,-0.83415,-0.34876,-0.23094,-4.03228,-3.90078,0.01648
-0.23240,1.10236,-0.39771,0.05523,-0.04188,0.21508,0.01838,-0.22702,0.15281,-0.30597,-0.18291,0.88937,-0.35864,-0.83349,-0.35134,-0.23072,3.99162,0.02781,0.13973
-0.23195,1.10164,-0.39392,0.05201,-0.04492,0.22544,0.11113,-0.20693,0.16426,-0.25442,-0.34635,0.99865,-0.35789,-0.83261,-0.35488,-0.22965,7.78582,2.30246,0.91054
-0.23151,1.10065,-0.38955,0.04918,-0.05070,0.24182,0.27833,-0.16764,0.15670,-0.13850,-0.32735,0.95196,-0.35870,-0.83048,-0.36079,-0.22686,10.15557,2.59228,-0.20804
-0.23110,1.09975,-0.38523,0.04685,-0.05459,0.25429,0.41264,-0.13105,0.16168,-0.11135,-0.27555,0.83727,-0.35925,-0.82851,-0.36665,-0.22380,10.88225,3.15284,-0.37749
-0.23073,1.09876,-0.38086,0.04424,-0.05902,0.26523,0.49326,-0.11230,0.17623,-0.14021,-0.44456,0.64445,-0.35907,-0.82692,-0.37188,-0.22129,5.85755,1.27036,1.49754
-0.23023,1.09757,-0.37656,0.04388,-0.06530,0.27328,0.51819,-0.12324,0.16705,0.13900,-0.54257,0.58846,-0.35883,-0.82539,-0.37607,-0.22034,2.25280,-0.48687,0.10005
-0.22946,1.09626,-0.37224,0.04729,-0.07191,0.27971,0.52428,-0.12719,0.13439,0.39780,-0.64489,0.47269,-0.35927,-0.82372,-0.37960,-0.21979,0.67690,-1.14854,-1.73911
-0.22833,1.09478,-0.36784,0.05517,-0.07965,0.28608,0.57384,-0.09576,0.06125,0.62115,-0.39010,0.23529,-0.36193,-0.82111,-0.38360,-0.21828,2.25085,0.87419,-5.01598
-0.22701,1.09343,-0.36364,0.06369,-0.08353,0.28846,0.70059,0.01340,0.01093,0.49836,-0.00973,-0.23350,-0.36611,-0.81803,-0.38911,-0.21304,7.20620,5.81135,-3.84501
-0.22568,1.09256,-0.35997,0.07122,-0.07995,0.28246,0.86485,0.25884,-0.00875,0.44258,0.45511,-0.58507,-0.37223,-0.81543,-0.39459,-0.20201,12.32232,15.29505,-1.34343
-0.22443,1.09219,-0.35681,0.07561,-0.06985,0.27088,0.85342,0.43141,0.00460,0.33864,0.76657,-0.70485,-0.37605,-0.81494,-0.39640,-0.19319,3.09564,14.49074,1.82201
-0.22322,1.09217,-0.35379,0.07873,-0.05687,0.25978,0.69190,0.48993,0.01836,0.44551,1.22316,-0.68917,-0.37759,-0.81607,-0.39480,-0.18866,-8.60091,7.70742,2.04433
-0.22179,1.09316,-0.35096,0.08448,-0.03255,0.24833,0.37897,0.44637,0.06668,0.55063,2.10793,-0.64935,-0.37546,-0.81970,-0.38919,-0.18884,-21.07816,-1.52187,2.60346
-0.22032,1.09503,-0.34806,0.08923,-0.00082,0.24041,0.13742,0.38784,0.19401,0.37803,2.66223,-0.65541,-0.37042,-0.82416,-0.38476,-0.18843,-20.36702,-5.40148,7.92596
-0.21863,1.09774,-0.34510,0.09616,0.03653,0.23471,0.08595,0.42435,0.36355,0.59552,3.02306,-0.65234,-0.36555,-0.82802,-0.38392,-0.18267,-7.23154,-0.18519,11.74359
-0.21646,1.10196,-0.34222,0.10892,0.08867,0.22839,0.18288,0.58672,0.62011,0.81937,2.85627,-0.16620,-0.35999,-0.83220,-0.38616,-0.16950,6.24519,9.52630,14.65361
-0.21407,1.10601,-0.33901,0.12188,0.12964,0.22876,0.15473,0.58926,0.79519,1.18586,2.91500,0.56956,-0.35306,-0.83641,-0.38678,-0.16177,1.87606,4.49102,12.89177
-0.21153,1.11044,-0.33532,0.13425,0.16744,0.23600,0.05266,0.46251,0.98335,1.19668,3.37972,0.92695,-0.34237,-0.84144,-0.38694,-0.15822,-6.94118,-8.39979,14.10484
-0.20871,1.11628,-0.33107,0.14765,0.21701,0.24921,0.03969,0.28029,1.21612,0.69070,3.90497,0.55794,-0.32836,-0.84596,-0.39048,-0.15511,-3.84350,-14.43187,16.09659
-0.20629,1.12338,-0.32719,0.15303,0.27506,0.25469,0.41661,0.39923,1.54900,-0.41286,4.30323,-1.34576,-0.31580,-0.84812,-0.40243,-0.13789,14.41246,-0.87070,18.03977
-0.20416,1.13039,-0.32413,0.15373,0.32076,0.24745,1.16912,1.00762,1.80622,-0.20814,2.67662,-0.57444,-0.31272,-0.84563,-0.42088,-0.09988,55.92894,50.56612,21.10287
-0.20252,1.13719,-0.32197,0.14698,0.35330,0.22877,1.35798,1.30791,2.00598,-0.56684,1.70478,-1.11888,-0.30482,-0.84702,-0.42950,-0.07189,28.86846,36.88140,16.86569
-0.20146,1.14414,-0.32102,0.13348,0.38153,0.19691,0.93282,1.30352,2.16643,-0.94822,1.06357,-1.64082,-0.29082,-0.85562,-0.42424,-0.05788,-21.00906,-2.41437,13.35775
-0.19982,1.15032,-0.31960,0.13114,0.39292,0.17807,0.35304,0.94596,2.12983,0.93793,0.23176,-0.69685,-0.27594,-0.86483,-0.41523,-0.05931,-34.48249,-18.36071,5.39884
-0.19702,1.15643,-0.31815,0.14548,0.40118,0.16382,-0.34627,0.41408,1.98230,1.42815,0.75219,-1.32384,-0.25994,-0.87546,-0.40076,-0.07341,-55.06409,-56.97443,-4.22505
-0.19261,1.16310,-0.31673,0.17898,0.41568,0.15214,-0.76210,0.16590,1.72347,1.86417,1.66643,-1.22817,-0.25148,-0.88296,-0.38770,-0.08263,-32.65088,-27.96518,-15.00875
-0.18788,1.17033,-0.31520,0.21099,0.43565,0.14431,-0.60195,0.41265,1.50425,2.06466,2.08156,-1.08240,-0.25178,-0.88480,-0.38535,-0.07248,3.85870,9.95695,-16.48556
-0.18273,1.17905,-0.31391,0.24192,0.47189,0.13428,-0.36558,0.76531,1.34106,2.29207,3.37181,-0.42624,-0.25429,-0.88549,-0.38487,-0.05586,16.04781,29.94506,-16.03189
-0.17768,1.18982,-0.31260,0.26568,0.53015,0.12652,-0.35357,0.80272,1.31547,1.82518,4.98842,-0.05276,-0.24946,-0.88874,-0.38171,-0.04707,4.32128,11.09505,-5.12490
-0.17306,1.20337,-0.31127,0.27948,0.61677,0.12061,-0.41264,0.65661,1.44566,0.60067,7.59585,-0.63332,-0.23714,-0.89372,-0.37844,-0.04265,-4.44980,-11.82171,6.12108
-0.16925,1.22258,-0.31069,0.27829,0.76907,0.10449,-0.54328,0.45696,1.77378,-0.50110,9.52854,-1.04291,-0.21659,-0.90110,-0.37370,-0.03818,-4.84699,-10.01651,19.39791
-0.16629,1.24294,-0.31025,0.26502,0.91138,0.08970,-0.62820,0.30638,2.06573,-1.38285,10.96845,-1.15741,-0.19545,-0.90799,-0.36915,-0.03294,-5.97992,-12.35935,21.10302
-0.16436,1.26620,-0.31010,0.23939,1.06740,0.07354,-0.60260,0.28206,2.34666,-2.67994,11.67404,-1.52723,-0.17413,-0.91370,-0.36644,-0.02353,0.56362,-4.93861,20.20826
-0.16423,1.29224,-0.31035,0.19202,1.23139,0.05469,-0.55231,0.40232,2.69031,-4.25775,11.93206,-1.26882,-0.15085,-0.91930,-0.36341,-0.00797,3.49637,10.45639,21.50249
-0.16572,1.31893,-0.31066,0.13161,1.36911,0.03917,-0.60965,0.36618,3.06420,-5.37141,11.05437,-0.89845,-0.12230,-0.92563,-0.35811,0.00429,-0.83566,5.58269,29.33223
-0.16899,1.34711,-0.31109,0.05998,1.49756,0.02560,-0.75037,0.14794,3.43672,-6.19655,10.44255,-0.88694,-0.08827,-0.93229,-0.35060,0.01077,-6.19039,-14.26449,32.66948
-0.17558,1.37927,-0.31151,-0.04440,1.65489,0.01495,-0.82694,-0.12334,3.88815,-7.00172,9.29893,-0.51577,-0.04771,-0.93761,-0.34403,0.01625,-2.67216,-19.00305,30.45991
-0.18308,1.41090,-0.31123,-0.14121,1.77430,0.01652,-0.69740,-0.16823,4.19136,-7.34839,8.11378,0.34908,-0.01165,-0.93919,-0.34210,0.02748,7.06049,-4.18042,24.40647
-0.19236,1.44295,-0.31007,-0.24420,1.87706,0.03032,-0.40623,-0.05933,4.42770,-7.75834,6.70952,1.12547,0.02224,-0.93724,-0.34519,0.04394,15.50027,11.60976,17.25836
-0.20355,1.47517,-0.30837,-0.35401,1.96071,0.04876,-0.07789,0.16902,4.58604,-8.44282,5.33058,1.24403,0.05360,-0.93276,-0.35059,0.06467,17.12374,21.03359,12.65665
-0.21723,1.50712,-0.30657,-0.47718,2.02359,0.06506,0.22914,0.51469,4.75210,-9.32414,3.60569,0.95509,0.08412,-0.92599,-0.35666,0.09090,14.93600,29.88497,10.41230
-0.23341,1.53811,-0.30506,-0.61127,2.06163,0.07389,0.38802,0.79048,4.91508,-9.83740,1.58527,0.63066,0.11546,-0.91855,-0.35950,0.11705,5.88147,26.86236,11.84779
-0.25205,1.56750,-0.30390,-0.75404,2.06837,0.07586,0.42379,0.77931,5.13358,-10.02814,-0.69141,0.29966,0.15240,-0.91074,-0.35872,0.13653,2.59229,7.51966,14.72055
-0.27374,1.59460,-0.30302,-0.91369,2.04136,0.07361,0.45571,0.48495,5.37521,-9.67306,-2.70230,-0.19610,0.19466,-0.90175,-0.35677,0.14723,7.99559,-16.40509,14.91017
-0.29302,1.62080,-0.30225,-1.00621,2.00959,0.07012,0.49293,0.34015,5.48165,-9.09887,-3.85398,-0.61177,0.23277,-0.89133,-0.35490,0.15933,12.10755,-16.72538,12.33012
-0.31632,1.64389,-0.30203,-1.13427,1.93879,0.05972,0.53698,0.30403,5.51581,-7.43911,-5.27888,-1.13929,0.26826,-0.87934,-0.35333,0.17307,5.66530,-3.20386,4.00253
-0.33879,1.66555,-0.30239,-1.22725,1.86137,0.04310,0.44465,0.47470,5.42472,-6.15290,-6.32481,-1.46104,0.29641,-0.86811,-0.34871,0.19217,-7.67156,8.36063,-4.81641
-0.36193,1.68429,-0.30354,-1.31253,1.75735,0.01838,0.23967,0.58290,5.28836,-4.48814,-6.90616,-1.51040,0.32199,-0.85821,-0.33999,0.21025,-15.03420,3.12469,-6.96490
-0.38408,1.70225,-0.30477,-1.36650,1.66015,-0.00304,0.07253,0.56540,5.12742,-3.10334,-7.15942,-1.36138,0.34707,-0.84843,-0.33065,0.22445,-12.04346,-4.23857,-10.71064
-0.40540,1.71954,-0.30584,-1.39719,1.57512,-0.01743,-0.01630,0.49110,4.96077,-1.89951,-7.03335,-0.85136,0.37147,-0.83821,-0.32214,0.23586,-8.82438,-7.91877,-12.79732
-0.42633,1.73465,-0.30677,-1.41630,1.47810,-0.02685,0.00704,0.38378,4.75337,-0.82494,-6.86194,-0.44556,0.39440,-0.82755,-0.31646,0.24387,2.93818,-7.88551,-14.88178
-0.44660,1.74803,-0.30736,-1.42077,1.37322,-0.03016,0.06214,0.36153,4.50258,0.08398,-6.43903,-0.15269,0.41429,-0.81653,-0.31292,0.25243,4.68951,-2.04246,-16.01691
-0.46604,1.76102,-0.30779,-1.41269,1.28286,-0.03074,0.08951,0.39073,4.32536,1.10771,-6.64454,-0.08540,0.43389,-0.80453,-0.30892,0.26274,0.13366,3.58596,-13.99822
-0.48436,1.77229,-0.30845,-1.39166,1.18709,-0.03458,0.15116,0.38348,4.21025,1.92508,-7.04283,-0.47434,0.45453,-0.79143,-0.30532,0.27170,3.55342,0.49774,-9.78835
-0.50175,1.78190,-0.30962,-1.35841,1.08524,-0.04498,0.11253,0.47147,4.16522,2.72951,-7.79235,-1.33331,0.47454,-0.77713,-0.29977,0.28466,0.54417,4.37979,-4.88399
-0.51786,1.78962,-0.31154,-1.31399,0.97753,-0.06425,-0.18673,0.67234,4.20180,3.52983,-8.05503,-1.87209,0.49233,-0.76274,-0.28740,0.30537,-19.01697,7.53681,1.93623
-0.53289,1.79668,-0.31401,-1.26612,0.88440,-0.08707,-0.58423,0.80726,4.25240,4.73444,-7.80315,-2.05100,0.50882,-0.74898,-0.26962,0.32777,-34.13375,5.07472,6.16901
-0.54589,1.80098,-0.31734,-1.19357,0.77257,-0.11788,-0.96834,0.74888,4.36802,6.14632,-7.85724,-1.94554,0.52775,-0.73505,-0.24631,0.34715,-29.31232,-9.54619,8.07626
-0.55638,1.80385,-0.32074,-1.10130,0.66367,-0.14365,-1.11884,0.58509,4.53949,7.55594,-7.13739,-1.46674,0.55074,-0.71822,-0.22448,0.36118,-10.48484,-14.35481,13.98732
-0.56246,1.80568,-0.32433,-0.96769,0.56173,-0.16591,-1.08694,0.38173,4.67239,9.22767,-5.07451,-1.03385,0.57512,-0.69989,-0.20550,0.37036,5.23170,-11.53058,11.80904
-0.56491,1.80915,-0.32781,-0.81027,0.50404,-0.17950,-1.08826,0.31877,4.54175,10.52093,-2.20726,-0.81031,0.59202,-0.68458,-0.19005,0.38045,3.40897,-4.13922,-4.37589
-0.56855,1.81501,-0.33112,-0.70302,0.49034,-0.18943,-1.20864,0.21369,4.42305,10.95453,-0.55899,-1.13417,0.60676,-0.67082,-0.17062,0.39081,-3.65193,-6.32753,-15.52454
-0.56489,1.82278,-0.33480,-0.51362,0.50628,-0.20336,-1.37122,0.09546,3.97956,13.00848,2.64580,-0.84157,0.61251,-0.66501,-0.15284,0.39904,-10.45141,-14.49924,-18.08776
-0.55843,1.83389,-0.33785,-0.31850,0.56571,-0.20620,-1.21659,0.25142,3.03049,14.62980,5.72594,-0.14814,0.60626,-0.66682,-0.15469,0.40480,2.16139,0.74954,-59.82073
-0.55053,1.84706,-0.34113,-0.14473,0.64130,-0.21214,-1.00917,0.18009,2.36979,14.98090,7.15339,-0.57650,0.60452,-0.66865,-0.15430,0.40454,17.77241,1.65196,-61.96925
-0.53457,1.86496,-0.34459,0.11037,0.76952,-0.21924,-0.82347,0.05858,1.54005,17.56232,9.19074,-0.28058,0.59627,-0.67775,-0.15715,0.40052,10.21840,-8.73088,-53.64521
-0.49734,1.89799,-0.34631,0.69294,1.14118,-0.19447,-0.63290,0.35000,-0.59472,21.58312,16.83469,1.76096,0.55881,-0.70545,-0.18300,0.39571,-1.64068,18.34216,-80.86384
-0.45689,1.94767,-0.34957,1.00665,1.40692,-0.16257,-0.68354,0.77182,-2.37197,24.13497,20.94549,2.58429,0.50162,-0.73649,-0.21216,0.40118,-6.81148,21.88530,-115.41100
-0.42189,1.98509,-0.34964,1.31197,1.66546,-0.13065,-0.70648,1.28219,-4.40383,27.88767,21.82988,2.53595,0.42892,-0.76951,-0.25248,0.40016,-5.03519,30.97836,-154.87630
-0.37044,2.03055,-0.34940,1.79587,1.98753,-0.10149,-0.76481,2.00225,-7.39801,33.86281,17.43458,0.68905,0.31083,-0.80866,-0.31139,0.39050,-6.81082,37.81528,-187.69020
-0.31065,2.07066,-0.35150,2.30982,2.17039,-0.11233,-0.83621,2.43996,-9.95829,40.33659,8.98676,-2.21647,0.18339,-0.83560,-0.36313,0.36915,-15.71839,36.17901,-188.81750
-0.24346,2.10436,-0.35631,2.81928,2.22116,-0.15990,-0.64926,2.46420,-12.22174,46.26590,-0.93734,-5.19268,0.05120,-0.84948,-0.41197,0.32564,-20.11557,3.64082,-176.40030
-0.15733,2.12577,-0.36512,3.49062,2.08227,-0.25467,-0.98916,2.70658,-15.08746,49.03272,-21.47499,-9.08748,-0.12363,-0.84286,-0.44934,0.26904,-40.13889,14.01975,-200.77540
-0.05088,2.10941,-0.38112,4.33934,1.40521,-0.43966,-1.92721,3.54214,-18.39644,41.71177,-56.03827,-11.10441,-0.33549,-0.79432,-0.46167,0.20823,-15.57326,82.58664,-189.83070
0.03494,2.07335,-0.39644,4.71257,0.57349,-0.57663,-2.09718,3.17775,-19.93439,20.66618,-80.18118,-9.36446,-0.48497,-0.73108,-0.46292,0.12660,-32.56271,32.33642,-152.90320
0.10072,1.99707,-0.41140,4.70579,-0.66332,-0.67685,-2.17562,1.65069,-20.06973,-20.91574,-90.12579,-2.62069,-0.57916,-0.67653,-0.45402,0.02737,-93.74575,-10.48636,-36.45285
0.12626,1.91052,-0.42010,4.11858,-1.79157,-0.66595,-2.62838,-0.66087,-17.71547,-56.53784,-66.66148,3.71443,-0.59723,-0.67001,-0.43661,-0.06141,-147.92050,-9.73659,130.28000
0.11907,1.83484,-0.42480,3.16155,-2.53476,-0.59863,-4.13730,-3.30261,-14.55159,-59.54277,-28.51223,3.89868,-0.57500,-0.69740,-0.39629,-0.16113,-200.97880,57.32596,201.72430
0.11142,1.78536,-0.43167,2.38706,-2.74546,-0.57780,-7.17480,-4.44099,-11.64865,-50.65229,-5.04858,0.15777,-0.55441,-0.73418,-0.29958,-0.25272,-216.97820,154.67300,105.56050
0.10995,1.75229,-0.43933,1.87711,-2.67018,-0.57197,-8.76838,-4.57040,-7.53134,-31.40038,24.13294,-1.87820,-0.49306,-0.78822,-0.22024,-0.29512,-248.43370,219.76050,99.48579
0.11065,1.72532,-0.44671,1.50684,-2.52579,-0.56241,-8.47268,-3.45041,-5.25783,-25.55979,10.44261,-0.27198,-0.46918,-0.81272,-0.17345,-0.29879,-0.98257,198.92570,164.56220
0.11192,1.69957,-0.45248,1.22039,-2.39008,-0.53162,-5.79578,-0.86921,-3.52611,-18.48626,10.98534,1.08854,-0.48088,-0.82797,-0.17843,-0.22666,177.18120,174.66040,79.70341
0.11639,1.67525,-0.45502,1.03909,-2.26195,-0.46062,-0.97987,1.40854,-2.88300,-10.41590,8.75978,5.99516,-0.52406,-0.80493,-0.25361,-0.11461,354.06120,109.78200,16.78954
0.12297,1.64981,-0.45522,0.92558,-2.17711,-0.37132,2.68404,2.73444,-2.55864,-8.07176,4.07484,10.70999,-0.55779,-0.76332,-0.32556,-0.01513,368.15420,69.26460,-27.72520
0.12624,1.62403,-0.44950,0.78780,-2.11589,-0.21550,5.01226,2.99984,-1.90132,-6.80492,-0.22551,13.11686,-0.56455,-0.72484,-0.39041,0.05882,188.41930,1.41029,0.36692
0.13002,1.59442,-0.44173,0.68261,-2.11948,-0.06030,4.66037,1.92244,-1.18444,-5.98075,-4.62972,13.05551,-0.55076,-0.72024,-0.41723,0.06201,16.69324,-67.90372,28.26628
0.13486,1.56211,-0.43474,0.61631,-2.15995,0.04913,3.43059,0.67791,-0.77987,-6.23664,-6.41050,11.46374,-0.53644,-0.72809,-0.42536,0.03441,-89.73633,-115.05650,21.86547
0.13528,1.52353,-0.42150,0.50070,-2.28214,0.22423,0.89841,-1.32584,-0.25794,-7.55411,-8.21274,8.78011,-0.50233,-0.76002,-0.40973,-0.04644,-147.10100,-112.30500,10.35225
0.13345,1.48111,-0.40983,0.37019,-2.43805,0.34715,-1.06305,-2.78115,-0.21824,-9.85884,-10.96421,6.01517,-0.47657,-0.77765,-0.39121,-0.12289,-129.57170,-94.48184,-8.56852
0.12876,1.43463,-0.39981,0.22101,-2.62774,0.42338,-2.26595,-3.61005,-0.74023,-10.57112,-11.29510,2.47907,-0.46711,-0.77835,-0.37410,-0.18984,-83.77481,-63.09942,-40.71819
0.12381,1.38868,-0.39197,0.09946,-2.76960,0.45071,-2.38828,-3.68823,-1.30687,-11.48888,-10.63001,0.34393,-0.47104,-0.76787,-0.36839,-0.22974,-23.41200,-27.49446,-48.36372
0.11454,1.34007,-0.38546,-0.05912,-2.91647,0.45128,-1.75681,-3.28688,-1.91189,-12.24136,-8.70517,-1.87726,-0.48850,-0.74852,-0.37352,-0.24815,41.92791,8.36950,-39.96137
0.10057,1.29102,-0.38119,-0.25776,-3.04248,0.41901,-0.45895,-2.40947,-2.30873,-13.05822,-6.55792,-2.53720,-0.51555,-0.72457,-0.39037,-0.23837,93.59012,39.16953,-15.60817
0.08625,1.24455,-0.37745,-0.41951,-3.10519,0.38590,0.07591,-1.89496,-2.40083,-13.39612,-5.10984,-1.82350,-0.53208,-0.70855,-0.39796,-0.23765,79.65341,40.43269,-2.64663
0.06703,1.19835,-0.37471,-0.61770,-3.14670,0.34489,-0.44805,-1.69380,-2.42578,-14.36288,-3.20608,-1.87014,-0.53910,-0.70362,-0.38500,-0.25703,-8.36043,23.83123,-3.59920
0.04487,1.15307,-0.37269,-0.81851,-3.16802,0.30203,-1.92388,-1.72652,-2.57637,-14.16886,-1.58342,-2.78502,-0.53801,-0.70697,-0.34673,-0.30086,-90.38548,14.36101,-19.06403
0.02106,1.10879,-0.37161,-1.00311,-3.17161,0.25280,-3.34863,-1.60110,-2.83228,-12.87054,1.26288,-4.79165,-0.53722,-0.70922,-0.29699,-0.34669,-110.76630,17.34975,-33.90415
-0.00395,1.06610,-0.37141,-1.16604,-3.14759,0.20111,-3.50202,-0.99634,-2.99332,-11.23806,4.34734,-5.12980,-0.54920,-0.70525,-0.26293,-0.36314,-34.88115,37.34418,-27.02110
-0.03059,1.02675,-0.37118,-1.31963,-3.07918,0.16189,-2.45981,-0.18925,-2.91457,-10.92281,7.43676,-2.39800,-0.57210,-0.69714,-0.25477,-0.34897,73.91943,42.80917,-8.86583
-0.05834,0.99162,-0.36981,-1.45751,-2.96719,0.14742,-1.65168,0.31647,-2.56555,-11.14207,11.20817,0.28169,-0.58645,-0.69364,-0.25153,-0.33418,90.22351,37.52327,12.30420
-0.08981,0.96348,-0.36734,-1.61838,-2.77725,0.15153,-1.56350,0.52158,-1.99427,-10.74208,14.49802,2.13582,-0.58550,-0.69969,-0.24118,-0.33085,34.35595,22.67730,35.85112
-0.12164,0.94013,-0.36416,-1.75124,-2.55760,0.16524,-2.47257,0.42365,-1.46120,-7.60906,15.38642,1.58973,-0.56809,-0.71322,-0.21168,-0.35183,-48.08073,8.52508,43.20300
-0.15112,0.91937,-0.36119,-1.82430,-2.34614,0.17280,-3.38341,0.32082,-1.17804,-4.08186,15.01693,-0.89495,-0.55005,-0.72350,-0.17563,-0.37835,-79.39696,3.46624,28.30807
-0.18018,0.90176,-0.35929,-1.87662,-2.12685,0.16289,-3.14891,0.38948,-1.06003,-3.37809,13.92493,-2.80446,-0.54769,-0.72567,-0.15947,-0.38473,-3.63978,4.17176,8.01473
-0.20894,0.88427,-0.35862,-1.91497,-1.94848,0.13842,-1.86256,0.61866,-1.09085,-2.41182,13.04061,-2.76436,-0.56404,-0.72035,-0.16646,-0.36776,78.22224,6.85320,-3.57588
-0.23706,0.87060,-0.35843,-1.93648,-1.74839,0.10972,-0.18477,0.92044,-1.26645,-0.59459,12.23009,-0.92677,-0.59219,-0.70851,-0.18527,-0.33615,114.93880,10.07899,-17.05058
-0.26382,0.85639,-0.35786,-1.93166,-1.59638,0.09342,0.35161,1.06666,-1.46629,1.65369,12.62407,0.24355,-0.61109,-0.69921,-0.18555,-0.32132,72.63710,8.07884,-22.23243
-0.28821,0.84701,-0.35712,-1.89352,-1.40767,0.08365,0.04698,1.09188,-1.57521,4.27977,13.71765,0.22625,-0.61978,-0.69492,-0.17048,-0.32233,-6.57828,4.12524,-10.56480
-0.30962,0.84106,-0.35631,-1.82021,-1.20810,0.07656,-0.38463,1.09921,-1.48002,6.75237,14.79028,-1.14033,-0.62157,-0.69543,-0.15281,-0.32662,-37.96615,3.65527,5.96122
-0.32564,0.84141,-0.35592,-1.67670,-0.94860,0.06451,-0.15485,1.12670,-1.17192,9.07326,14.11437,-0.89343,-0.62461,-0.69722,-0.15061,-0.31789,11.22521,2.20766,17.71204
-0.35666,0.83528,-0.35345,-1.46384,-0.67817,0.07339,0.20900,0.95795,-1.10867,10.24534,10.34804,2.39627,-0.63938,-0.68954,-0.14879,-0.30592,20.86805,-8.91892,2.04685
-0.37068,0.83163,-0.35095,-1.37629,-0.59955,0.09302,0.02240,0.80284,-1.22194,11.69465,9.07838,3.82590,-0.64587,-0.68322,-0.14052,-0.31034,-2.30405,-12.22184,-6.30721
-0.36933,0.83585,-0.34343,-1.09276,-0.42941,0.17769,-0.80476,-0.06872,-1.49665,16.69444,8.30838,4.29421,-0.64440,-0.66778,-0.12894,-0.34956,-49.12173,-32.39064,-13.49769
-0.37101,0.83739,-0.33744,-0.90200,-0.32463,0.22599,-0.92372,-0.73495,-1.49092,15.68898,9.93009,2.21205,-0.64367,-0.65426,-0.13348,-0.37392,-36.16942,-57.59095,-2.37381
-0.37284,0.84048,-0.33259,-0.75684,-0.22293,0.24803,-0.53051,-1.22777,-1.32803,14.15250,11.18831,0.27602,-0.64523,-0.64188,-0.15213,-0.38538,6.67859,-54.81192,10.94098
-0.36522,0.85464,-0.33028,-0.51018,0.01208,0.23059,0.67014,-1.76860,-0.53111,11.22776,12.17936,-2.16906,-0.64086,-0.63724,-0.20447,-0.37605,58.45391,-33.83183,45.27079
-0.36345,0.86518,-0.32991,-0.38587,0.15654,0.19083,1.04933,-1.72707,0.15526,9.73454,11.35718,-3.13915,-0.63094,-0.64287,-0.23084,-0.36789,36.90442,-9.43996,60.10970
