posX, posY, posZ, velX, velY, velZ, angVelX, angVelY, angVelZ, accX, accY, accZ, rotX, rotY, rotZ, rotW, angAccX, angAccY, angAccZ
-0.36866,1.15818,-0.39568,-0.26048,0.34208,-0.10230,0.57554,0.60392,0.86965,0.52891,-1.95542,-0.36920,-0.29192,-0.91578,-0.12660,-0.24516,-11.50200,3.38547,-5.98557
-0.37137,1.16019,-0.39765,-0.24642,0.30012,-0.11042,0.23285,0.52865,0.74313,1.03806,-2.75905,-0.31612,-0.28844,-0.91765,-0.11986,-0.24565,-18.88059,-4.80232,-5.37919
-0.37366,1.16194,-0.39952,-0.22825,0.26179,-0.11501,-0.06085,0.43900,0.61298,1.47509,-2.75256,-0.25837,-0.28557,-0.91904,-0.11269,-0.24721,-21.07864,-6.79886,-8.73990
-0.37555,1.16318,-0.40130,-0.20822,0.22415,-0.11764,-0.31374,0.33879,0.48798,1.31128,-2.60137,-0.28860,-0.28309,-0.91999,-0.10489,-0.24997,-19.73140,-8.40221,-8.06851
-0.37756,1.16448,-0.40308,-0.19456,0.19657,-0.11967,-0.38900,0.32921,0.38255,0.92758,-1.96052,-0.53619,-0.28215,-0.92094,-0.09993,-0.24954,-12.57852,-4.47491,-8.91593
-0.37970,1.16550,-0.40493,-0.18614,0.17109,-0.12204,-0.33825,0.38032,0.29467,0.44664,-1.67889,-0.23604,-0.28259,-0.92194,-0.09770,-0.24621,1.77540,3.73047,-7.76624
-0.38200,1.16632,-0.40683,-0.18160,0.14789,-0.12469,-0.24253,0.44600,0.23362,0.34419,-1.64590,-0.26489,-0.28329,-0.92304,-0.09705,-0.24150,6.17349,4.20436,-4.25360
-0.38415,1.16686,-0.40877,-0.17583,0.12546,-0.12760,-0.13930,0.50779,0.16440,0.44884,-1.57200,-0.13763,-0.28488,-0.92390,-0.09702,-0.23628,7.60878,4.74822,-4.68617
-0.38618,1.16726,-0.41068,-0.16946,0.10587,-0.12939,-0.09824,0.53316,0.11956,0.55031,-1.23620,0.10235,-0.28580,-0.92478,-0.09608,-0.23211,4.94638,3.30001,-4.63995
-0.38811,1.16763,-0.41260,-0.16300,0.08974,-0.13079,-0.19005,0.46802,0.14138,0.56101,-1.03951,0.00273,-0.28362,-0.92593,-0.09261,-0.23158,-4.02208,-3.30422,0.36121
-0.38996,1.16814,-0.41468,-0.15610,0.07900,-0.13431,-0.33111,0.38333,0.18650,0.50027,-0.55052,-0.28778,-0.27988,-0.92729,-0.08750,-0.23270,-10.03271,-6.28701,3.34080
-0.39186,1.16887,-0.41681,-0.15152,0.07378,-0.13775,-0.45210,0.31599,0.24330,0.38542,-0.32900,-0.27436,-0.27537,-0.92883,-0.08224,-0.23385,-9.57772,-5.68890,4.46971
-0.39360,1.16964,-0.41923,-0.14492,0.07023,-0.14461,-0.59245,0.24138,0.31236,0.31484,-0.01052,-0.60547,-0.26961,-0.93049,-0.07593,-0.23606,-9.18622,-5.74770,4.99533
-0.39534,1.17067,-0.42154,-0.14076,0.07110,-0.14888,-0.55409,0.25884,0.31528,0.29078,0.12165,-0.50323,-0.26698,-0.93185,-0.07316,-0.23458,-0.99572,0.09876,1.51487
-0.39694,1.17186,-0.42394,-0.13531,0.07442,-0.15354,-0.41456,0.33244,0.27606,0.39381,0.38751,-0.51230,-0.26668,-0.93301,-0.07291,-0.23034,7.63437,4.11906,-2.00140
-0.39842,1.17334,-0.42639,-0.12916,0.08110,-0.15773,-0.21245,0.42864,0.22494,0.50358,0.50411,-0.16233,-0.26789,-0.93402,-0.07506,-0.22405,14.47537,7.63314,-4.69613
-0.39971,1.17506,-0.42882,-0.12119,0.09062,-0.16076,-0.04618,0.46298,0.19709,0.58895,0.80434,-0.13339,-0.26860,-0.93479,-0.07783,-0.21901,9.88143,2.67853,-2.30785
-0.40088,1.17701,-0.43121,-0.11309,0.10160,-0.16251,0.06791,0.44481,0.20760,0.67940,0.71979,-0.01887,-0.26799,-0.93554,-0.08069,-0.21547,9.25373,-0.35254,0.20573
-0.40187,1.17892,-0.43358,-0.10395,0.10941,-0.16372,0.12816,0.40574,0.19921,0.87014,0.60419,0.01620,-0.26760,-0.93604,-0.08280,-0.21299,6.69596,-2.27531,-0.25249
-0.40233,1.18104,-0.43591,-0.08866,0.11847,-0.16455,0.12681,0.30609,0.19920,1.08728,0.51707,0.04873,-0.26650,-0.93622,-0.08408,-0.21305,1.12842,-5.16822,-0.38180
-0.40273,1.18304,-0.43827,-0.07600,0.12402,-0.16587,0.09101,0.22014,0.20148,0.96835,0.49741,-0.30010,-0.26499,-0.93648,-0.08432,-0.21372,-2.98657,-8.24714,1.33659
-0.40304,1.18545,-0.44091,-0.06482,0.13420,-0.17071,0.13608,0.22520,0.16549,0.52388,0.94796,-0.56876,-0.26542,-0.93670,-0.08587,-0.21160,0.87802,-2.03144,-3.07892
-0.40376,1.18818,-0.44370,-0.06212,0.14750,-0.17682,0.17316,0.24388,0.19452,0.08475,1.02716,-0.34723,-0.26413,-0.93752,-0.08784,-0.20873,4.56402,2.33879,0.67309
-0.40469,1.19127,-0.44670,-0.06300,0.16373,-0.18494,0.18397,0.24696,0.27178,-0.10542,1.05429,-0.64637,-0.26088,-0.93879,-0.08969,-0.20631,0.30392,-0.60588,5.84448
-0.40562,1.19453,-0.44982,-0.06351,0.17888,-0.19304,0.23981,0.27667,0.29851,-0.05135,1.08136,-0.60014,-0.25914,-0.93979,-0.09248,-0.20271,3.11111,2.27401,2.42929
-0.40656,1.19781,-0.45293,-0.06388,0.19145,-0.19922,0.26148,0.26526,0.32510,0.09074,1.02127,-0.32966,-0.25700,-0.94064,-0.09495,-0.20033,3.82304,1.19889,1.28663
-0.40739,1.20137,-0.45618,-0.06232,0.20511,-0.20604,0.26267,0.21547,0.35556,0.11865,1.03190,-0.62202,-0.25426,-0.94133,-0.09735,-0.19942,-0.25630,-4.17604,3.33689
-0.40823,1.20522,-0.45956,-0.06159,0.22000,-0.21358,0.30374,0.21545,0.35712,-0.08637,1.10258,-0.52046,-0.25269,-0.94195,-0.10051,-0.19693,2.88904,-0.14998,-0.46370
-0.40935,1.20932,-0.46306,-0.06508,0.23544,-0.22165,0.31189,0.20836,0.39252,-0.30427,1.18256,-0.59099,-0.24984,-0.94286,-0.10321,-0.19477,2.46145,-0.57802,1.75355
-0.41072,1.21378,-0.46679,-0.07144,0.25274,-0.23114,0.29536,0.20970,0.46356,-0.54417,1.32965,-0.75908,-0.24544,-0.94425,-0.10540,-0.19244,-1.16613,-0.56787,4.58084
-0.41234,1.21850,-0.47069,-0.08031,0.27032,-0.24120,0.26749,0.20877,0.55242,-0.59617,1.16501,-0.58975,-0.23991,-0.94592,-0.10734,-0.19016,-0.80538,0.55415,5.79269
-0.41404,1.22327,-0.47471,-0.08840,0.28554,-0.25114,0.20815,0.16446,0.66699,-0.36926,0.79600,-0.66779,-0.23256,-0.94774,-0.10873,-0.18945,-4.25160,-3.35393,8.34247
-0.41545,1.22783,-0.47868,-0.09070,0.29414,-0.25807,0.22135,0.16575,0.69086,-0.18546,0.58537,-0.68720,-0.22783,-0.94901,-0.11127,-0.18731,-0.81090,-1.88401,4.22972
-0.41674,1.23237,-0.48280,-0.09089,0.30083,-0.26566,0.29515,0.20680,0.66693,0.01931,0.38804,-0.56906,-0.22509,-0.94994,-0.11526,-0.18348,4.67918,2.65558,-1.34181
-0.41810,1.23708,-0.48741,-0.09188,0.31046,-0.27989,0.40587,0.24280,0.64271,-0.12788,0.44699,-0.43743,-0.22286,-0.95061,-0.12066,-0.17921,2.83114,0.76891,-0.40061
-0.42090,1.24609,-0.49561,-0.09515,0.31607,-0.28592,0.44167,0.23666,0.68152,-0.20040,0.28537,-0.32624,-0.21473,-0.95256,-0.12832,-0.17337,2.47689,0.15655,1.89690
-0.42244,1.25062,-0.49989,-0.09790,0.31830,-0.29037,0.45231,0.22436,0.71873,-0.22032,0.09299,-0.40814,-0.20978,-0.95359,-0.13237,-0.17069,1.13151,-1.43419,2.79208
-0.42399,1.25486,-0.50432,-0.10034,0.31574,-0.29626,0.48598,0.21191,0.75707,-0.04965,-0.43471,-0.37037,-0.20465,-0.95451,-0.13728,-0.16788,1.76985,-0.96474,2.88875
-0.42525,1.25869,-0.50877,-0.09807,0.30717,-0.30124,0.52687,0.21118,0.76138,0.28441,-0.82211,-0.43235,-0.20043,-0.95520,-0.14243,-0.16475,2.75488,-0.05621,1.33463
-0.42625,1.26223,-0.51328,-0.09244,0.29639,-0.30600,0.59771,0.24349,0.70968,0.50626,-1.04847,-0.48905,-0.19839,-0.95546,-0.14826,-0.16052,4.96390,2.03752,-2.79355
-0.42692,1.26523,-0.51792,-0.08345,0.28026,-0.31183,0.68428,0.30942,0.61189,0.67490,-1.25807,-0.43096,-0.19859,-0.95535,-0.15446,-0.15497,6.03493,5.20825,-6.14184
-0.42738,1.26791,-0.52268,-0.07312,0.26259,-0.31789,0.74235,0.37275,0.50476,0.75055,-1.39040,-0.31966,-0.19977,-0.95508,-0.16010,-0.14926,5.17718,5.96782,-7.86836
-0.42770,1.27023,-0.52753,-0.06312,0.24370,-0.32420,0.72255,0.39577,0.40594,0.68655,-1.27021,-0.42323,-0.20087,-0.95489,-0.16368,-0.14506,-0.87796,2.03690,-6.98898
-0.42805,1.27248,-0.53248,-0.05545,0.22718,-0.33045,0.68767,0.43438,0.32335,0.42440,-1.11921,-0.42800,-0.20209,-0.95485,-0.16649,-0.14034,-1.96133,2.86518,-6.07322
-0.42857,1.27441,-0.53755,-0.05129,0.20924,-0.33780,0.62597,0.51411,0.22811,0.02715,-0.82200,-0.39774,-0.20426,-0.95501,-0.16776,-0.13447,-3.65232,4.44072,-4.88676
-0.42949,1.27670,-0.54251,-0.05406,0.19983,-0.34175,0.58236,0.60040,0.17158,-0.38973,-0.48641,-0.18589,-0.20590,-0.95533,-0.16920,-0.12779,-3.65241,5.67544,-4.13276
-0.43072,1.27916,-0.54728,-0.06116,0.19505,-0.34213,0.52241,0.63135,0.17342,-0.59297,-0.22160,0.25971,-0.20583,-0.95589,-0.17025,-0.12216,-3.87955,5.75467,-1.83381
-0.43237,1.28171,-0.55174,-0.07279,0.19251,-0.33799,0.39253,0.57388,0.25406,-0.79488,-0.07851,0.60880,-0.20241,-0.95710,-0.16959,-0.11925,-8.06526,-1.69916,4.34112
-0.43438,1.28432,-0.55573,-0.08744,0.19115,-0.32768,0.19587,0.40514,0.40266,-0.82593,-0.08783,0.80282,-0.19525,-0.95886,-0.16718,-0.12046,-12.19965,-10.80861,9.31622
-0.43618,1.28688,-0.55963,-0.09603,0.18949,-0.31770,0.07245,0.26861,0.49980,-0.67479,-0.21204,0.73975,-0.18877,-0.96026,-0.16569,-0.12169,-11.26295,-12.83782,9.89570
-0.43792,1.28925,-0.56323,-0.10212,0.18572,-0.30554,0.02038,0.21525,0.53072,-0.48786,-0.36681,0.67065,-0.18419,-0.96133,-0.16502,-0.12121,-5.34915,-7.08192,4.35936
-0.43959,1.29146,-0.56666,-0.10601,0.18024,-0.29365,0.05826,0.27217,0.47896,-0.39094,-0.38728,0.68679,-0.18302,-0.96187,-0.16594,-0.11738,1.40014,2.45948,-2.25244
-0.44147,1.29369,-0.56998,-0.11184,0.17597,-0.28249,0.15343,0.39981,0.42198,-0.48720,-0.26841,0.79474,-0.18314,-0.96224,-0.16837,-0.11048,6.08709,8.92729,-5.16366
-0.44357,1.29586,-0.57312,-0.11949,0.17140,-0.27162,0.20580,0.48676,0.40733,-0.44247,-0.30947,0.87673,-0.18211,-0.96282,-0.17032,-0.10398,5.32985,7.71720,-2.37384
-0.44560,1.29802,-0.57623,-0.12455,0.16792,-0.26255,0.19795,0.49490,0.41871,-0.28888,-0.27777,0.90670,-0.17977,-0.96357,-0.17112,-0.09968,0.52444,2.84131,0.47734
-0.44758,1.30008,-0.57892,-0.12781,0.16359,-0.24924,0.13041,0.39860,0.46728,-0.05837,-0.20537,0.93338,-0.17529,-0.96455,-0.17072,-0.09888,-3.67947,-5.22246,2.54648
-0.44949,1.30232,-0.58144,-0.12965,0.16288,-0.23637,0.10979,0.31795,0.50832,-0.26340,0.14425,0.77574,-0.17085,-0.96531,-0.17137,-0.09806,-3.32355,-7.11055,2.87835
-0.45152,1.30470,-0.58402,-0.13277,0.16442,-0.22710,0.14452,0.30210,0.53799,-0.40911,0.20887,0.77046,-0.16694,-0.96590,-0.17343,-0.09534,1.14807,-3.64805,2.70641
-0.45375,1.30730,-0.58622,-0.13796,0.16836,-0.21394,0.24860,0.34165,0.55171,-0.36092,0.31088,0.60509,-0.16386,-0.96612,-0.17771,-0.09045,5.92148,0.92060,1.86676
-0.45592,1.31028,-0.58827,-0.14138,0.17705,-0.20102,0.47715,0.54934,0.48917,-0.16563,0.56073,0.63919,-0.16469,-0.96552,-0.18531,-0.07942,11.99306,12.01811,-3.50269
-0.45796,1.31342,-0.59047,-0.14232,0.18706,-0.19240,0.64702,0.71292,0.42904,-0.00378,1.00260,0.56904,-0.16576,-0.96477,-0.19242,-0.06870,12.09081,12.10951,-4.57866
-0.45997,1.31722,-0.59254,-0.14269,0.20485,-0.18322,0.82945,0.88916,0.38359,0.01298,1.47992,0.90815,-0.16715,-0.96364,-0.20076,-0.05615,11.75436,13.73088,-3.77657
-0.46187,1.32137,-0.59417,-0.14133,0.22397,-0.16951,0.98817,0.98123,0.37809,0.44250,1.84745,1.46200,-0.16731,-0.96224,-0.20999,-0.04476,13.52892,10.58088,-2.04730
-0.46314,1.32679,-0.59488,-0.13076,0.25841,-0.14513,1.16770,0.96406,0.39762,1.03924,2.49604,1.80156,-0.16624,-0.96022,-0.22152,-0.03580,12.08334,1.05725,-0.06177
-0.46414,1.33301,-0.59534,-0.11830,0.29746,-0.12180,1.28893,0.86718,0.45108,0.70416,3.21493,1.58580,-0.16328,-0.95827,-0.23281,-0.02946,8.48542,-7.35396,2.01022
-0.46544,1.33998,-0.59563,-0.11319,0.33930,-0.10117,1.49008,0.92689,0.49025,-0.17062,4.00596,1.38401,-0.16136,-0.95541,-0.24663,-0.01822,11.83875,-2.60507,3.40757
-0.46731,1.34898,-0.59508,-0.11761,0.40198,-0.07281,1.95987,1.34016,0.47227,-0.87172,5.21741,1.84064,-0.16398,-0.94930,-0.26815,0.00643,28.10382,23.79037,0.12613
-0.46984,1.36061,-0.59348,-0.13035,0.49076,-0.03448,2.59253,1.91415,0.49293,-0.60682,6.04375,2.77595,-0.16740,-0.93946,-0.29617,0.04088,39.73566,40.07415,1.23978
-0.47232,1.37313,-0.59157,-0.14003,0.57576,0.00099,2.92516,2.05906,0.65728,0.02980,5.98250,3.14335,-0.16343,-0.93082,-0.32027,0.06548,30.91718,20.78896,8.00503
-0.47456,1.38680,-0.58954,-0.14421,0.66089,0.03089,2.94308,1.73459,0.94654,0.02929,6.09398,2.16184,-0.15057,-0.92553,-0.33905,0.07601,9.46735,-21.11977,15.23413
-0.47673,1.40180,-0.58752,-0.14660,0.74709,0.05449,2.84152,1.37403,1.19342,-0.43152,6.00100,1.51105,-0.13597,-0.92140,-0.35450,0.08282,-2.66734,-31.45778,13.73527
-0.47908,1.41627,-0.58569,-0.15105,0.80616,0.06996,2.79964,1.23111,1.32953,-0.92822,5.92085,1.25715,-0.12425,-0.91591,-0.36998,0.09370,-3.56190,-25.01337,10.82032
-0.48223,1.43306,-0.58323,-0.16599,0.88501,0.09089,2.84280,1.29726,1.46897,-1.79662,5.52650,1.23302,-0.11302,-0.90859,-0.38648,0.11103,2.61557,-4.38133,9.73605
-0.48627,1.45044,-0.58045,-0.19067,0.95624,0.11237,2.90681,1.52241,1.62391,-1.87309,4.72606,1.69916,-0.10224,-0.89962,-0.40256,0.13485,4.73526,15.65849,12.52473
-0.48954,1.46516,-0.57841,-0.19881,0.97462,0.11860,2.90349,1.54961,1.68195,-1.79460,4.44269,1.85118,-0.09186,-0.89102,-0.41756,0.15261,4.20350,15.04223,14.27541
-0.49303,1.48019,-0.57622,-0.20720,0.99173,0.12489,2.89114,1.54160,1.75118,-1.73385,4.09085,1.92615,-0.07997,-0.88220,-0.43196,0.16951,3.21735,11.11536,15.80252
-0.49953,1.50062,-0.57145,-0.24868,1.06768,0.16017,2.61181,0.86598,2.16439,-1.03194,2.29671,1.39275,-0.04518,-0.88239,-0.43842,0.16475,-6.07336,-36.79572,10.38425
-0.50315,1.51974,-0.56693,-0.24612,1.12713,0.19297,2.23501,0.16000,2.27961,0.69354,0.92810,0.31896,-0.01798,-0.88373,-0.44207,0.15257,-5.19541,-3.30175,-2.14270
-0.50911,1.55201,-0.56109,-0.23238,1.13837,0.19978,2.19842,0.37642,2.21792,1.14376,0.97764,0.58556,0.00871,-0.86892,-0.46295,0.17485,-6.08597,13.67765,-2.01965
-0.51105,1.56892,-0.55752,-0.21321,1.15184,0.21120,2.18669,0.65112,2.14647,1.69186,1.05771,1.04747,0.01721,-0.85977,-0.47295,0.19187,-4.67831,21.48242,-0.96230
-0.51230,1.58653,-0.55328,-0.18827,1.17398,0.23015,2.13552,0.77692,2.00915,1.45330,1.70771,1.68210,0.02439,-0.85151,-0.48221,0.20445,-5.19257,9.38531,-6.69725
-0.51400,1.60455,-0.54806,-0.17489,1.19875,0.25992,2.15086,0.89511,1.90600,0.50071,1.96257,2.61534,0.03178,-0.84184,-0.49297,0.21742,-2.03465,9.10402,-7.15599
-0.51642,1.62268,-0.54245,-0.17442,1.21829,0.28801,2.16838,0.94228,1.86964,-0.36445,2.13813,3.18359,0.04135,-0.83187,-0.50354,0.22962,0.50312,8.42862,-4.24296
-0.52037,1.64208,-0.53430,-0.19584,1.25223,0.34603,2.24191,0.99357,1.91392,-2.18370,2.09850,4.11019,0.05325,-0.82018,-0.51508,0.24322,3.41666,3.95417,1.41462
-0.52644,1.66130,-0.52489,-0.24404,1.27842,0.41211,2.32052,0.95489,2.06205,-3.64966,1.33462,4.29780,0.06991,-0.80801,-0.52599,0.25607,6.46588,-0.88576,7.45441
-0.53388,1.68030,-0.51509,-0.30220,1.29529,0.47081,2.34141,0.71120,2.21423,-4.20419,1.14395,4.48794,0.09088,-0.79767,-0.53494,0.26325,4.87239,-14.39834,9.69470
-0.54188,1.69950,-0.50463,-0.35605,1.31188,0.52644,2.36251,0.50675,2.29743,-4.95416,1.58967,4.86934,0.11100,-0.78705,-0.54386,0.26917,4.93717,-21.79775,3.05980
-0.55227,1.71958,-0.49119,-0.43329,1.33821,0.61374,2.42058,0.45347,2.40641,-5.00827,1.81248,6.14435,0.13067,-0.77408,-0.55315,0.27882,3.11693,-5.48217,6.89002
-0.56401,1.74013,-0.47533,-0.51631,1.36531,0.72017,2.61362,0.45471,2.44119,-5.71695,1.39886,6.99013,0.14909,-0.75742,-0.56655,0.28830,11.93966,1.03562,1.99989
-0.57534,1.75972,-0.46051,-0.57598,1.37413,0.78898,2.71668,0.51206,2.50165,-6.62922,0.23583,6.68285,0.16682,-0.74046,-0.57797,0.29973,12.55572,3.45423,2.63817
-0.59141,1.77794,-0.44219,-0.68950,1.35979,0.89173,2.73763,0.66850,2.74245,-7.81503,-2.13928,6.16126,0.18708,-0.72180,-0.58564,0.31784,0.62931,9.39032,15.30285
-0.60913,1.79375,-0.42421,-0.80584,1.31456,0.97097,2.74298,0.54976,2.99858,-8.44178,-4.36909,5.46415,0.21324,-0.70464,-0.59071,0.33025,0.83168,-5.88645,18.64833
-0.62915,1.80680,-0.40593,-0.93075,1.23891,1.03780,2.77820,0.21991,3.24981,-9.02554,-6.44050,4.35718,0.24519,-0.68806,-0.59421,0.33670,8.12153,-23.51814,12.28348
-0.64968,1.81799,-0.38816,-1.03706,1.15389,1.08413,2.79907,-0.11616,3.45034,-8.66955,-7.85495,3.41948,0.27832,-0.67156,-0.59608,0.34094,9.44672,-28.60058,12.10920
-0.67370,1.82441,-0.36985,-1.17033,1.01706,1.12743,2.82445,-0.63979,3.64585,-7.86331,-9.49590,2.04665,0.31724,-0.65614,-0.59496,0.33891,9.55804,-32.58961,6.99957
-0.69745,1.82870,-0.35239,-1.27440,0.87573,1.14900,2.89809,-1.07948,3.74353,-7.18776,-10.83267,0.91669,0.35494,-0.63935,-0.59441,0.33456,13.39921,-32.56100,0.86948
-0.72171,1.82972,-0.33574,-1.36585,0.71686,1.15568,2.92511,-1.30505,3.95946,-6.31706,-12.07786,-0.40461,0.39237,-0.61946,-0.59120,0.33585,9.67273,-20.76963,7.68422
-0.74631,1.82601,-0.32042,-1.44514,0.51858,1.14340,2.89124,-1.42668,4.26864,-3.96928,-12.83042,-1.22952,0.43043,-0.59733,-0.58423,0.34147,-2.29221,-12.68344,17.87532
-0.76940,1.82103,-0.30636,-1.48974,0.33939,1.11758,2.93991,-1.57375,4.43532,-2.31240,-12.95507,-2.35517,0.46739,-0.57388,-0.57838,0.34307,4.33580,-10.91543,12.33906
-0.79172,1.80523,-0.29577,-1.51369,0.01046,1.04020,2.96638,-1.75430,4.60819,0.36625,-12.79760,-3.56507,0.50487,-0.54978,-0.57008,0.34332,2.08938,-6.53223,4.78251
-0.83280,1.79133,-0.27135,-1.49396,-0.19198,0.97549,3.00843,-1.75271,4.73725,2.02597,-12.57507,-4.57868,0.56942,-0.49730,-0.55549,0.34624,1.13483,-0.88628,7.97385
-0.85160,1.77832,-0.26202,-1.46374,-0.33925,0.91604,3.00848,-1.74573,4.84784,3.13251,-12.10709,-5.33142,0.60114,-0.46865,-0.54556,0.34838,1.06665,-1.41126,8.56771
-0.86777,1.76085,-0.25539,-1.40196,-0.52180,0.82752,2.94880,-1.73414,4.99125,4.64624,-10.97315,-5.90610,0.63200,-0.43903,-0.53281,0.35205,-3.68350,-2.29335,8.79689
-0.88235,1.74371,-0.24946,-1.32981,-0.66521,0.74617,2.83358,-1.70207,5.09707,5.72724,-9.75451,-5.92780,0.66026,-0.40989,-0.51858,0.35655,-7.67515,-2.43685,6.81238
-0.89573,1.72687,-0.24400,-1.25661,-0.77419,0.67579,2.70219,-1.65202,5.16100,6.61611,-8.61149,-6.05083,0.68600,-0.38098,-0.50363,0.36141,-12.07530,-2.03352,5.18933
-0.90550,1.70738,-0.24146,-1.14513,-0.89817,0.57689,2.56543,-1.61094,5.15691,7.55527,-6.99379,-6.31669,0.70953,-0.35304,-0.48821,0.36548,-9.51070,-1.00163,0.35058
-0.91409,1.68882,-0.23969,-1.03816,-0.98579,0.48583,2.54059,-1.59210,5.07792,8.05688,-5.53717,-6.60047,0.73206,-0.32476,-0.47422,0.36569,-4.74882,0.56761,-4.41329
-0.92073,1.67037,-0.23948,-0.92472,-1.05396,0.39071,2.55387,-1.54926,4.94469,8.37175,-4.14251,-7.01918,0.75260,-0.29673,-0.46169,0.36383,1.56822,3.90916,-8.91048
-0.92544,1.65247,-0.24098,-0.80658,-1.10095,0.29012,2.42849,-1.54101,4.87429,8.60470,-2.78517,-7.92558,0.77144,-0.27030,-0.44582,0.36477,-3.90871,3.68165,-7.19198
-0.92135,1.63486,-0.25063,-0.55914,-1.13398,0.06856,1.89174,-1.91808,4.85647,9.28852,0.66234,-8.20034,0.79078,-0.25319,-0.41558,0.37129,-15.19334,-21.02006,-3.89919
-0.92800,1.60474,-0.25704,-0.43016,-1.11299,-0.05176,1.92312,-2.12258,4.66156,9.54293,2.63845,-8.59469,0.82822,-0.20522,-0.37272,0.36472,4.14598,-13.47447,-13.32500
-0.92492,1.59258,-0.26620,-0.29891,-1.06373,-0.17383,2.09116,-2.27336,4.37132,9.59802,4.61192,-8.71414,0.84671,-0.18554,-0.35292,0.35227,16.80547,-4.56219,-18.67542
-0.92095,1.58222,-0.27587,-0.18299,-1.00013,-0.27701,2.23853,-2.39448,4.13197,9.88863,6.04118,-8.67098,0.86423,-0.16598,-0.33277,0.33885,18.68621,-1.20192,-19.78078
-0.91224,1.57635,-0.28902,-0.02281,-0.88531,-0.40930,2.41332,-2.62021,3.91732,10.15314,8.50123,-8.40238,0.88256,-0.14779,-0.30915,0.32198,13.80597,-5.61484,-12.96964
-0.90298,1.57314,-0.30228,0.11525,-0.75291,-0.51768,2.53075,-3.07756,3.75734,10.03628,10.59513,-7.27084,0.90250,-0.13234,-0.27624,0.30277,28.97122,-24.00794,-11.65247
-0.89308,1.57273,-0.31437,0.23300,-0.60984,-0.58706,2.28467,-3.22509,3.59204,9.19636,13.16947,-4.91745,0.91501,-0.12032,-0.24724,0.29521,-6.60562,-20.71359,-19.81633
-0.88006,1.58184,-0.32728,0.37248,-0.35525,-0.65402,2.08599,-3.36553,3.09631,6.62439,15.86901,-2.11282,0.92533,-0.11878,-0.22170,0.28375,-1.54402,-8.26240,-25.27846
-0.86991,1.59229,-0.33711,0.44538,-0.12684,-0.66416,1.89111,-3.28339,2.50280,3.89493,17.31456,1.04115,0.93242,-0.12115,-0.20377,0.27274,-4.01299,5.37637,-42.29180
-0.86156,1.60487,-0.34454,0.47653,0.08249,-0.63756,1.59373,-2.93518,1.86689,1.47360,17.95410,3.40058,0.93504,-0.12742,-0.19579,0.26672,-13.20906,25.64119,-49.66635
-0.85471,1.62332,-0.34900,0.47903,0.33085,-0.57333,1.12120,-2.56934,1.05169,-0.69035,18.10319,5.44105,0.93334,-0.14492,-0.19279,0.26592,-19.43237,30.14846,-58.97711
-0.84874,1.64546,-0.35083,0.46909,0.58241,-0.48475,0.60592,-1.97432,0.31993,-0.30698,18.79112,7.26798,0.92744,-0.16355,-0.19922,0.27096,-30.94054,35.41215,-63.84291
-0.84242,1.67258,-0.35119,0.46633,0.85579,-0.39333,-0.07909,-1.65077,-0.63587,0.35089,20.15760,5.75315,0.91714,-0.19718,-0.20323,0.28048,-31.99751,36.08873,-66.90248
-0.83476,1.70443,-0.35066,0.48343,1.14098,-0.30720,-0.76885,-1.43159,-1.48694,2.03999,20.41040,6.17468,0.90356,-0.23521,-0.20505,0.29361,-46.42607,13.19293,-73.68212
-0.82459,1.73990,-0.34955,0.53319,1.42137,-0.23022,-1.32013,-1.02238,-1.95579,4.77116,20.76305,5.47834,0.88864,-0.26366,-0.21172,0.30981,-31.39571,24.72315,-42.57904
-0.81038,1.78345,-0.34756,0.63241,1.76666,-0.15517,-1.91538,-0.48487,-2.88238,7.62210,22.20021,3.81478,0.86410,-0.30691,-0.22851,0.32699,-22.40406,32.69475,-61.53899
-0.79499,1.82629,-0.34679,0.72808,2.03096,-0.11285,-2.47740,-0.29297,-3.69981,8.78677,22.09274,2.76347,0.83650,-0.35479,-0.23721,0.34369,-37.63406,23.31975,-71.17901
-0.77553,1.87615,-0.34580,0.86167,2.33937,-0.07656,-3.21643,-0.14409,-4.66527,10.80949,22.36806,2.24363,0.79761,-0.41293,-0.24504,0.36506,-48.93620,10.36923,-70.12629
-0.75027,1.93309,-0.34505,1.05453,2.69202,-0.05072,-4.03604,0.16537,-5.93041,13.76744,22.48857,1.00612,0.74226,-0.48128,-0.25905,0.38770,-46.57018,15.87131,-80.60738
-0.72168,1.99166,-0.34587,1.25993,3.00313,-0.05278,-4.44915,0.58712,-7.37286,16.62597,23.38504,-0.34048,0.67572,-0.55235,-0.28243,0.39818,-34.77036,14.06145,-98.53827
-0.68630,2.05508,-0.34853,1.52048,3.31752,-0.08085,-4.14705,1.28683,-9.21303,21.49939,22.70998,-2.20060,0.59428,-0.62512,-0.32806,0.38528,11.56886,-0.89352,-133.31720
-0.64047,2.12155,-0.35365,1.87292,3.60897,-0.13638,-3.69443,1.82058,-11.25822,29.81768,18.97202,-5.88294,0.49389,-0.69830,-0.37757,0.35481,28.79795,-24.87280,-152.26960
-0.58207,2.18661,-0.36184,2.33819,3.82388,-0.22501,-4.07511,2.04011,-12.89381,36.55901,10.30230,-8.37219,0.37457,-0.76606,-0.40291,0.33245,-26.02459,-16.47586,-135.63990
-0.50591,2.24649,-0.37442,2.97453,3.91692,-0.36252,-5.06370,2.34926,-14.82983,54.37240,0.80041,-12.46599,0.21870,-0.82782,-0.41308,0.31023,-52.24534,48.58669,-123.28850
-0.41722,2.29617,-0.39148,3.65751,3.84539,-0.53767,-5.27268,2.37713,-16.96264,62.18385,-12.64222,-15.36020,0.04989,-0.86855,-0.42281,0.25369,-60.12149,21.30246,-163.74960
-0.29604,2.31828,-0.41828,4.67312,3.38515,-0.81854,-4.62797,1.88133,-19.69387,65.20802,-47.11602,-18.70314,-0.13347,-0.87871,-0.43411,0.14698,-73.22357,-76.13939,-156.26980
-0.17156,2.30331,-0.44698,5.53604,2.46940,-1.07181,-4.78467,1.78247,-21.20710,54.06019,-85.15105,-18.47828,-0.30522,-0.85494,-0.41453,0.06390,-63.88358,-21.97456,-111.45750
-0.05400,2.23973,-0.47678,6.12078,1.03793,-1.29123,-5.26937,2.25347,-22.15818,22.07091,-117.17820,-12.11072,-0.46985,-0.79936,-0.37452,0.00034,1.01763,27.21537,-96.75761
0.03016,2.15341,-0.50000,6.10313,-0.40747,-1.36850,-5.04828,2.35250,-21.38070,-24.32155,-116.31720,0.61638,-0.57478,-0.74174,-0.34250,-0.04636,29.55935,7.22549,-13.53192
0.05903,2.03540,-0.51237,5.28397,-2.00704,-1.27091,-4.06060,0.47798,-18.04032,-69.44093,-79.90929,10.91417,-0.57908,-0.73283,-0.34241,-0.10191,-41.25458,-51.39619,208.37540
0.06287,1.95184,-0.52068,4.27192,-2.80705,-1.13447,-4.38401,-1.36645,-14.65339,-70.12155,-37.60805,8.28277,-0.56292,-0.74630,-0.31564,-0.16290,-115.75230,18.60173,269.23070
0.06946,1.89206,-0.53069,3.51876,-3.10241,-1.05239,-4.70576,-1.30638,-12.13476,-61.19738,-13.09813,3.74504,-0.56975,-0.75065,-0.27833,-0.18559,-68.53513,50.81060,208.61960
0.06052,1.84062,-0.53817,2.69161,-3.21790,-0.94858,-2.24976,1.86975,-9.20995,-49.37244,-8.40448,7.12056,-0.59519,-0.74411,-0.29375,-0.07587,281.22430,99.27717,213.98980
0.06665,1.79436,-0.54598,2.25040,-3.23706,-0.87202,-0.77325,3.14176,-8.49021,-39.27378,2.51126,10.14975,-0.64314,-0.70458,-0.29856,-0.02818,258.32400,35.39083,-23.03074
0.06120,1.75851,-0.54749,1.74931,-3.10827,-0.72511,0.73685,3.56221,-6.85155,-25.45956,13.93385,13.82479,-0.65471,-0.68320,-0.32247,0.02446,169.49600,-1.89473,79.08132
0.06130,1.73487,-0.54373,1.41636,-2.83489,-0.53245,-0.15176,1.44529,-3.89602,-15.86709,14.33766,13.82634,-0.59718,-0.73046,-0.33129,-0.00703,-39.39465,-118.41980,187.63260
0.06640,1.71058,-0.53723,1.20950,-2.61940,-0.33371,-0.95962,-0.14622,-1.68310,-12.32365,10.60461,11.38848,-0.54270,-0.77044,-0.33202,-0.04072,-82.08242,-95.72988,159.21160
0.07502,1.67968,-0.53211,1.09271,-2.54041,-0.19445,-1.19266,-0.96533,-0.83749,-10.21490,3.57998,11.19808,-0.51761,-0.78443,-0.33540,-0.06523,-30.97000,-58.64285,96.75418
0.07928,1.64451,-0.52326,0.93656,-2.53865,-0.03018,-1.16985,-1.80457,-0.69715,-11.21512,-1.99993,8.78075,-0.50407,-0.78476,-0.34707,-0.09804,-11.55957,-58.30857,19.12630
0.08201,1.60524,-0.51611,0.78782,-2.59517,0.07891,-0.85436,-2.11710,-0.98065,-11.48998,-5.58303,6.57988,-0.50648,-0.77422,-0.36006,-0.12005,22.69663,-29.46512,-8.08819
0.08383,1.56398,-0.51045,0.65804,-2.66771,0.14384,-0.71110,-2.25043,-1.37445,-10.96083,-6.66013,4.69496,-0.51472,-0.76134,-0.36746,-0.14281,21.08618,-17.89606,-27.82899
0.08083,1.51997,-0.50427,0.48518,-2.76481,0.20294,-0.78936,-2.35100,-1.82424,-10.86789,-5.77896,3.38984,-0.52579,-0.74743,-0.36860,-0.17037,2.90044,-7.88802,-30.03333
0.07719,1.47681,-0.49878,0.33590,-2.83286,0.24144,-1.19980,-2.47868,-2.06997,-10.33580,-4.63412,2.81392,-0.53125,-0.73893,-0.36100,-0.20355,-17.20948,-6.43319,-23.06922
0.07145,1.43414,-0.49359,0.18581,-2.87750,0.26748,-2.07699,-2.63803,-2.17693,-11.19617,-2.37548,1.65368,-0.52995,-0.73693,-0.33934,-0.24685,-54.39821,-7.13733,-18.80220
0.06286,1.39309,-0.48871,0.02467,-2.89131,0.28406,-2.92831,-2.61772,-2.13048,-11.95976,0.19252,0.74867,-0.52474,-0.73858,-0.31104,-0.28704,-62.33807,6.55069,-12.63609
0.05317,1.35355,-0.48428,-0.11761,-2.88258,0.29094,-3.56860,-2.50400,-2.05953,-11.95583,1.41051,0.19727,-0.51857,-0.73984,-0.28173,-0.32304,-53.48956,16.07531,-7.23903
0.03982,1.31544,-0.48064,-0.28135,-2.85544,0.28519,-4.28013,-2.28886,-2.00780,-11.62743,2.66671,-1.36276,-0.51065,-0.74228,-0.24395,-0.35881,-49.23210,18.95450,-9.52794
0.02407,1.27933,-0.47912,-0.44853,-2.80143,0.24993,-4.69461,-1.70334,-1.96187,-9.57069,5.04556,-3.75945,-0.50743,-0.74588,-0.20278,-0.38087,-30.97470,34.60347,-13.95379
0.00962,1.24595,-0.47855,-0.56650,-2.72237,0.20850,-3.98558,-0.93017,-1.78548,-7.56760,7.63423,-4.26211,-0.51480,-0.74766,-0.18623,-0.37590,30.57198,48.47503,-4.39164
-0.00520,1.21515,-0.47776,-0.66636,-2.61975,0.17829,-2.35554,-0.13933,-1.47164,-6.70249,7.89429,-1.58389,-0.53162,-0.74736,-0.19736,-0.34624,114.66820,50.45564,12.25659
-0.02082,1.18624,-0.47553,-0.75967,-2.51269,0.17430,-1.05888,0.35783,-1.20337,-6.72476,6.93097,1.93788,-0.54608,-0.74534,-0.21100,-0.31898,115.55270,34.90533,15.09761
-0.03873,1.15909,-0.47128,-0.86913,-2.40179,0.20056,-0.91720,0.48467,-1.03102,-6.87533,5.85722,3.47202,-0.54897,-0.74648,-0.20535,-0.31500,25.56440,10.57906,11.74877
-0.05669,1.13144,-0.46608,-0.95624,-2.31599,0.23543,-1.62980,0.42452,-1.04736,-5.72066,5.71470,3.12475,-0.54504,-0.74896,-0.17916,-0.33150,-39.31840,0.25734,2.10200
-0.07408,1.10499,-0.46091,-1.01891,-2.23161,0.26235,-2.66196,0.39536,-1.13209,-3.49385,6.48185,0.98021,-0.53679,-0.75206,-0.13935,-0.35616,-75.49112,0.22934,-3.37307
-0.09065,1.08174,-0.45687,-1.05805,-2.11653,0.26716,-3.14215,0.66216,-1.15143,-1.83837,8.72178,-1.79672,-0.53231,-0.75582,-0.10311,-0.36708,-46.63430,16.17941,-4.18709
-0.10650,1.05808,-0.45359,-1.07477,-2.03040,0.26055,-2.77463,0.94346,-1.10946,-1.61060,9.40411,-1.79460,-0.53604,-0.75767,-0.08593,-0.36223,11.42174,23.91928,-3.39561
-0.12300,1.03904,-0.45061,-1.09939,-1.89919,0.25114,-1.87306,1.31480,-1.01315,-1.95781,9.78759,-0.63853,-0.54677,-0.75989,-0.08315,-0.34162,61.50459,23.92244,-3.01525
-0.14022,1.02208,-0.44707,-1.12982,-1.76531,0.25193,-1.11708,1.57142,-0.93904,-2.43827,9.28639,1.31211,-0.55738,-0.76128,-0.08228,-0.32096,65.96423,16.93593,-2.90338
-0.15854,1.00773,-0.44205,-1.16822,-1.61703,0.27373,-0.97498,1.67248,-0.91416,-2.05291,9.18799,2.64597,-0.56238,-0.76264,-0.07047,-0.31167,16.35044,8.00125,-1.10941
-0.17610,0.99392,-0.43578,-1.18916,-1.49004,0.30964,-1.25126,1.60920,-0.91764,-0.80580,8.81175,3.21010,-0.56250,-0.76331,-0.05081,-0.31363,-13.90639,-1.37919,3.12279
-0.19241,0.97934,-0.42951,-1.18751,-1.40314,0.33739,-1.59514,1.53901,-0.94896,1.00371,8.69158,2.84231,-0.56147,-0.76314,-0.02767,-0.31876,-29.39083,-5.43013,2.20740
-0.20618,0.97105,-0.42201,-1.14817,-1.24272,0.37629,-2.38985,1.44941,-0.91464,3.17135,9.46426,1.63960,-0.55205,-0.76388,0.00821,-0.33414,-44.01358,-1.67883,5.29640
-0.21909,0.96341,-0.41556,-1.10407,-1.10136,0.39332,-2.68295,1.41962,-0.75919,3.18579,11.01616,-0.13365,-0.54322,-0.76626,0.03429,-0.34144,-34.56680,1.57313,14.01331
