posX, posY, posZ, velX, velY, velZ, angVelX, angVelY, angVelZ, accX, accY, accZ, rotX, rotY, rotZ, rotW, angAccX, angAccY, angAccZ
-0.12041,1.33549,-0.46342,-0.30944,-0.29905,-0.27775,0.27476,0.92290,-0.10433,2.95951,4.82949,2.09609,-0.26275,-0.92069,-0.13154,-0.25690,-4.39863,-26.25902,7.85692
-0.12189,1.33576,-0.46531,-0.26953,-0.23353,-0.24848,0.29403,0.48314,0.00191,2.65887,4.62774,1.85075,-0.25967,-0.91883,-0.13684,-0.26381,-2.15026,-33.26477,8.44241
-0.12357,1.33617,-0.46714,-0.24033,-0.18057,-0.22486,0.45087,0.22470,0.04657,2.04992,4.21274,1.52870,-0.25953,-0.91665,-0.14552,-0.26686,9.38507,-26.37960,3.94393
-0.12505,1.33781,-0.46868,-0.21334,-0.12069,-0.20237,0.74344,0.05768,0.05926,1.23786,3.25512,0.85340,-0.26178,-0.91366,-0.15893,-0.26728,18.08419,-12.72245,1.57270
-0.12718,1.33862,-0.47100,-0.20096,-0.08471,-0.19525,0.99077,0.10381,0.00379,0.61114,2.72235,0.02423,-0.26707,-0.91154,-0.17054,-0.26209,19.12278,-1.68003,-3.43302
-0.12966,1.33980,-0.47382,-0.19641,-0.05118,-0.19694,1.23467,0.30419,-0.08922,0.00344,2.04463,-0.21100,-0.27525,-0.90997,-0.18175,-0.25130,20.50153,13.63046,-6.39125
-0.13273,1.34081,-0.47708,-0.20087,-0.02645,-0.20395,1.26053,0.45818,-0.13555,-0.44412,1.58539,-0.20745,-0.28097,-0.90949,-0.18788,-0.24205,6.57751,13.42050,-3.78716
-0.13611,1.34169,-0.48037,-0.20867,-0.00878,-0.20987,1.11332,0.49773,-0.12502,-0.62550,1.42687,-0.08686,-0.28313,-0.90979,-0.18973,-0.23688,-7.16871,7.04265,0.46320
-0.13984,1.34303,-0.48358,-0.21995,0.01161,-0.21385,0.79644,0.42136,-0.05339,-0.80583,1.65068,0.00961,-0.28083,-0.91114,-0.18663,-0.23691,-19.95012,-2.76144,3.70294
-0.14417,1.34491,-0.48686,-0.23695,0.03607,-0.21772,0.35600,0.24837,0.12728,-1.35564,1.94721,-0.23290,-0.27213,-0.91391,-0.17965,-0.24174,-29.33991,-11.99216,10.73030
-0.14947,1.34749,-0.49034,-0.26445,0.06573,-0.22398,-0.11835,0.05652,0.44466,-1.88481,1.84564,-0.72288,-0.25639,-0.91837,-0.17081,-0.24836,-31.80458,-14.47968,20.13411
-0.15473,1.34990,-0.49386,-0.28651,0.08686,-0.22949,-0.22869,0.10478,0.63029,-2.09780,1.77224,-1.13079,-0.24650,-0.92215,-0.16821,-0.24613,-19.19581,-5.50676,18.96321
-0.16085,1.35272,-0.49746,-0.31574,0.10953,-0.23456,-0.09285,0.38811,0.78719,-1.74635,1.03163,-0.15870,-0.23981,-0.92671,-0.17074,-0.23357,7.08237,18.16869,10.69771
-0.16664,1.35499,-0.50058,-0.33512,0.12035,-0.23224,0.06737,0.61504,0.83960,-1.22381,0.51752,0.43640,-0.23601,-0.93008,-0.17431,-0.22107,10.14877,17.57060,4.81201
-0.17240,1.35713,-0.50296,-0.35062,0.12756,-0.21962,0.27674,0.83105,0.84850,-0.73236,0.35239,1.19739,-0.23416,-0.93272,-0.17985,-0.20701,12.79356,15.52194,-0.47520
-0.17794,1.35904,-0.50481,-0.35958,0.13010,-0.20162,0.36125,0.88026,0.85834,-0.38352,0.08672,1.72347,-0.23074,-0.93483,-0.18386,-0.19761,7.99099,7.37150,0.50108
-0.18312,1.36093,-0.50585,-0.36174,0.13180,-0.17513,0.36943,0.79050,0.88133,0.18058,0.14922,1.87024,-0.22561,-0.93644,-0.18718,-0.19273,1.51630,-4.39012,1.10886
-0.18798,1.36283,-0.50711,-0.35914,0.13333,-0.15787,0.33948,0.69991,0.89217,0.35685,0.20377,1.77610,-0.22029,-0.93803,-0.18941,-0.18895,-1.03035,-8.32757,0.81573
-0.19262,1.36488,-0.50778,-0.35389,0.13664,-0.13581,0.30131,0.58367,0.90466,0.30406,0.25766,1.37363,-0.21439,-0.93939,-0.19157,-0.18680,-2.25475,-9.51924,1.00479
-0.19735,1.36695,-0.50857,-0.35129,0.13966,-0.12028,0.32662,0.57061,0.90312,0.06406,0.27762,0.97448,-0.20977,-0.94079,-0.19476,-0.18163,-0.93953,-4.81527,0.56599
-0.20198,1.36911,-0.50892,-0.34738,0.14284,-0.10169,0.41997,0.66829,0.87012,0.41945,0.03883,1.22361,-0.20742,-0.94211,-0.19926,-0.17233,5.69022,6.59704,-1.17870
-0.20611,1.37107,-0.50905,-0.33697,0.14259,-0.08331,0.50388,0.72549,0.79760,1.10022,-0.10586,1.52891,-0.20650,-0.94281,-0.20394,-0.16396,6.22248,6.31893,-4.42190
-0.20940,1.37296,-0.50873,-0.31710,0.14141,-0.06247,0.52242,0.68623,0.71237,1.75175,-0.13205,1.75164,-0.20558,-0.94307,-0.20751,-0.15902,2.68827,-0.18040,-5.96466
-0.21179,1.37471,-0.50781,-0.28802,0.13881,-0.03610,0.49113,0.51453,0.61611,2.00347,-0.22999,1.80425,-0.20434,-0.94265,-0.21045,-0.15926,-1.44797,-9.07443,-6.64933
-0.21388,1.37635,-0.50676,-0.25994,0.13500,-0.01300,0.43899,0.31274,0.52491,2.06330,-0.30624,1.60802,-0.20286,-0.94198,-0.21289,-0.16188,-3.71539,-14.62938,-6.10095
-0.21547,1.37797,-0.50541,-0.23062,0.13152,0.00944,0.43344,0.12843,0.41603,2.08161,-0.16039,1.52875,-0.20261,-0.94063,-0.21644,-0.16528,-0.94814,-13.46099,-8.18056
-0.21708,1.37963,-0.50407,-0.20766,0.12934,0.02704,0.46301,-0.01460,0.35081,1.85009,-0.12235,1.30653,-0.20191,-0.93915,-0.22119,-0.16822,1.34992,-12.30612,-7.48608
-0.21790,1.38110,-0.50220,-0.17746,0.12489,0.04894,0.60501,-0.09127,0.25914,1.48121,-0.27966,0.84240,-0.20335,-0.93670,-0.22922,-0.16941,7.42284,-5.92782,-4.58855
-0.21924,1.38259,-0.50082,-0.16104,0.12127,0.05939,0.77482,-0.01895,0.19146,1.08180,-0.25012,0.54176,-0.20589,-0.93458,-0.23813,-0.16572,12.14988,3.07479,-5.41509
-0.22067,1.38402,-0.49960,-0.14959,0.11789,0.06535,0.95238,0.15024,0.16132,0.60368,-0.26533,0.30981,-0.20883,-0.93278,-0.24780,-0.15780,14.65890,12.50422,-3.11228
-0.22243,1.38522,-0.49872,-0.14530,0.11188,0.06544,1.02305,0.28192,0.19789,0.22109,-0.61885,-0.01643,-0.20934,-0.93187,-0.25552,-0.15003,7.44806,10.22938,2.03746
-0.22431,1.38601,-0.49808,-0.14306,0.10092,0.06158,0.96072,0.32838,0.25013,0.31638,-1.02200,-0.17433,-0.20796,-0.93178,-0.25995,-0.14480,-1.79973,5.09690,4.44402
-0.22591,1.38641,-0.49770,-0.13716,0.08671,0.05485,0.76598,0.29138,0.28516,0.49071,-1.11393,-0.43466,-0.20538,-0.93255,-0.26016,-0.14315,-11.51520,-2.11433,3.52127
-0.22742,1.38653,-0.49751,-0.13132,0.07134,0.04680,0.47198,0.14588,0.31662,0.52206,-1.24224,-0.25910,-0.20108,-0.93396,-0.25673,-0.14617,-17.55519,-6.25985,1.21601
-0.22892,1.38644,-0.49747,-0.12627,0.05575,0.03790,0.08464,-0.12019,0.37426,0.33676,-0.98198,-0.80782,-0.19353,-0.93609,-0.24951,-0.15501,-27.34233,-20.33670,3.75001
-0.23044,1.38625,-0.49791,-0.12246,0.04145,0.02371,-0.23836,-0.23479,0.37769,-0.14270,-0.96160,-1.33153,-0.18804,-0.93841,-0.24094,-0.16115,-22.93270,-11.77964,1.38748
-0.23216,1.38597,-0.49832,-0.12235,0.02887,0.01302,-0.32293,-0.11671,0.28958,-0.17759,-1.03678,-1.08974,-0.18824,-0.93982,-0.23605,-0.15995,-11.93691,4.28690,-4.85240
-0.23380,1.38544,-0.49863,-0.12144,0.01546,0.00603,-0.28928,0.10814,0.13178,0.11663,-0.74828,-0.30446,-0.19306,-0.94052,-0.23303,-0.15442,-0.06858,15.76267,-11.43789
-0.23536,1.38504,-0.49843,-0.11954,0.00659,0.00776,-0.18217,0.27600,-0.04402,0.26231,-0.47316,0.68232,-0.19984,-0.94010,-0.23252,-0.14905,7.98747,13.65719,-12.48608
-0.23698,1.38482,-0.49790,-0.11887,0.00196,0.01382,-0.20096,0.19081,-0.08060,0.27648,-0.18359,0.87619,-0.20083,-0.94007,-0.23070,-0.15069,1.90765,-0.93835,-6.39731
-0.23865,1.38478,-0.49708,-0.11885,0.00087,0.02262,-0.25357,0.01167,-0.05972,0.04773,0.01331,0.85288,-0.19899,-0.94010,-0.22864,-0.15602,-4.87068,-13.03011,0.13413
-0.24040,1.38487,-0.49575,-0.11986,0.00184,0.03658,-0.25960,-0.18937,-0.01940,-0.14304,0.17832,0.71604,-0.19603,-0.93964,-0.22827,-0.16290,-2.18406,-14.42087,3.02814
-0.24216,1.38505,-0.49427,-0.12095,0.00402,0.05045,-0.13556,-0.25985,0.00317,-0.10208,0.17316,0.66346,-0.19487,-0.93860,-0.23140,-0.16588,6.57076,-5.71806,2.00356
-0.24389,1.38530,-0.49288,-0.12132,0.00690,0.06028,0.03609,-0.22894,0.00052,-0.05907,0.25795,0.51226,-0.19551,-0.93732,-0.23614,-0.16566,11.12735,1.02724,0.33040
-0.24560,1.38559,-0.49164,-0.12147,0.00965,0.06585,0.19963,-0.16691,-0.01618,-0.06227,0.18251,0.28053,-0.19711,-0.93589,-0.24150,-0.16412,13.91832,3.77639,-0.44895
-0.24731,1.38589,-0.49050,-0.12154,0.01199,0.06875,0.41936,-0.02961,-0.05981,-0.07393,0.09215,0.02711,-0.20087,-0.93395,-0.24901,-0.15935,13.84213,8.03807,-1.61707
-0.24915,1.38623,-0.48960,-0.12318,0.01435,0.06780,0.58094,0.09069,-0.09701,-0.11881,0.16462,-0.01664,-0.20476,-0.93208,-0.25590,-0.15434,13.34622,10.35339,-3.23284
-0.25118,1.38662,-0.48893,-0.12737,0.01693,0.06355,0.65790,0.12861,-0.08206,-0.22253,0.12271,-0.27251,-0.20648,-0.93060,-0.26171,-0.15116,6.02990,3.59458,0.15370
-0.25318,1.38692,-0.48843,-0.13043,0.01777,0.05772,0.65567,0.14226,-0.06510,-0.24831,-0.05018,-0.56457,-0.20750,-0.92962,-0.26564,-0.14896,1.11958,0.46787,2.23481
-0.25526,1.38708,-0.48824,-0.13366,0.01637,0.04863,0.61692,0.16218,-0.05757,-0.14027,-0.18458,-0.67190,-0.20861,-0.92895,-0.26832,-0.14677,-1.04214,1.45612,0.26453
-0.25722,1.38721,-0.48825,-0.13486,0.01497,0.03875,0.52365,0.13961,-0.03908,-0.00334,-0.14512,-0.78041,-0.20863,-0.92877,-0.26925,-0.14617,-6.59407,-0.64724,1.56358
-0.25906,1.38726,-0.48856,-0.13386,0.01275,0.02670,0.38201,0.11062,-0.02243,0.20022,-0.20653,-0.82461,-0.20813,-0.92919,-0.26804,-0.14640,-9.57315,-1.48919,1.15420
-0.26059,1.38720,-0.48902,-0.12891,0.00936,0.01487,0.22632,0.04989,-0.02732,0.48563,-0.30468,-0.83529,-0.20764,-0.92969,-0.26561,-0.14834,-11.33924,-3.69103,0.19709
-0.26031,1.38705,-0.48977,-0.12131,0.00656,0.00129,0.09471,0.04149,-0.06862,0.33452,-0.00052,-1.01126,-0.20814,-0.93037,-0.26207,-0.14967,-8.81539,-1.86482,-3.13543
-0.26082,1.38707,-0.49036,-0.11921,0.00630,-0.01184,-0.00249,0.05799,-0.05589,0.06372,0.00314,-0.92332,-0.20786,-0.93101,-0.26008,-0.14959,-6.66706,1.74448,-0.09221
-0.26356,1.38720,-0.49130,-0.11926,0.00595,-0.02455,-0.10076,0.06358,-0.02740,0.04114,-0.08164,-0.88794,-0.20750,-0.93188,-0.25736,-0.14936,-6.91805,0.28011,2.42801
-0.26671,1.38727,-0.49270,-0.11722,0.00464,-0.03562,-0.19350,0.07140,-0.02790,0.20265,-0.06080,-0.77011,-0.20744,-0.93315,-0.25279,-0.14936,-6.92025,0.19244,0.75917
-0.26812,1.38732,-0.49384,-0.11354,0.00445,-0.04522,-0.25765,0.10138,-0.04214,0.21020,0.02335,-0.49783,-0.20792,-0.93412,-0.24905,-0.14885,-4.63046,2.09471,-1.04933
-0.26954,1.38743,-0.49481,-0.11081,0.00505,-0.05054,-0.30380,0.10896,-0.04295,0.22216,0.08367,-0.30852,-0.20796,-0.93503,-0.24567,-0.14873,-3.22497,0.85287,-0.21433
-0.27096,1.38762,-0.49573,-0.10863,0.00687,-0.05392,-0.33359,0.11267,-0.03238,0.08829,0.20503,-0.21719,-0.20765,-0.93594,-0.24257,-0.14855,-2.47812,0.14649,0.61387
-0.27250,1.38788,-0.49657,-0.10897,0.00944,-0.05534,-0.35827,0.11432,0.00833,-0.02020,0.19782,0.03358,-0.20632,-0.93706,-0.23961,-0.14811,-1.52126,0.69278,2.44587
-0.27406,1.38818,-0.49725,-0.10954,0.01190,-0.05436,-0.37358,0.08469,0.05768,-0.00933,0.25027,0.14272,-0.20417,-0.93811,-0.23708,-0.14849,-1.81617,-1.67492,4.13082
-0.27560,1.38859,-0.49777,-0.10964,0.01545,-0.05111,-0.34094,0.07235,0.09985,-0.01630,0.29603,0.19266,-0.20223,-0.93887,-0.23592,-0.14820,0.76630,-1.59599,3.67004
-0.27705,1.38908,-0.49807,-0.10826,0.01962,-0.04519,-0.24201,0.11516,0.12192,0.11188,0.24913,0.40420,-0.20145,-0.93923,-0.23665,-0.14581,5.56980,2.43886,1.94509
-0.27841,1.38952,-0.49829,-0.10595,0.02219,-0.03943,-0.14554,0.15825,0.13115,0.25720,0.20115,0.52540,-0.20114,-0.93941,-0.23789,-0.14305,8.05495,3.61983,0.27844
-0.27960,1.39001,-0.49834,-0.10154,0.02475,-0.03221,-0.02965,0.20614,0.11900,0.35776,0.13946,0.50624,-0.20179,-0.93918,-0.24022,-0.13971,7.96159,3.56637,-0.44501
-0.28071,1.39048,-0.49828,-0.09662,0.02657,-0.02555,0.05794,0.25359,0.09681,0.35692,0.12043,0.43831,-0.20290,-0.93893,-0.24227,-0.13621,7.08669,3.24370,-1.90176
-0.28172,1.39096,-0.49817,-0.09105,0.02812,-0.01934,0.09993,0.25188,0.08632,0.45415,0.06388,0.45804,-0.20331,-0.93876,-0.24373,-0.13411,3.51536,0.88268,-0.94219
-0.28260,1.39144,-0.49807,-0.08493,0.02929,-0.01418,0.10644,0.22278,0.08065,0.47984,0.05669,0.37759,-0.20323,-0.93872,-0.24449,-0.13310,0.42622,-2.32916,-0.28599
-0.28338,1.39189,-0.49797,-0.07880,0.02978,-0.01005,0.09765,0.19715,0.07011,0.56659,0.00515,0.35765,-0.20327,-0.93874,-0.24482,-0.13233,0.39168,-2.11730,-0.75610
-0.28308,1.39204,-0.49772,-0.06973,0.03079,-0.00536,0.06771,0.14416,0.06245,0.57187,0.12001,0.27814,-0.20300,-0.93872,-0.24438,-0.13373,-1.92204,-3.14517,-1.02904
-0.28328,1.39243,-0.49756,-0.06282,0.03386,-0.00166,0.02842,0.10887,0.07206,0.37557,0.30407,0.20290,-0.20242,-0.93894,-0.24382,-0.13408,-2.76026,-1.99610,0.03521
-0.28385,1.39297,-0.49746,-0.05926,0.03718,0.00053,0.00281,0.08010,0.10426,0.32631,0.27825,0.15748,-0.20126,-0.93927,-0.24358,-0.13394,-2.23754,-2.40632,2.64180
-0.28454,1.39373,-0.49732,-0.05395,0.04067,0.00305,-0.00256,0.07694,0.11846,0.42688,0.20747,0.13866,-0.20026,-0.93960,-0.24351,-0.13322,-1.15713,-1.71224,1.75469
-0.28487,1.39446,-0.49708,-0.04548,0.04422,0.00696,0.03350,0.10915,0.08612,0.67999,0.30037,0.33198,-0.20067,-0.93957,-0.24403,-0.13185,1.76709,2.19118,-1.95466
-0.28543,1.39587,-0.49659,-0.03691,0.05120,0.01258,0.09045,0.15296,0.05868,0.48087,0.76868,0.42295,-0.20138,-0.93945,-0.24541,-0.12906,3.35576,2.83564,-2.57711
-0.28608,1.39798,-0.49576,-0.03275,0.06333,0.02001,0.17173,0.19956,0.07965,0.26442,1.07870,0.62790,-0.20143,-0.93921,-0.24855,-0.12461,6.08409,4.11212,0.41501
-0.28637,1.39998,-0.49486,-0.03006,0.07952,0.02893,0.25252,0.22507,0.13249,0.21196,1.29193,0.71548,-0.20028,-0.93897,-0.25211,-0.12109,5.56019,2.04316,3.74972
-0.28659,1.40242,-0.49378,-0.02678,0.09893,0.03862,0.34163,0.23770,0.19122,0.29260,1.51675,0.65032,-0.19864,-0.93856,-0.25659,-0.11751,6.43777,1.26394,3.63366
-0.28670,1.40528,-0.49270,-0.02268,0.12054,0.04614,0.39519,0.22983,0.27506,0.35281,1.61610,0.47351,-0.19556,-0.93845,-0.26077,-0.11431,4.32340,-0.25938,5.46425
-0.28665,1.40867,-0.49167,-0.01702,0.14524,0.05154,0.46122,0.26285,0.35299,0.43274,1.94717,0.24941,-0.19253,-0.93832,-0.26548,-0.10959,4.39952,0.87510,5.67617
-0.28648,1.41274,-0.49069,-0.01061,0.17488,0.05518,0.53613,0.32795,0.43762,0.44010,2.37508,0.19918,-0.18919,-0.93822,-0.27071,-0.10328,5.45883,3.54290,5.83591
-0.28594,1.41986,-0.48935,0.00097,0.25015,0.06429,0.82899,0.57864,0.59023,0.44676,3.35889,0.44790,-0.18576,-0.93717,-0.28146,-0.08934,12.00958,11.04854,6.55486
-0.28553,1.43037,-0.48711,0.00670,0.30024,0.07062,1.01137,0.69807,0.66495,0.44164,3.83012,0.57965,-0.18061,-0.93495,-0.29691,-0.07131,13.16706,10.69443,5.32988
-0.28503,1.43906,-0.48559,0.01269,0.36505,0.07835,1.20637,0.76669,0.75003,0.37647,4.35327,0.44743,-0.17667,-0.93260,-0.30901,-0.05972,11.90689,4.58570,5.38267
-0.28463,1.44860,-0.48414,0.01589,0.42981,0.08357,1.36053,0.83609,0.80510,-0.08299,5.05746,0.28890,-0.17325,-0.92994,-0.32080,-0.04786,11.56160,4.54413,3.44182
-0.28492,1.45969,-0.48274,0.00811,0.50410,0.08712,1.50295,0.92859,0.91933,-0.93707,5.56814,0.26334,-0.16798,-0.92721,-0.33305,-0.03393,11.08123,7.68429,5.98294
-0.28616,1.47207,-0.48146,-0.01169,0.58209,0.08814,1.54881,0.95828,1.09742,-1.73741,5.69946,0.08674,-0.15922,-0.92532,-0.34351,-0.02093,6.38676,2.38086,11.90658
-0.28840,1.48584,-0.48029,-0.04164,0.66360,0.08777,1.57395,0.99371,1.30587,-2.59718,6.05826,-0.10958,-0.14829,-0.92359,-0.35347,-0.00693,1.46450,-0.85003,14.28554
-0.29134,1.50011,-0.47908,-0.07519,0.73493,0.08804,1.63907,1.13703,1.50431,-3.12625,6.04164,-0.09798,-0.13751,-0.92113,-0.36398,0.01152,4.46543,6.31465,16.45141
-0.29595,1.51703,-0.47758,-0.12591,0.83045,0.09248,1.72871,1.40769,1.76442,-3.27962,6.01398,0.62732,-0.12518,-0.91801,-0.37452,0.03647,5.30114,16.19460,17.45985
-0.30106,1.53432,-0.47554,-0.17427,0.91318,0.10394,1.77263,1.53798,1.99717,-3.51033,5.84615,1.29516,-0.11112,-0.91456,-0.38442,0.05877,4.70554,11.32183,17.36016
-0.31042,1.55681,-0.47185,-0.28603,1.06896,0.14132,1.52503,1.04594,2.53309,-4.20188,5.31036,1.72933,-0.08130,-0.91530,-0.38878,0.06683,-6.44738,-24.90558,18.24499
-0.32255,1.59154,-0.46625,-0.34686,1.14113,0.16614,1.38955,0.63297,2.77961,-4.52144,5.12580,1.98018,-0.04021,-0.91108,-0.40140,0.08482,-4.93082,-33.33958,16.40423
-0.33115,1.61178,-0.46204,-0.40061,1.20232,0.19369,1.41947,0.39047,2.95143,-4.95093,5.49274,2.26704,-0.01464,-0.90750,-0.40973,0.09137,3.10903,-28.32615,12.10762
-0.34148,1.63394,-0.45645,-0.46741,1.27822,0.23474,1.64551,0.46471,3.13318,-5.27193,5.80651,2.97888,0.00927,-0.89963,-0.42307,0.10772,14.37568,-0.53877,12.49685
-0.35371,1.65845,-0.44910,-0.54920,1.37417,0.29401,2.01217,0.73458,3.32702,-5.28800,6.27835,4.32479,0.03208,-0.88725,-0.44089,0.13181,18.15805,21.26437,14.06694
-0.36611,1.68244,-0.44148,-0.61665,1.44188,0.34443,2.25117,0.76108,3.44696,-5.69663,4.59287,4.44908,0.05632,-0.87500,-0.45715,0.14907,21.18947,15.02116,11.99489
-0.38132,1.70620,-0.43306,-0.70968,1.49281,0.39547,2.32723,0.38585,3.58872,-6.89026,2.63499,3.81622,0.08741,-0.86496,-0.46960,0.15389,12.87367,-16.10894,5.87294
-0.39992,1.72902,-0.42373,-0.83430,1.52145,0.45103,2.48063,-0.22211,3.82895,-8.62300,1.03118,3.40963,0.12733,-0.85307,-0.48314,0.15043,18.42828,-41.26078,6.84005
-0.41971,1.75025,-0.41395,-0.95156,1.52078,0.50183,2.72877,-0.29984,4.08719,-9.09318,-0.82581,3.14577,0.16350,-0.83568,-0.49915,0.16049,21.84122,-14.50563,15.06071
-0.44118,1.76985,-0.40345,-1.06979,1.49798,0.55262,2.95908,0.30884,4.39494,-9.16799,-2.47841,2.93543,0.19204,-0.81263,-0.51562,0.19207,10.00455,27.49430,26.13594
-0.46398,1.78779,-0.39267,-1.18394,1.45660,0.59768,2.94927,1.34367,4.73665,-8.14446,-3.75136,2.90485,0.21282,-0.78703,-0.52615,0.24179,-15.35866,63.65070,40.37940
-0.49508,1.79928,-0.38109,-1.41746,1.31243,0.64804,2.53725,2.20983,5.35026,-7.90472,-7.16583,1.10477,0.23812,-0.76220,-0.52308,0.29789,-19.15907,11.70085,26.01583
-0.54270,1.82807,-0.36316,-1.53572,1.20219,0.64761,2.40399,1.69411,5.50555,-7.86198,-8.83250,-0.38351,0.30075,-0.71970,-0.52553,0.33971,1.84361,-30.52814,9.66434
-0.57282,1.83428,-0.35593,-1.66225,1.04865,0.62205,2.27839,0.76912,5.56738,-7.47344,-10.66887,-2.49248,0.34467,-0.70503,-0.51832,0.33981,16.48171,-55.32516,-5.26448
-0.60173,1.83984,-0.34973,-1.74564,0.91782,0.58666,2.08583,0.09322,5.58883,-6.55025,-11.67089,-3.67914,0.38522,-0.69083,-0.50758,0.34165,11.95483,-57.63358,-7.17572
-0.63157,1.84090,-0.34554,-1.82509,0.75100,0.53051,1.79329,-0.69993,5.56979,-4.78275,-12.63990,-4.42352,0.42732,-0.68116,-0.48972,0.33703,2.98660,-59.25563,-7.64507
-0.66088,1.83871,-0.34256,-1.87935,0.57053,0.46788,1.63404,-1.48267,5.46288,-3.13676,-13.26045,-4.42244,0.46955,-0.67140,-0.47158,0.32612,9.83349,-57.45844,-14.00826
-0.68950,1.83325,-0.33983,-1.91069,0.38023,0.41190,1.58575,-2.05125,5.37918,-1.74782,-14.12262,-3.72499,0.51040,-0.65837,-0.45441,0.31551,15.12102,-44.45046,-12.96957
-0.71665,1.82416,-0.33686,-1.91602,0.17683,0.37099,1.55705,-2.20602,5.46566,0.05458,-14.99289,-2.71204,0.54874,-0.63866,-0.43820,0.31461,6.89218,-18.33768,0.66569
-0.74219,1.81180,-0.33379,-1.89744,-0.03287,0.34076,1.47291,-2.12181,5.66877,2.21396,-15.15104,-1.98132,0.58502,-0.61423,-0.42073,0.32164,-9.49498,-0.05458,12.89280
-0.76528,1.79653,-0.33131,-1.85256,-0.24244,0.31260,1.50716,-2.06379,5.82017,4.17639,-14.71484,-1.59148,0.62080,-0.58687,-0.40484,0.32603,-5.85424,3.09250,13.04023
-0.78522,1.77719,-0.32959,-1.77162,-0.47203,0.27882,1.83938,-2.09683,5.83597,6.29399,-13.89241,-2.02360,0.65718,-0.55594,-0.39500,0.32096,16.90220,4.84585,5.58054
-0.80406,1.75945,-0.32777,-1.68753,-0.63220,0.24984,2.17504,-2.08464,5.78829,7.86371,-12.90842,-2.67684,0.69124,-0.52346,-0.38717,0.31350,26.67001,10.33375,2.27047
-0.81790,1.73755,-0.32756,-1.54862,-0.81999,0.20375,2.38832,-1.94643,5.71303,9.61748,-11.15065,-3.52378,0.72080,-0.49050,-0.38042,0.30844,13.48804,15.11567,-0.95399
-0.82949,1.71647,-0.32794,-1.40403,-0.96105,0.15780,2.26962,-1.76522,5.73665,10.88011,-9.50049,-3.54934,0.74669,-0.45888,-0.36748,0.31118,-8.62746,9.68616,0.15760
-0.83979,1.69589,-0.32861,-1.26993,-1.06351,0.11670,2.09922,-1.61630,5.81338,11.49152,-7.79507,-3.56871,0.77141,-0.42584,-0.35182,0.31593,-17.89794,5.90783,5.11442
-0.84618,1.67445,-0.33048,-1.10781,-1.15629,0.06741,1.83384,-1.51492,5.90146,12.16564,-5.66209,-3.61302,0.79388,-0.39332,-0.33256,0.32320,-19.82374,-0.41630,5.78709
-0.84960,1.65380,-0.33295,-0.93650,-1.21987,0.01951,1.53542,-1.45026,5.92539,12.78012,-3.49289,-3.37454,0.81342,-0.36268,-0.31166,0.33116,-22.13955,-5.24761,0.18846
-0.84837,1.63422,-0.33645,-0.73133,-1.25541,-0.03438,1.15861,-1.47424,5.91739,13.43352,-0.94545,-3.62228,0.83077,-0.33434,-0.28669,0.34037,-19.40403,-9.67591,-2.53593
-0.84707,1.61712,-0.34011,-0.56721,-1.24966,-0.08001,0.92362,-1.47823,5.84537,14.04868,2.19697,-3.85354,0.84628,-0.30618,-0.26372,0.34714,-21.87534,-11.70656,-5.59809
-0.84189,1.60356,-0.34552,-0.38344,-1.19476,-0.14047,0.86498,-1.54633,5.55852,12.75861,5.98699,-4.28857,0.86023,-0.28327,-0.24383,0.34686,-5.25605,-3.57774,-16.61254
-0.83435,1.59553,-0.35246,-0.20045,-1.07137,-0.21181,0.99129,-1.66764,5.03197,10.59687,9.94454,-4.48968,0.87308,-0.26751,-0.22814,0.33782,11.63719,-1.78538,-30.21381
-0.82836,1.59167,-0.35956,-0.07402,-0.91021,-0.27155,1.11900,-1.81571,4.37392,8.16803,13.32244,-4.13313,0.88410,-0.25863,-0.21389,0.32516,18.42379,-2.00542,-41.06939
-0.82359,1.59067,-0.36658,0.00833,-0.74381,-0.31761,1.17577,-2.01396,3.74880,6.04570,14.55382,-4.01436,0.89377,-0.25462,-0.19784,0.31178,16.50614,-4.11545,-54.44354
-0.81760,1.59596,-0.37455,0.09073,-0.52410,-0.36743,1.22342,-2.24916,2.93009,5.73115,16.85644,-3.31258,0.90078,-0.26146,-0.18302,0.29451,19.26947,-14.59221,-55.09319
-0.81063,1.60628,-0.38257,0.17056,-0.27647,-0.40787,1.32646,-2.27568,2.08911,5.40872,18.63770,-2.18714,0.90514,-0.27155,-0.17557,0.27598,18.46824,1.25537,-56.50642
-0.80158,1.62447,-0.39011,0.26569,0.03733,-0.43406,1.37691,-2.07263,1.12008,6.21843,20.81228,-1.22172,0.90438,-0.28854,-0.17779,0.25928,7.96663,24.22960,-59.84915
-0.79245,1.64541,-0.39644,0.34380,0.33167,-0.43800,1.25880,-2.02106,0.26226,5.48895,21.71142,0.36036,0.90166,-0.31005,-0.17514,0.24538,6.07003,10.66398,-57.86018
-0.78207,1.67387,-0.40064,0.42514,0.67954,-0.40950,0.82529,-1.85836,-0.74831,4.81708,21.97741,2.62193,0.89112,-0.34250,-0.17514,0.24067,-15.73880,12.36712,-67.00346
-0.77224,1.70146,-0.40366,0.48221,0.94397,-0.37023,0.39305,-1.65329,-1.53601,4.81591,22.37819,3.75310,0.87849,-0.37399,-0.17584,0.23972,-22.59736,20.08606,-66.21151
-0.76057,1.73636,-0.40462,0.55385,1.25715,-0.30980,-0.19204,-1.30349,-2.52018,5.62948,22.63770,4.69614,0.85641,-0.41591,-0.18236,0.24561,-29.00602,27.73351,-73.21796
-0.74668,1.77588,-0.40427,0.64258,1.57256,-0.24269,-0.80911,-0.84931,-3.56567,7.28893,22.72684,4.83345,0.82574,-0.46385,-0.19377,0.25582,-30.01984,36.25581,-77.04797
-0.72846,1.82229,-0.40258,0.77829,1.92901,-0.16924,-1.61200,-0.32786,-4.83284,10.09398,22.10278,4.05578,0.78080,-0.52212,-0.20807,0.27285,-34.79281,39.07246,-84.15795
-0.70816,1.86692,-0.40174,0.91650,2.18721,-0.12293,-2.16822,0.07318,-5.80451,13.39574,21.24742,3.80312,0.73300,-0.57614,-0.22086,0.28635,-35.68511,35.14274,-86.10139
-0.68228,1.91456,-0.40079,1.10249,2.42959,-0.08552,-2.56892,0.56889,-6.71448,17.69354,19.60881,2.79237,0.67663,-0.62899,-0.23914,0.29892,-23.23443,39.23488,-85.52432
-0.64390,1.96859,-0.40015,1.42960,2.71501,-0.06025,-2.85575,1.21350,-7.89059,23.42741,16.48575,0.83024,0.60369,-0.68513,-0.26629,0.30861,-6.17816,32.52340,-79.92775
-0.59926,2.02087,-0.40125,1.78344,2.91999,-0.06438,-2.81832,1.71356,-9.01888,27.77010,13.39578,-0.97697,0.52409,-0.73707,-0.29628,0.30703,5.42932,20.16910,-83.35730
-0.54981,2.07120,-0.40383,2.13085,3.05568,-0.08836,-2.58049,2.01151,-10.19033,31.50754,9.37627,-2.49555,0.43505,-0.78612,-0.32715,0.29279,11.62126,-1.09516,-96.29359
-0.48129,2.11969,-0.40852,2.67489,3.13827,-0.14049,-2.22715,2.25535,-11.85652,37.22060,0.82657,-4.09547,0.32145,-0.83426,-0.36273,0.26287,5.80151,-14.80467,-105.33250
-0.40551,2.15976,-0.41434,3.20877,3.08303,-0.20224,-1.96873,2.33644,-13.24379,34.32603,-9.25935,-4.67408,0.20087,-0.86966,-0.38974,0.22681,-13.13485,-21.39862,-114.51800
-0.31962,2.18735,-0.42140,3.78668,2.86646,-0.26875,-1.66525,2.47227,-14.62674,47.38094,-23.32178,-5.13186,0.06949,-0.88805,-0.41527,0.18464,7.95293,-5.74884,-74.85246
-0.21512,2.19043,-0.43263,4.53765,2.33130,-0.37870,-1.42884,2.04686,-17.03443,45.13477,-45.21442,-8.33581,-0.09709,-0.89246,-0.42771,0.10558,-43.79565,-36.35554,-156.19620
-0.13899,2.20900,-0.44009,4.71503,2.14161,-0.40888,-1.51399,2.00453,-17.54266,42.93776,-51.06847,-8.32515,-0.22548,-0.87538,-0.42378,0.05734,-58.78994,-13.81802,-141.33590
-0.02389,2.13929,-0.45606,5.36080,0.80467,-0.54567,-1.82438,2.11015,-19.19639,15.51810,-82.09595,-4.88350,-0.39361,-0.82648,-0.40241,-0.00799,-10.45689,18.70259,-91.79204
0.05458,2.11119,-0.46561,5.41114,0.28931,-0.57136,-1.76223,2.02241,-19.13312,1.21199,-87.18433,-2.80121,-0.50252,-0.77291,-0.38330,-0.05633,-9.05655,15.63943,-55.56828
0.12482,1.91290,-0.48214,4.42364,-2.08113,-0.57930,-2.16622,-2.39747,-15.12109,-50.05587,-51.74496,0.54541,-0.51737,-0.74927,-0.34317,-0.23057,-202.14560,-3.57235,146.43460
0.11844,1.83464,-0.48821,3.51050,-2.73095,-0.55286,-3.26419,-3.02563,-12.63573,-54.13968,-22.47841,-0.37050,-0.50809,-0.75934,-0.29428,-0.28045,-104.06880,69.60856,121.48340
0.11578,1.78063,-0.49332,2.80119,-2.94796,-0.51693,-2.50453,-1.40212,-10.92138,-49.13520,-5.59814,1.45724,-0.54281,-0.74742,-0.28468,-0.25628,78.37903,86.79782,103.41370
0.11618,1.73916,-0.49699,2.27822,-2.95085,-0.46898,0.44820,0.45465,-8.95901,-38.26259,10.55234,0.90287,-0.57672,-0.71819,-0.34448,-0.18147,220.55640,-10.85435,112.70360
0.10784,1.70564,-0.50122,1.73715,-2.84885,-0.43830,4.07413,3.14739,-6.95622,-30.49710,5.10736,3.77247,-0.61135,-0.67049,-0.41846,-0.03981,325.72900,8.96588,120.49590
0.10424,1.67390,-0.50469,1.35573,-2.73398,-0.40269,5.42987,3.45072,-5.67445,-22.06151,7.27695,5.31005,-0.62476,-0.62918,-0.46196,0.01991,176.04660,-48.62212,48.86893
0.10223,1.64711,-0.50667,1.07113,-2.57695,-0.35305,4.79132,2.79474,-4.36822,-16.49909,11.36417,5.88873,-0.61906,-0.62569,-0.47365,0.03035,-16.43382,-57.79149,74.70754
0.10133,1.62402,-0.50570,0.85465,-2.39785,-0.27280,2.64211,1.50950,-2.72421,-13.43724,11.16525,7.77596,-0.58879,-0.66500,-0.45947,0.00035,-132.56260,-80.00549,119.52500
0.10048,1.60138,-0.50124,0.68078,-2.24803,-0.16022,0.22329,0.07235,-1.37246,-11.94627,9.75880,8.54154,-0.54861,-0.71344,-0.43262,-0.05364,-191.86010,-87.26291,102.45970
0.09861,1.57699,-0.49422,0.52618,-2.15331,-0.03407,-1.37605,-1.10321,-0.46500,-11.37434,5.52119,8.28831,-0.50959,-0.74773,-0.41270,-0.10443,-145.72400,-78.92299,73.33609
0.08860,1.54598,-0.48075,0.26508,-2.17278,0.17126,-1.93072,-2.49765,-0.79116,-7.96758,-3.70247,3.12170,-0.48987,-0.74847,-0.41512,-0.16581,-0.55276,-42.21652,-21.35784
0.08838,1.48011,-0.47400,0.15754,-2.25032,0.19793,-1.56630,-2.40830,-1.54942,-6.71104,-5.32728,0.02194,-0.50094,-0.72920,-0.41526,-0.21187,31.88127,-7.50372,-42.12766
0.08472,1.44384,-0.47216,0.07329,-2.31647,0.18267,-1.48977,-2.09588,-2.14971,-6.02486,-4.55289,-1.72958,-0.51957,-0.71390,-0.40731,-0.23343,22.86101,12.40217,-45.42372
0.07968,1.40830,-0.47201,-0.01358,-2.36281,0.14681,-1.87527,-1.75521,-2.57447,-6.24849,-2.92266,-2.52158,-0.53509,-0.70557,-0.38564,-0.25911,-8.13707,22.98927,-38.71031
0.07426,1.37400,-0.47249,-0.08771,-2.38169,0.11060,-2.55244,-1.49428,-2.80124,-5.61395,-0.95266,-2.73541,-0.54410,-0.70328,-0.35400,-0.28988,-39.03426,25.98507,-33.00494
0.06752,1.34120,-0.47369,-0.16544,-2.37478,0.07058,-3.51533,-1.12391,-2.97758,-4.14876,1.77495,-2.12992,-0.55016,-0.70586,-0.30732,-0.32349,-55.79703,31.76146,-24.45138
0.06165,1.31007,-0.47373,-0.21597,-2.34720,0.05505,-3.85105,-0.86228,-3.00205,-4.03702,3.88966,-1.41462,-0.55502,-0.70426,-0.27327,-0.34829,-39.65111,28.83819,-15.88797
0.05441,1.28137,-0.47302,-0.27485,-2.28938,0.05333,-3.56046,-0.60650,-2.89661,-4.14953,5.58544,-0.29875,-0.56261,-0.69942,-0.25405,-0.36020,11.42725,19.36652,0.40480
0.04558,1.25607,-0.47142,-0.34562,-2.19490,0.06411,-2.42904,-0.42437,-2.68215,-4.44268,7.38999,0.23352,-0.57655,-0.68842,-0.26002,-0.35504,62.50758,2.47211,13.25868
0.03759,1.23085,-0.46976,-0.39005,-2.12071,0.07389,-1.44935,-0.37211,-2.53680,-4.30520,8.20257,0.99163,-0.59094,-0.67482,-0.26976,-0.35021,91.12684,-7.28196,17.09768
0.02412,1.22319,-0.46634,-0.51248,-1.77407,0.10768,0.61425,-0.67528,-1.54022,-2.68588,13.09730,0.96568,-0.59680,-0.66037,-0.32302,-0.32156,51.93275,-19.17726,39.55768
0.00802,1.18559,-0.46351,-0.53842,-1.60808,0.10447,0.55754,-0.70182,-0.86823,-1.53281,13.55714,-0.13100,-0.59386,-0.65620,-0.33430,-0.32401,10.95352,-10.21530,53.24428
-0.00081,1.17980,-0.46428,-0.55713,-1.37006,0.07002,-0.39573,-0.41484,0.08349,-1.37433,11.94287,-2.52961,-0.56797,-0.68307,-0.32053,-0.32875,-51.71837,14.80436,52.81530
-0.00991,1.17100,-0.46647,-0.57697,-1.21898,0.02131,-1.44351,0.01032,0.61898,-2.29585,9.26786,-3.97629,-0.54595,-0.70899,-0.29336,-0.33647,-72.96880,29.48917,40.03633
-0.01959,1.15965,-0.46901,-0.60086,-1.13927,-0.02051,-2.12523,0.36061,0.83582,-3.15547,7.04819,-4.76945,-0.52952,-0.72886,-0.26613,-0.34286,-78.91481,33.36006,27.42902
-0.03190,1.14996,-0.47437,-0.65677,-1.05172,-0.09327,-2.68139,0.96216,0.90997,-3.31072,3.67985,-4.21814,-0.51750,-0.74966,-0.23030,-0.34229,-38.40497,32.79288,1.36074
-0.04385,1.13775,-0.47844,-0.69753,-1.01609,-0.13465,-2.57789,1.32451,0.76637,-2.68781,2.28669,-2.72623,-0.51586,-0.75978,-0.20887,-0.33614,-1.69148,26.15970,-12.68145
-0.05550,1.12521,-0.48184,-0.72546,-0.99325,-0.15723,-2.34528,1.54605,0.60988,-1.84007,1.85187,-1.50352,-0.51647,-0.76690,-0.19216,-0.32894,14.83591,18.77872,-18.25482
-0.06692,1.11309,-0.48488,-0.74378,-0.96831,-0.16946,-2.01692,1.73551,0.40348,-0.84633,1.99567,-0.51548,-0.52089,-0.77143,-0.17793,-0.31923,19.79284,12.81724,-18.64909
-0.07813,1.10245,-0.48735,-0.75644,-0.92706,-0.17146,-1.70230,1.92406,0.21305,-0.89896,3.09991,0.45375,-0.52665,-0.77526,-0.16419,-0.30765,21.74143,10.63591,-18.59886
-0.09095,1.09559,-0.48918,-0.79307,-0.82959,-0.16322,-2.39654,1.98775,0.18297,-0.94494,3.98817,0.64257,-0.51815,-0.78541,-0.13122,-0.31214,-36.15593,1.12701,4.44195
-0.11335,1.07681,-0.49294,-0.79650,-0.76671,-0.15281,-2.74344,1.92546,0.16856,0.44445,4.16166,0.01845,-0.50433,-0.79972,-0.08273,-0.31504,-28.44805,-4.03178,4.70859
-0.12362,1.06947,-0.49461,-0.78464,-0.71891,-0.14672,-2.63412,1.87945,0.10019,1.26479,4.19071,-0.05006,-0.50130,-0.80389,-0.06406,-0.31363,-1.80756,-4.51636,-2.97704
-0.13295,1.06336,-0.49617,-0.76096,-0.66315,-0.14041,-2.20790,1.83968,-0.04937,1.95231,4.11444,0.15557,-0.50494,-0.80503,-0.05371,-0.30671,24.11507,-4.62125,-11.32476
-0.14105,1.05880,-0.49767,-0.72464,-0.59586,-0.13448,-1.62016,1.79758,-0.24067,2.46692,4.47309,0.42498,-0.51335,-0.80400,-0.04963,-0.29595,37.12286,-5.17193,-17.66332
-0.14930,1.05440,-0.49943,-0.69865,-0.54010,-0.13308,-1.39041,1.77163,-0.29927,2.16378,4.73203,0.45146,-0.51623,-0.80536,-0.03992,-0.28863,26.35615,-4.52623,-11.73223
-0.15711,1.05169,-0.50120,-0.67110,-0.47182,-0.13185,-1.30098,1.71350,-0.27445,2.21826,5.05733,0.20771,-0.51581,-0.80785,-0.02897,-0.28370,7.06682,-3.13014,-0.08479
-0.16405,1.05030,-0.50275,-0.63706,-0.39852,-0.12782,-1.16550,1.61263,-0.22784,2.82017,5.46487,0.30269,-0.51515,-0.81011,-0.02109,-0.27909,8.64205,-6.24634,1.99005
-0.16963,1.05086,-0.50421,-0.58923,-0.31147,-0.12348,-1.06295,1.45048,-0.10616,3.34360,5.42922,0.23277,-0.51191,-0.81312,-0.01542,-0.27667,8.16527,-9.69436,7.43438
-0.17467,1.05164,-0.50587,-0.54165,-0.23754,-0.12292,-1.01479,1.33509,0.02704,3.55590,5.20343,-0.08713,-0.50729,-0.81689,-0.00875,-0.27438,4.53597,-8.65020,8.94990
-0.17890,1.05321,-0.50775,-0.49245,-0.16736,-0.12569,-0.97515,1.25614,0.15653,3.52374,4.86928,-0.21667,-0.50200,-0.82109,-0.00214,-0.27166,4.17283,-5.16671,9.51782
-0.18200,1.05585,-0.50977,-0.43702,-0.09471,-0.12960,-0.97766,1.17746,0.31689,3.53791,4.29330,-0.17456,-0.49474,-0.82607,0.00464,-0.26987,0.49703,-4.01895,10.55919
-0.18514,1.05787,-0.51156,-0.39310,-0.04579,-0.12917,-0.90911,1.09723,0.39154,3.74930,4.00960,-0.00976,-0.48954,-0.82989,0.00977,-0.26747,2.36259,-4.97216,9.20219
-0.18679,1.06095,-0.51294,-0.33701,0.00786,-0.12284,-0.65561,0.95773,0.38732,4.09758,3.80797,0.53493,-0.48805,-0.83192,0.00856,-0.26388,15.23472,-8.65385,1.08442
