posX, posY, posZ, velX, velY, velZ, angVelX, angVelY, angVelZ, accX, accY, accZ, rotX, rotY, rotZ, rotW, angAccX, angAccY, angAccZ
-0.29206,1.14893,-0.30300,0.00753,0.00078,0.00342,0.03808,-0.02489,0.00528,-0.05480,0.15916,-0.10719,0.32256,0.86824,0.33142,0.17967,1.12333,1.39446,0.80424
-0.29195,1.14900,-0.30298,0.00708,0.00213,0.00178,0.03635,-0.02994,0.02330,0.03299,0.00191,-0.05539,0.32234,0.86816,0.33182,0.17970,0.00822,-0.41325,1.21581
-0.29184,1.14904,-0.30298,0.00833,0.00210,0.00099,0.03615,-0.03871,0.01733,0.09244,0.02510,-0.11459,0.32221,0.86806,0.33212,0.17985,-0.40218,-1.18493,-0.01411
-0.29164,1.14910,-0.30301,0.00952,0.00249,-0.00081,0.08530,-0.00372,0.01939,0.04603,0.04709,-0.26267,0.32224,0.86780,0.33301,0.17943,2.32135,1.76817,0.11846
-0.29140,1.14918,-0.30315,0.01077,0.00294,-0.00448,0.10985,0.03634,0.01719,0.12499,-0.02315,-0.23497,0.32254,0.86754,0.33395,0.17841,2.95872,3.43436,0.02771
-0.29124,1.14923,-0.30332,0.01190,0.00310,-0.00848,0.09604,0.04706,0.01406,0.09732,-0.02359,-0.32330,0.32269,0.86748,0.33418,0.17795,0.31314,1.60971,-0.28354
-0.29110,1.14927,-0.30355,0.01272,0.00298,-0.01380,0.06505,0.05015,0.01214,0.05956,-0.01902,-0.39649,0.32274,0.86753,0.33416,0.17768,-2.26574,0.28818,-0.01697
-0.29089,1.14931,-0.30388,0.01411,0.00267,-0.01880,0.04431,0.06410,0.01432,0.10723,-0.02555,-0.36309,0.32284,0.86761,0.33415,0.17713,-1.84825,0.47318,0.16863
-0.29055,1.14936,-0.30442,0.01596,0.00235,-0.02378,0.03803,0.08552,0.00596,0.10555,0.03613,-0.27118,0.32325,0.86766,0.33414,0.17617,-0.03715,1.72644,-1.03781
-0.29026,1.14943,-0.30496,0.01653,0.00297,-0.02760,0.03232,0.10006,0.00679,0.00750,0.08272,-0.27659,0.32358,0.86777,0.33402,0.17524,-0.98003,0.94708,-0.29920
-0.29000,1.14952,-0.30553,0.01667,0.00396,-0.03129,0.01761,0.10912,0.02485,0.01310,0.05143,-0.26603,0.32357,0.86807,0.33376,0.17428,-0.77888,0.37941,1.09090
-0.28966,1.14962,-0.30623,0.01770,0.00440,-0.03447,0.01634,0.12734,0.02919,0.14002,-0.01102,-0.18302,0.32379,0.86835,0.33351,0.17294,0.09443,1.53360,0.38794
-0.28911,1.14966,-0.30709,0.02134,0.00278,-0.03666,0.03169,0.15398,0.01252,0.27194,-0.14555,-0.14727,0.32458,0.86850,0.33331,0.17106,0.01829,1.11809,-0.63721
-0.28842,1.14959,-0.30790,0.02603,0.00021,-0.03727,0.05236,0.18430,-0.00969,0.38391,-0.24811,0.04678,0.32597,0.86846,0.33322,0.16877,2.02155,2.78443,-1.82612
-0.28786,1.14947,-0.30824,0.03215,-0.00238,-0.03655,0.00770,0.16761,-0.02759,0.60271,-0.15600,0.20612,0.32646,0.86866,0.33225,0.16873,-1.30574,-0.14341,-1.50188
-0.28716,1.14944,-0.30854,0.03969,-0.00249,-0.03494,-0.06184,0.14037,-0.04021,0.68477,0.11523,0.13227,0.32664,0.86909,0.33069,0.16924,-5.45874,-2.74291,-1.07509
-0.28515,1.14971,-0.30926,0.05499,0.00311,-0.03098,-0.17523,0.09926,-0.04159,1.28356,0.54594,0.50430,0.32664,0.87042,0.32663,0.17024,-6.27324,-1.49863,0.17311
-0.28288,1.15047,-0.30943,0.07171,0.01318,-0.02401,-0.27265,0.02073,-0.02292,1.62326,1.20825,0.66934,0.32502,0.87189,0.32271,0.17329,-9.61406,-5.21617,0.71189
-0.28036,1.15183,-0.30906,0.09340,0.03007,-0.01405,-0.27013,-0.01798,0.00936,1.99043,1.85795,0.74752,0.32344,0.87260,0.32165,0.17466,-4.02676,-5.67699,2.59623
-0.27796,1.15399,-0.30804,0.13030,0.06592,0.00377,-0.09156,-0.00671,0.05889,2.62448,2.96008,1.10889,0.32311,0.87155,0.32603,0.17236,9.18594,0.97845,2.71455
-0.27182,1.15901,-0.30679,0.17093,0.11429,0.02039,0.10843,0.03014,0.11910,3.18800,4.05020,1.17214,0.32203,0.87076,0.33118,0.16850,15.27988,2.34546,4.04162
-0.26620,1.16528,-0.30553,0.21754,0.18195,0.03431,0.21265,0.03400,0.21320,3.65394,5.71381,1.11961,0.31938,0.87063,0.33563,0.16538,10.52857,1.79254,5.29414
-0.25880,1.17604,-0.30398,0.28217,0.30460,0.05024,0.14418,-0.10281,0.43162,3.71922,7.93187,0.95172,0.31015,0.87289,0.33789,0.16640,-3.07783,-7.22769,11.89050
-0.25165,1.18833,-0.30259,0.33103,0.42745,0.06073,0.04755,-0.25141,0.65765,3.38422,9.90674,0.54615,0.29879,0.87584,0.33944,0.16854,-8.63171,-11.73445,14.57435
-0.24461,1.20258,-0.30133,0.36752,0.55255,0.06711,0.10663,-0.29990,0.90538,2.65784,11.48800,0.03164,0.28674,0.87828,0.34450,0.16650,-1.37010,-8.18451,19.28845
-0.23745,1.22169,-0.30016,0.39736,0.72166,0.07076,0.45058,-0.12018,1.25860,1.37243,13.44779,-0.21817,0.27399,0.87987,0.35683,0.15309,17.97308,8.82779,23.84293
-0.23151,1.24674,-0.29897,0.40243,0.94631,0.07405,1.01669,0.24595,1.75863,-0.88915,14.58538,0.54069,0.25872,0.88046,0.37632,0.12745,33.68563,26.53106,33.88035
-0.22761,1.27405,-0.29756,0.37622,1.16118,0.08017,1.35741,0.45593,2.38677,-2.14929,15.78301,0.81154,0.23524,0.88248,0.39416,0.10260,31.53934,18.58887,36.65643
-0.22435,1.30074,-0.29623,0.34717,1.31665,0.08358,1.25791,0.38836,2.86130,-3.16764,14.83635,1.09949,0.20699,0.88715,0.40298,0.08796,6.51054,5.12818,54.14114
-0.22372,1.33521,-0.29472,0.28561,1.54981,0.08889,0.94918,0.13181,3.44387,-4.48799,13.91878,0.19740,0.16820,0.89435,0.40698,0.07880,-14.49529,-25.70026,37.69003
-0.22384,1.36936,-0.29312,0.22490,1.73490,0.09504,0.82639,0.03457,3.78661,-4.78005,12.87788,0.31422,0.13517,0.89840,0.41251,0.06662,-9.57231,-13.94051,26.16820
-0.22483,1.40355,-0.29133,0.16484,1.88129,0.10238,0.87288,0.09149,4.01829,-5.74547,11.94383,0.39956,0.10559,0.89970,0.42063,0.04956,-0.42518,-1.44569,19.79201
-0.22860,1.44071,-0.28942,0.07759,2.03647,0.10983,0.97618,0.22110,4.27470,-7.07419,10.40955,0.52056,0.07481,0.89934,0.42989,0.02811,5.43738,11.32572,19.14606
-0.23625,1.47953,-0.28785,-0.04952,2.18739,0.11163,0.97237,0.26830,4.57671,-8.78472,8.35254,-0.04619,0.04002,0.89885,0.43636,0.00766,0.26947,2.83569,19.10482
-0.24572,1.51689,-0.28689,-0.17896,2.28908,0.10391,0.86283,0.29588,4.80588,-9.78861,6.03150,-0.82735,0.00530,0.89841,0.43898,-0.01168,-5.02194,-1.59205,17.55353
-0.25763,1.55360,-0.28658,-0.31746,2.35882,0.08813,0.64270,0.23286,4.95370,-10.17401,3.73333,-1.24433,-0.02985,0.89843,0.43723,-0.02766,-12.46600,-6.74670,12.50727
-0.27051,1.58886,-0.28682,-0.44034,2.39416,0.06849,0.42815,0.17455,5.04407,-10.55865,2.07393,-1.87559,-0.06421,0.89784,0.43351,-0.04281,-13.55588,-13.73055,8.30315
-0.28931,1.62307,-0.28810,-0.62708,2.40801,0.03798,0.12380,0.17040,5.14246,-10.42118,-0.45848,-1.49244,-0.09854,0.89788,0.42493,-0.05945,-15.31021,-6.29601,5.09570
-0.30724,1.65525,-0.28888,-0.76684,2.38843,0.02091,-0.09754,0.07746,5.18897,-9.58827,-2.28175,-0.62996,-0.13292,0.89629,0.41666,-0.07340,-14.16642,-7.92786,4.62730
-0.32523,1.68613,-0.28915,-0.87695,2.35502,0.01499,-0.23092,-0.11464,5.18622,-8.83019,-3.24826,-0.02664,-0.16755,0.89318,0.40897,-0.08307,-7.89079,-18.93513,1.52188
-0.34507,1.71503,-0.28875,-0.99052,2.30081,0.01993,-0.24719,-0.20252,5.12257,-7.92295,-4.53845,0.43854,-0.19923,0.88805,0.40364,-0.09353,0.77677,-12.55654,-2.56503
-0.36562,1.74206,-0.28780,-1.09087,2.22840,0.03200,-0.18143,-0.03449,5.01548,-7.03709,-5.89049,0.87655,-0.22573,0.88094,0.40102,-0.11036,0.60627,8.97002,-7.78044
-0.38680,1.76676,-0.28664,-1.18084,2.13796,0.04480,-0.13709,0.12529,4.91140,-5.94938,-7.10408,1.19517,-0.25094,0.87308,0.39806,-0.12774,-1.85508,15.86179,-7.63024
-0.40848,1.78918,-0.28535,-1.25955,2.03292,0.05602,-0.10696,0.07685,4.81952,-5.12787,-7.95473,0.83486,-0.27808,0.86489,0.39396,-0.13938,2.74464,0.40465,-7.16547
-0.43086,1.80863,-0.28412,-1.33176,1.90246,0.06479,-0.10130,-0.10223,4.67873,-3.89697,-8.60350,0.55273,-0.30514,0.85719,0.38835,-0.14591,3.96521,-10.17594,-7.57322
-0.45213,1.82801,-0.28302,-1.37343,1.79869,0.06934,-0.09700,-0.23308,4.55206,-3.13164,-8.86017,0.35640,-0.33125,0.84898,0.38247,-0.15238,4.62189,-11.62804,-10.26944
-0.47361,1.84435,-0.28168,-1.40897,1.67369,0.07578,-0.07330,-0.23153,4.36087,-2.44825,-9.21109,0.25735,-0.35306,0.84060,0.37814,-0.16044,3.69937,-4.58663,-12.52584
-0.49563,1.85763,-0.28002,-1.44269,1.52527,0.08537,-0.15903,0.09675,4.15682,-1.93671,-9.67247,0.64790,-0.36844,0.83238,0.37355,-0.17846,-10.83014,18.61508,-14.19004
-0.51732,1.87083,-0.27849,-1.46554,1.40726,0.09066,-0.16287,0.14203,4.03762,-1.59622,-9.94116,0.75824,-0.38789,0.82313,0.36858,-0.19012,-7.86434,12.01044,-11.32106
-0.53967,1.87912,-0.27702,-1.49304,1.24193,0.09355,-0.06173,-0.05861,3.97118,-1.37405,-10.62176,0.04700,-0.41148,0.81279,0.36392,-0.19397,8.82181,-9.80791,-4.92457
-0.56180,1.88655,-0.27570,-1.50798,1.09444,0.09293,-0.01901,-0.12909,3.94996,-0.94417,-10.55039,-0.34729,-0.43458,0.80136,0.35852,-0.20106,7.96367,-6.74630,-2.00792
-0.58336,1.89318,-0.27455,-1.51431,0.96938,0.09017,-0.01400,-0.12693,3.96631,-0.07831,-10.48265,-0.35924,-0.45715,0.78901,0.35243,-0.21040,-0.02318,0.43064,0.41466
-0.60406,1.89420,-0.27384,-1.50558,0.78709,0.08117,-0.02491,-0.11178,3.94170,1.11773,-9.88939,-0.60492,-0.47820,0.77671,0.34607,-0.21972,-0.78435,0.66688,-0.37402
-0.62427,1.89725,-0.27316,-1.48979,0.67106,0.07325,-0.03402,-0.11691,3.90598,1.70669,-9.44791,-0.78581,-0.49880,0.76419,0.33930,-0.22824,-0.78049,-0.34036,-3.46242
-0.64308,1.89676,-0.27299,-1.45628,0.52780,0.05912,-0.09549,-0.13020,3.79464,2.60638,-8.50804,-1.05811,-0.51676,0.75324,0.33138,-0.23617,-2.58488,-2.02334,-5.97592
-0.66067,1.89680,-0.27322,-1.41774,0.41705,0.04391,-0.21382,-0.15243,3.64668,2.88338,-7.54665,-1.00196,-0.53253,0.74383,0.32185,-0.24401,-7.16080,-2.37013,-10.04548
-0.67768,1.89679,-0.27340,-1.37994,0.33042,0.03299,-0.23410,-0.22989,3.50121,3.41418,-6.89122,-0.51443,-0.54842,0.73427,0.31331,-0.24884,-5.99071,-6.22505,-11.38027
-0.69295,1.89425,-0.27367,-1.32276,0.22356,0.02299,-0.14519,-0.33327,3.31492,3.54511,-6.37975,-0.56130,-0.56373,0.72478,0.30727,-0.24999,8.39346,-6.37565,-11.57187
-0.70838,1.89253,-0.27370,-1.27916,0.15106,0.01776,-0.12680,-0.35041,3.18901,3.59769,-5.91604,-0.49538,-0.57813,0.71481,0.30065,-0.25383,3.83239,-2.30006,-11.02545
-0.72255,1.88937,-0.27387,-1.22746,0.07332,0.01164,-0.10244,-0.37673,3.06246,3.78874,-5.25791,-0.28317,-0.59180,0.70517,0.29417,-0.25684,0.38233,-0.85925,-9.33009
-0.73600,1.88550,-0.27403,-1.17420,0.00099,0.00681,-0.01949,-0.39255,2.93521,3.80061,-5.10927,-0.45554,-0.60521,0.69506,0.28952,-0.25843,7.23044,-1.36436,-8.90485
-0.74914,1.88148,-0.27419,-1.12782,-0.05676,0.00254,-0.04788,-0.36927,2.83284,3.93867,-4.72078,-0.46369,-0.61715,0.68559,0.28312,-0.26256,1.27514,1.70158,-7.86073
-0.76099,1.87618,-0.27438,-1.07203,-0.12009,-0.00140,-0.06653,-0.31045,2.70525,4.10610,-4.48425,-0.34417,-0.62744,0.67654,0.27793,-0.26714,-1.94604,2.54689,-9.55926
-0.77191,1.87022,-0.27475,-1.01453,-0.18052,-0.00695,-0.08100,-0.26010,2.61169,4.20541,-4.11248,-0.44081,-0.63771,0.66712,0.27272,-0.27183,-2.68904,4.11400,-7.38382
-0.78136,1.86311,-0.27560,-0.94736,-0.24425,-0.01819,-0.01040,-0.28004,2.53925,4.22308,-3.80662,-1.01455,-0.64924,0.65714,0.26826,-0.27329,5.71170,0.31877,-5.24822
-0.79045,1.85611,-0.27682,-0.88738,-0.29423,-0.03268,-0.01365,-0.32894,2.47339,4.45410,-3.33850,-1.01786,-0.66029,0.64801,0.26161,-0.27507,0.30597,-3.54885,-3.99214
-0.79906,1.84921,-0.27806,-0.83275,-0.33330,-0.04421,0.01953,-0.36457,2.43425,4.66007,-3.11112,-0.97119,-0.67175,0.63806,0.25564,-0.27620,2.69980,-3.30525,-4.40779
-0.80533,1.84124,-0.27947,-0.75723,-0.37824,-0.05715,0.06229,-0.39046,2.37787,4.79058,-2.45304,-0.65741,-0.68260,0.62838,0.25020,-0.27676,2.39045,-2.00320,-2.74876
-0.81112,1.83363,-0.28065,-0.68926,-0.41030,-0.06402,0.03156,-0.33368,2.32972,4.77155,-2.20007,-0.73589,-0.69194,0.61854,0.24505,-0.28032,2.22853,3.09682,-4.01044
-0.81613,1.82622,-0.28185,-0.62277,-0.43359,-0.06935,-0.09836,-0.27916,2.27280,4.79453,-1.19073,-0.14902,-0.69968,0.60986,0.23775,-0.28635,-12.13127,1.78949,-3.93604
-0.82010,1.81908,-0.28286,-0.55521,-0.44864,-0.07127,-0.12624,-0.21265,2.19956,4.92739,-0.90191,-0.12617,-0.70717,0.60085,0.23297,-0.29089,-3.09856,4.31011,-5.77920
-0.82290,1.81209,-0.28395,-0.48465,-0.45863,-0.07392,-0.12198,-0.16366,2.13768,5.12900,-0.40658,-0.23526,-0.71473,0.59163,0.22872,-0.29464,-1.00998,3.66323,-4.78925
-0.82520,1.80533,-0.28520,-0.42266,-0.46165,-0.07752,-0.11110,-0.12440,2.06647,5.24980,-0.10835,-0.43990,-0.72186,0.58271,0.22488,-0.29798,1.07377,3.20699,-5.21091
-0.82462,1.79815,-0.28663,-0.34564,-0.46042,-0.08366,-0.14437,-0.11411,1.96273,5.26707,0.51699,-0.54580,-0.72781,0.57530,0.22011,-0.30144,-1.76114,1.38345,-6.53955
-0.82383,1.79164,-0.28815,-0.27963,-0.45291,-0.08975,-0.18033,-0.11880,1.82642,5.31341,0.96464,-0.56821,-0.73254,0.56951,0.21538,-0.30439,-2.98533,-0.59354,-9.79298
-0.82043,1.78650,-0.29016,-0.18365,-0.43074,-0.10113,-0.25346,-0.17413,1.57372,5.39946,1.65818,-0.63265,-0.73432,0.56823,0.20993,-0.30631,-4.02621,-3.56875,-13.72109
-0.81759,1.78227,-0.29216,-0.10497,-0.40492,-0.10964,-0.22721,-0.24153,1.35963,5.97265,2.27269,-0.43578,-0.73686,0.56682,0.20580,-0.30561,1.04303,-4.82715,-15.82004
-0.81472,1.77838,-0.29390,-0.04383,-0.38021,-0.11263,-0.15970,-0.26946,1.22919,6.28781,2.88272,0.03411,-0.74039,0.56387,0.20288,-0.30449,4.60130,-4.28222,-14.10920
-0.80760,1.77672,-0.29510,0.06413,-0.32925,-0.10733,-0.06617,-0.20782,1.06145,7.25115,3.35498,0.45705,-0.74244,0.56142,0.20369,-0.30348,9.30896,2.94864,-11.35267
-0.79820,1.77640,-0.29588,0.18595,-0.26812,-0.09705,-0.13438,-0.15288,1.00882,7.78675,4.44772,0.71137,-0.74451,0.55784,0.20075,-0.30695,-5.22136,3.74346,-4.56534
-0.78846,1.77750,-0.29658,0.28971,-0.19785,-0.08758,-0.25099,-0.19370,0.90443,7.33059,5.57719,0.63254,-0.74542,0.55705,0.19511,-0.30979,-5.16048,-1.76950,-6.90941
-0.77750,1.78096,-0.29681,0.38998,-0.10724,-0.07316,-0.43923,-0.04604,0.53777,7.21730,7.35369,1.16721,-0.73873,0.56220,0.19485,-0.31659,-13.72937,2.86498,-17.61829
-0.76497,1.78760,-0.29652,0.49383,0.01225,-0.05410,-0.60345,0.19901,-0.02887,6.16148,7.62792,1.11867,-0.72536,0.57297,0.20069,-0.32447,-12.08108,18.48863,-39.51860
-0.75305,1.79381,-0.29649,0.56804,0.10090,-0.04264,-0.61813,0.30148,-0.39383,6.30729,7.48420,0.99813,-0.71551,0.58157,0.20541,-0.32806,-6.07085,6.51119,-30.81730
-0.73900,1.80203,-0.29656,0.65690,0.19927,-0.03510,-0.54343,0.36738,-0.80153,6.69772,6.82748,0.25608,-0.70410,0.59261,0.21282,-0.32828,4.02123,5.22772,-29.99988
-0.72242,1.81176,-0.29726,0.76590,0.30094,-0.03854,-0.35033,0.36756,-1.21380,7.10555,6.12708,-0.51532,-0.69265,0.60508,0.22237,-0.32353,10.54132,-1.21508,-25.61004
-0.70488,1.82121,-0.29853,0.86867,0.37910,-0.04955,-0.24964,0.31225,-1.57456,7.87538,4.93326,-1.22816,-0.68021,0.61886,0.22985,-0.31859,9.86569,-4.29676,-26.81346
-0.68611,1.83033,-0.30018,0.96606,0.43500,-0.06353,-0.32051,0.24824,-1.84837,8.37825,4.18465,-1.51148,-0.66612,0.63351,0.23366,-0.31678,-1.88324,-5.28606,-23.31895
-0.66323,1.84066,-0.30259,1.10414,0.49713,-0.08590,-0.48734,0.13407,-2.17379,9.05731,3.57138,-1.25718,-0.64855,0.65185,0.23457,-0.31537,-15.11880,-6.35102,-21.45948
-0.63920,1.85034,-0.30518,1.23324,0.53818,-0.10661,-0.45021,0.03557,-2.38165,9.44118,2.67208,-1.44185,-0.63383,0.66736,0.23827,-0.31001,-0.00329,-6.84290,-15.23761
-0.61399,1.85969,-0.30788,1.34994,0.56486,-0.12429,-0.40370,-0.04650,-2.53581,10.34798,1.85014,-1.47889,-0.61919,0.68233,0.24211,-0.30400,2.78443,-8.39467,-13.35345
-0.58295,1.86908,-0.31116,1.52978,0.58707,-0.14698,-0.27383,-0.13551,-2.66883,12.20206,0.96195,-1.27551,-0.60520,0.69672,0.24743,-0.29513,6.25470,-7.87626,-9.68243
-0.55011,1.87816,-0.31413,1.71459,0.59479,-0.16117,-0.27772,-0.14512,-2.68080,14.40731,0.10272,-0.97021,-0.59147,0.70899,0.25111,-0.29057,3.56718,-3.15536,-1.87106
-0.51583,1.88837,-0.31659,1.91728,0.60281,-0.16654,-0.42041,-0.03642,-2.75120,15.90020,0.72623,-0.23321,-0.57352,0.72201,0.25531,-0.29084,-6.36216,5.77438,-1.63058
-0.47679,1.90011,-0.31840,2.14412,0.62876,-0.16084,-0.70231,0.19914,-3.06192,18.11218,2.88201,0.84854,-0.54595,0.73928,0.26094,-0.29550,-15.01224,16.41820,-16.46496
-0.43153,1.91346,-0.31977,2.38644,0.69343,-0.14642,-1.18359,0.18503,-3.40647,18.24844,6.43490,1.08173,-0.51406,0.76155,0.25683,-0.29972,-17.26779,20.75953,-38.14550
-0.37628,1.93276,-0.31830,2.72862,0.84366,-0.08758,-1.57008,1.48407,-5.49786,26.42054,10.77741,4.06660,-0.42304,0.79733,0.29209,-0.31621,-7.58439,90.66521,-118.92490
-0.31779,1.95307,-0.31684,3.04481,0.97454,-0.04397,-1.91339,2.30585,-7.32447,28.71075,10.55247,3.23394,-0.32362,0.82931,0.32081,-0.32343,-21.33810,51.94612,-165.66260
-0.24085,1.97425,-0.31529,3.56582,1.08289,-0.01112,-1.77468,3.03942,-9.99291,37.40685,3.08660,1.66778,-0.18815,0.85787,0.36571,-0.30807,-8.39030,37.14060,-169.06600
-0.15683,1.98702,-0.31589,4.09146,1.04037,-0.01647,-0.88173,3.08470,-12.23165,35.66930,-8.20950,-0.41330,-0.05947,0.86862,0.41673,-0.26133,1.26604,-30.73917,-188.21310
-0.06301,1.98402,-0.31868,4.65560,0.76567,-0.05473,-0.08884,3.07350,-14.57374,43.49310,-32.76815,-5.51935,0.08475,0.85840,0.46454,-0.20041,14.39137,-48.10318,-152.13440
0.03819,1.95588,-0.32629,5.20542,0.17326,-0.15893,-0.20561,2.21651,-17.14045,34.46087,-53.19858,-8.38332,0.24556,0.83717,0.47636,-0.10918,-72.61091,-4.56111,-192.48290
0.13222,1.90071,-0.33637,5.53223,-0.70334,-0.27752,-0.53635,1.26437,-18.95829,11.17190,-71.81740,-7.74781,0.39058,0.79331,0.46688,-0.01113,-88.07843,9.14933,-145.24190
0.20793,1.82762,-0.34534,5.51500,-1.65097,-0.35342,-0.85043,0.52300,-19.24218,-13.84925,-84.60939,-4.87818,0.49491,0.74166,0.44746,0.06916,-65.70695,9.29190,-59.26944
0.25474,1.71104,-0.35396,5.05829,-3.03911,-0.40681,-1.86107,-0.78753,-19.31049,-42.67453,-85.66550,-0.93761,0.57821,0.68976,0.40227,0.16756,-90.93324,35.23663,7.28689
0.28198,1.60801,-0.35814,4.41321,-3.93437,-0.38351,-2.37423,-1.08016,-19.15171,-67.29242,-58.77760,3.75462,0.65494,0.62077,0.35769,0.24035,-80.78403,55.61520,-22.83553
0.27987,1.51712,-0.35721,3.49651,-4.44912,-0.29255,-1.65330,-0.52059,-17.34165,-84.86198,-21.56593,8.82418,0.70086,0.56814,0.34668,0.25657,37.49078,0.38514,70.68964
0.23649,1.44603,-0.35114,2.17323,-4.56355,-0.14803,0.09663,-0.85171,-14.63748,-73.46426,10.53793,7.69019,0.71095,0.52782,0.38507,0.26015,42.91758,-106.74270,175.73680
0.21548,1.40998,-0.34895,1.43532,-4.15257,-0.08919,1.69776,-0.07909,-7.76814,-42.94939,28.11940,-0.49523,0.64632,0.59422,0.44756,0.16991,82.71563,-131.86560,417.33040
0.20335,1.37546,-0.35069,0.97084,-3.81203,-0.09894,3.16406,0.23569,-6.03809,-29.27795,22.67160,-2.58940,0.65168,0.56669,0.48730,0.12929,120.50630,-62.31699,106.18780
0.19323,1.34228,-0.35626,0.63014,-3.51866,-0.16267,2.58211,0.75705,-4.43960,-19.67188,16.65563,-3.97637,0.65216,0.57540,0.48151,0.10842,11.53711,6.07747,151.70830
0.18571,1.31164,-0.36199,0.39342,-3.24707,-0.21516,0.35241,1.24576,-3.50899,-12.23842,15.15807,-0.75851,0.65666,0.60558,0.43174,0.12520,-112.53730,64.76374,71.80116
0.17992,1.28075,-0.36386,0.22544,-3.03171,-0.19806,-1.84429,1.39222,-2.73578,-11.19550,15.97378,3.26157,0.65294,0.63864,0.37588,0.15660,-150.21370,52.17653,56.66249
0.17226,1.25267,-0.36189,0.06565,-2.81654,-0.12890,-3.57367,1.46203,-1.48231,-9.35756,15.63085,6.21814,0.63174,0.68158,0.32229,0.18021,-128.56930,52.65554,92.78954
0.16455,1.22463,-0.35663,-0.06127,-2.64881,-0.02587,-4.68143,0.86576,-0.67911,-8.45047,10.27574,7.02557,0.60406,0.71149,0.28663,0.21618,-81.37424,-14.44607,81.10350
0.15626,1.19463,-0.35003,-0.17127,-2.54702,0.07585,-4.37654,0.46230,-0.31404,-8.45631,7.34954,5.33421,0.59044,0.72234,0.27540,0.23187,-24.21875,-16.22018,51.05165
0.14577,1.16179,-0.34129,-0.29186,-2.50437,0.18678,-2.05977,-0.27961,-0.90044,-7.62335,1.60065,5.67754,0.60707,0.69232,0.31696,0.22736,136.10600,-55.77197,-16.36363
0.13724,1.12775,-0.33508,-0.35723,-2.49056,0.23743,-0.61695,-0.52597,-1.29914,-6.49500,0.96325,4.70806,0.62348,0.66678,0.34332,0.22093,157.10390,-61.09460,-44.84495
0.12566,1.09526,-0.32826,-0.45322,-2.45796,0.28487,0.42760,-0.69934,-1.67355,-5.41875,1.39881,3.14419,0.64047,0.63939,0.36686,0.21539,85.76726,-22.13426,-22.83414
0.11393,1.06429,-0.32235,-0.53394,-2.40583,0.30992,0.21522,-0.75033,-1.89713,-5.17794,3.65538,1.68350,0.64954,0.62694,0.36438,0.22863,-6.29672,-2.70370,-13.82152
0.10348,1.03325,-0.31726,-0.57780,-2.36909,0.31939,-0.12179,-0.77374,-1.97580,-5.73936,4.54477,1.39933,0.65529,0.61872,0.35792,0.24429,-25.39954,1.91440,-15.20136
0.08791,1.00818,-0.31213,-0.68647,-2.25340,0.32660,-1.17459,-0.76742,-2.14404,-6.20877,7.84023,-0.52603,0.65718,0.61712,0.33190,0.27769,-56.49454,6.03376,-14.02866
0.07281,0.98544,-0.30900,-0.76894,-2.12441,0.30272,-1.94878,-0.53886,-2.12484,-5.44513,10.75444,-3.00960,0.65796,0.61893,0.30416,0.30249,-54.86347,18.92501,-7.76046
0.05812,0.96688,-0.30829,-0.82767,-1.96066,0.24814,-2.34918,-0.09176,-1.78554,-2.67821,13.33844,-5.57527,0.65622,0.62760,0.27778,0.31358,-41.82772,36.72001,11.89941
0.04502,0.95131,-0.30920,-0.85212,-1.78819,0.18314,-1.82884,0.36661,-1.36852,-0.83291,12.65337,-4.85788,0.66030,0.63227,0.26920,0.30295,27.84090,36.59151,26.30990
0.03288,0.93751,-0.30980,-0.85721,-1.62359,0.13613,-1.16914,0.59183,-1.07593,-0.03626,11.47578,-2.20055,0.66606,0.63241,0.26882,0.29010,52.65666,20.03308,19.70812
0.02060,0.92696,-0.30895,-0.86370,-1.44309,0.12051,-0.63693,0.54131,-0.89187,-0.74210,10.90466,0.35684,0.67047,0.62934,0.27316,0.28246,40.42101,-3.37247,11.30500
0.00826,0.91725,-0.30691,-0.86983,-1.28600,0.12656,-0.73908,0.45491,-0.77013,0.12407,10.88648,1.36805,0.67001,0.63016,0.26720,0.28737,5.86186,-7.16890,7.02940
-0.00338,0.90982,-0.30483,-0.86301,-1.12638,0.13131,-1.38504,0.49105,-0.50571,1.05826,11.10272,-0.00730,0.66142,0.64058,0.24843,0.30077,-39.04322,1.65435,16.91242
-0.01323,0.90377,-0.30384,-0.83017,-0.98059,0.11875,-1.84437,0.65798,-0.14475,3.60640,10.22822,-2.17088,0.65067,0.65494,0.22852,0.30897,-47.96106,16.29645,27.12077
-0.02109,0.89786,-0.30320,-0.77581,-0.86451,0.10456,-1.23968,0.62979,0.02913,3.69790,8.19626,-1.73046,0.65062,0.65760,0.23166,0.30098,23.34742,5.55090,16.22142
-0.02879,0.89214,-0.30226,-0.72981,-0.76882,0.09797,-0.12874,0.40425,-0.03531,2.80822,6.62562,-0.12699,0.65948,0.64856,0.25121,0.28523,78.24657,-14.24941,-2.44368
-0.03626,0.88772,-0.30071,-0.68990,-0.67356,0.10174,0.61188,0.13749,-0.16937,2.89065,6.57800,1.48237,0.66778,0.63736,0.26922,0.27453,69.31799,-20.11627,-12.73205
-0.04312,0.88565,-0.29922,-0.65188,-0.56347,0.10560,0.36919,0.04100,-0.15470,2.71474,7.86443,0.89054,0.66678,0.63700,0.26849,0.27846,1.38069,-12.67257,-4.07231
-0.04950,0.88485,-0.29834,-0.61367,-0.45871,0.09885,-0.28660,0.18243,0.03953,3.76749,8.64063,-0.72098,0.65913,0.64705,0.25434,0.28669,-48.19563,5.30864,11.55581
-0.05382,0.88641,-0.29831,-0.55344,-0.34270,0.08070,-0.94271,0.47609,0.33206,4.47883,8.10537,-1.84670,0.64803,0.66303,0.23388,0.29281,-54.54321,20.96984,22.57705
-0.05639,0.88905,-0.29873,-0.48118,-0.23391,0.06196,-1.17123,0.69510,0.51298,4.36003,6.22087,-1.14467,0.64060,0.67494,0.21963,0.29302,-19.27874,16.60690,13.81886
-0.05952,0.89017,-0.29848,-0.43074,-0.16945,0.05580,-1.07797,0.70933,0.49527,3.85245,5.26675,-0.49758,0.63825,0.67951,0.21355,0.29205,0.68632,5.87797,1.89253
-0.06232,0.89188,-0.29784,-0.38665,-0.11108,0.05601,-0.85973,0.63291,0.41642,3.60750,4.87635,0.23666,0.63832,0.68060,0.21224,0.29033,16.09440,-3.69379,-6.32974
-0.06345,0.89585,-0.29708,-0.32902,-0.03172,0.05935,-0.79745,0.50447,0.37613,3.52334,5.11446,0.34820,0.63627,0.68223,0.21032,0.29239,8.46650,-9.24596,-4.21252
-0.06531,0.90009,-0.29667,-0.29213,0.03578,0.05599,-0.78797,0.46471,0.45511,2.66013,6.09130,-0.67404,0.63150,0.68735,0.20690,0.29316,-3.64697,-5.26534,4.14850
-0.06680,0.90737,-0.29673,-0.25639,0.13312,0.04588,-0.57758,0.49203,0.67432,2.24325,6.06995,-0.56249,0.62561,0.69490,0.20848,0.28680,12.71921,2.10015,12.22250
-0.06821,0.91482,-0.29672,-0.22709,0.21365,0.04127,-0.46436,0.52247,0.90602,1.83403,5.32686,0.31881,0.61783,0.70400,0.20917,0.28094,12.77989,3.87667,15.79199
-0.06979,0.92264,-0.29608,-0.20594,0.28287,0.04653,-0.55497,0.51654,1.11825,1.14685,4.34225,0.96444,0.60712,0.71462,0.20647,0.27945,-3.28589,1.44412,16.48801
-0.07173,0.93015,-0.29448,-0.19384,0.33409,0.06335,-0.60538,0.42261,1.25423,0.47234,3.10823,1.43908,0.59660,0.72347,0.20573,0.27989,-6.57728,-4.76101,12.64436
-0.07380,0.93697,-0.29211,-0.18667,0.36466,0.08933,-0.54606,0.21387,1.26089,0.53286,1.49280,2.13690,0.58861,0.72809,0.20931,0.28216,5.53485,-12.73141,3.01346
-0.07546,0.94312,-0.28898,-0.17449,0.37918,0.12140,-0.44901,-0.08575,1.17388,0.67919,0.53152,1.85433,0.58234,0.72919,0.21586,0.28733,6.85821,-18.47839,-4.16849
-0.07733,0.94881,-0.28607,-0.16669,0.38435,0.14222,-0.31424,-0.28973,1.10477,0.38451,0.32536,1.07549,0.57686,0.73016,0.22296,0.29051,10.28672,-15.96257,-5.37852
-0.07952,0.95454,-0.28385,-0.16564,0.38898,0.14862,-0.17661,-0.38566,1.09235,-0.33747,0.40112,0.16754,0.57110,0.73225,0.22992,0.29119,11.82986,-10.16276,-2.17210
-0.08272,0.96036,-0.28242,-0.17982,0.39347,0.14189,-0.06462,-0.38620,1.11082,-1.20752,-0.12376,-0.60024,0.56518,0.73555,0.23577,0.28975,7.75712,-0.31234,1.27405
-0.08611,0.96564,-0.28142,-0.19424,0.38987,0.12987,-0.10288,-0.33176,1.10736,-1.36504,-0.63814,-0.97409,0.55884,0.73996,0.23722,0.28964,-0.62805,3.36336,0.55029
-0.08983,0.97026,-0.28098,-0.21083,0.37724,0.11331,-0.15257,-0.24204,1.07985,-1.13091,-1.22798,-1.20369,0.55324,0.74449,0.23696,0.28899,-5.41781,5.34308,-1.34421
-0.09338,0.97433,-0.28050,-0.22064,0.35917,0.10000,-0.15458,-0.16168,1.02126,-0.62520,-1.77823,-0.93493,0.54901,0.74812,0.23707,0.28760,-1.58560,7.01810,-4.19966
-0.09660,0.97726,-0.28006,-0.22323,0.32776,0.08913,-0.19793,-0.10922,0.92260,0.16635,-2.16984,-0.30090,0.54566,0.75094,0.23584,0.28763,-1.96541,4.47853,-6.67884
-0.09942,0.98008,-0.27909,-0.21942,0.30147,0.08723,-0.24939,-0.13000,0.84583,0.56801,-2.30004,0.07716,0.54154,0.75331,0.23538,0.28957,-5.01828,0.28467,-5.76252
-0.10176,0.98198,-0.27772,-0.20910,0.26754,0.09112,-0.24779,-0.21758,0.73234,0.83687,-2.52773,0.34443,0.53861,0.75365,0.23682,0.29296,-1.42776,-5.47573,-7.27361
-0.10359,0.98283,-0.27633,-0.19341,0.22341,0.09682,-0.11479,-0.36092,0.54021,0.57306,-2.04811,-0.07392,0.53888,0.75043,0.24188,0.29658,6.69875,-9.11886,-10.51608
-0.10590,0.98455,-0.27527,-0.18779,0.20158,0.09485,0.07359,-0.40879,0.45672,0.38077,-1.66018,-0.32458,0.53874,0.74844,0.24849,0.29639,16.29688,-4.47834,-8.35908
-0.10821,0.98604,-0.27479,-0.18366,0.18222,0.08372,0.15262,-0.38318,0.40968,0.33526,-1.30223,-0.90369,0.53800,0.74790,0.25248,0.29573,8.69501,0.53072,-4.26874
-0.11010,0.98719,-0.27509,-0.17586,0.16280,0.06454,0.07742,-0.27921,0.37166,0.52538,-1.33779,-1.04004,0.53659,0.74932,0.25153,0.29551,-2.66816,5.78046,-1.96529
-0.11190,0.98841,-0.27520,-0.16767,0.14818,0.05166,-0.01863,-0.20861,0.32401,0.77340,-1.06096,-0.94406,0.53515,0.75063,0.24959,0.29642,-8.96736,6.62647,-3.53134
-0.11366,0.98973,-0.27523,-0.15995,0.13780,0.04183,-0.09582,-0.15881,0.30400,0.56523,-0.72866,-0.69982,0.53322,0.75223,0.24782,0.29735,-6.52891,4.84468,-3.53369
-0.11529,0.99087,-0.27541,-0.15205,0.12673,0.03307,-0.20619,-0.15583,0.27933,0.52799,-0.64689,-0.38773,0.53069,0.75371,0.24532,0.30018,-7.97807,0.82353,-1.51686
-0.11705,0.99213,-0.27525,-0.14744,0.11977,0.02997,-0.21117,-0.18442,0.25091,0.35051,-0.65312,-0.42718,0.52896,0.75400,0.24549,0.30237,-4.24330,-2.12913,-1.79329
-0.11860,0.99289,-0.27542,-0.14150,0.10789,0.02296,-0.08561,-0.20723,0.19074,0.23457,-0.43022,-0.62064,0.52953,0.75250,0.24862,0.30255,6.28511,-1.40021,-3.45784
-0.12027,0.99396,-0.27599,-0.13983,0.10401,0.01188,-0.00991,-0.17294,0.18834,0.04648,-0.20629,-0.77853,0.52913,0.75257,0.25066,0.30138,8.16679,1.75884,-0.99367
-0.12205,0.99525,-0.27663,-0.13946,0.10330,0.00168,-0.01261,-0.13225,0.20020,-0.00269,-0.03004,-0.97459,0.52785,0.75358,0.25094,0.30088,1.92104,3.33662,0.64658
-0.12391,0.99665,-0.27811,-0.13994,0.10425,-0.01834,-0.11180,-0.03688,0.22861,-0.09107,0.04980,-1.02812,0.52561,0.75642,0.24772,0.30033,-5.44907,5.56943,1.43535
