posX, posY, posZ, velX, velY, velZ, angVelX, angVelY, angVelZ, accX, accY, accZ, rotX, rotY, rotZ, rotW, angAccX, angAccY, angAccZ
-0.38261,1.05853,-0.38975,-0.02465,0.07648,-0.15185,-0.00699,-0.20008,0.17888,0.36577,0.25942,-0.59669,-0.36748,-0.88503,-0.01549,-0.28537,-3.34133,-1.49540,2.58240
-0.38270,1.05986,-0.39267,-0.02158,0.08218,-0.16263,-0.05500,-0.19468,0.22821,0.12186,0.59532,-0.90358,-0.36438,-0.88577,-0.01526,-0.28706,-4.37233,-0.73251,3.73358
-0.38286,1.06159,-0.39581,-0.02024,0.09255,-0.17471,-0.09692,-0.16923,0.28827,0.06692,0.90402,-0.85466,-0.36067,-0.88696,-0.01487,-0.28808,-2.66794,2.18480,3.94827
-0.38294,1.06346,-0.39931,-0.02010,0.10650,-0.18771,-0.14931,-0.14628,0.37688,-0.04352,0.85608,-0.72748,-0.35554,-0.88867,-0.01429,-0.28924,-3.00624,1.42548,6.16056
-0.38306,1.06533,-0.40258,-0.01978,0.11605,-0.19544,-0.14122,-0.13435,0.42240,0.02357,0.79296,-0.69812,-0.35159,-0.88997,-0.01501,-0.29001,-1.76622,0.69694,4.65975
-0.38298,1.06744,-0.40585,-0.01581,0.12581,-0.20232,-0.05162,-0.10671,0.40440,0.33233,0.59301,-0.45285,-0.35008,-0.89078,-0.01748,-0.28924,5.10841,2.11772,0.07364
-0.38255,1.06926,-0.40913,-0.00839,0.13196,-0.20662,-0.03797,-0.12083,0.38263,0.75270,0.42074,-0.01761,-0.34827,-0.89115,-0.01866,-0.29019,4.50063,0.71817,-2.53433
-0.38180,1.07117,-0.41241,0.00207,0.13826,-0.21018,-0.03992,-0.15094,0.37171,0.66299,0.54310,-0.41363,-0.34605,-0.89141,-0.01964,-0.29197,-2.94701,-2.92977,0.22010
-0.38118,1.07344,-0.41561,0.00968,0.14558,-0.21329,0.04042,-0.13696,0.33353,0.50196,0.67967,-0.35612,-0.34561,-0.89165,-0.02239,-0.29158,4.41440,0.12907,-2.45838
-0.38047,1.07609,-0.41899,0.01653,0.15742,-0.21808,0.15268,-0.10706,0.30990,0.37087,0.80383,-0.27280,-0.34549,-0.89209,-0.02652,-0.29001,8.24659,2.03680,-1.96406
-0.37995,1.07882,-0.42239,0.01941,0.16787,-0.22254,0.20701,-0.09683,0.33042,0.15154,0.72580,-0.21799,-0.34379,-0.89288,-0.03011,-0.28924,5.00274,1.63762,1.05833
-0.37947,1.08164,-0.42594,0.02131,0.17771,-0.22845,0.16230,-0.08822,0.37844,0.20425,0.68646,-0.37421,-0.34027,-0.89411,-0.03132,-0.28950,-1.34214,0.33284,2.69074
-0.37885,1.08436,-0.42975,0.02373,0.18606,-0.23566,0.02053,-0.10500,0.45765,0.15979,0.60533,-0.41414,-0.33441,-0.89566,-0.03000,-0.29167,-8.62095,-0.89674,4.90087
-0.37832,1.08716,-0.43351,0.02471,0.19304,-0.24116,-0.09414,-0.11720,0.53303,0.03663,0.65056,-0.53678,-0.32806,-0.89733,-0.02865,-0.29387,-10.91502,-2.20056,6.43989
-0.37772,1.09047,-0.43738,0.02760,0.20403,-0.24789,-0.13984,-0.11365,0.59548,0.13735,0.72289,-0.63929,-0.32206,-0.89909,-0.02851,-0.29512,-5.19942,-0.65443,4.48207
-0.37716,1.09389,-0.44132,0.02948,0.21371,-0.25456,-0.01900,-0.05101,0.57806,-0.01088,0.58797,-0.60438,-0.31977,-0.90056,-0.03189,-0.29279,6.79459,3.79061,0.41006
-0.37624,1.09756,-0.44562,0.03636,0.22962,-0.26530,0.27285,0.06139,0.50263,0.31440,0.35180,-0.07032,-0.32085,-0.90178,-0.03914,-0.28691,8.04632,3.00548,-2.39454
-0.37483,1.10407,-0.45308,0.04136,0.23382,-0.26563,0.36336,0.07042,0.47388,0.48178,0.37755,0.00372,-0.31736,-0.90376,-0.04658,-0.28342,6.99144,0.99516,-1.92323
-0.37373,1.10749,-0.45669,0.04841,0.23807,-0.26376,0.47788,0.06943,0.43361,0.48169,0.23751,0.27452,-0.31743,-0.90421,-0.05271,-0.28082,9.17280,0.83817,-3.25436
-0.37260,1.11093,-0.46017,0.05483,0.24094,-0.26108,0.54026,0.06125,0.42620,0.49071,0.21901,0.15780,-0.31649,-0.90484,-0.05827,-0.27873,4.72944,-0.45673,-1.46528
-0.37143,1.11432,-0.46372,0.06026,0.24236,-0.25961,0.60333,0.06207,0.42931,0.28166,-0.03784,0.05233,-0.31536,-0.90559,-0.06428,-0.27627,3.80016,-0.08760,0.29378
-0.37035,1.11751,-0.46714,0.06341,0.24016,-0.25653,0.70014,0.08585,0.40178,0.16700,-0.27225,0.31489,-0.31559,-0.90610,-0.07113,-0.27264,6.13719,1.58652,-1.50378
-0.36913,1.12033,-0.47034,0.06725,0.23475,-0.25086,0.75327,0.07583,0.38637,0.39335,-0.46771,0.62205,-0.31538,-0.90640,-0.07772,-0.27006,6.33312,0.81839,-1.35605
-0.36766,1.12295,-0.47341,0.07384,0.22725,-0.24400,0.72684,0.01944,0.38094,0.51667,-0.57275,0.58506,-0.31422,-0.90646,-0.08280,-0.26969,-1.32465,-2.99833,-0.56789
-0.36615,1.12557,-0.47637,0.08014,0.22043,-0.23740,0.70215,-0.03413,0.37325,0.50539,-0.55955,0.52708,-0.31307,-0.90639,-0.08780,-0.26970,-2.56844,-5.16346,-0.15001
-0.36449,1.12798,-0.47915,0.08733,0.21252,-0.23006,0.69921,-0.08026,0.34917,0.42778,-0.57064,0.40015,-0.31261,-0.90601,-0.09317,-0.26971,-0.63609,-3.69048,-1.76198
-0.36286,1.13030,-0.48196,0.09247,0.20465,-0.22435,0.72036,-0.09264,0.31755,0.31291,-0.55382,0.37511,-0.31283,-0.90563,-0.09891,-0.26870,1.47619,-1.34870,-2.46418
-0.36128,1.13263,-0.48478,0.09617,0.19788,-0.22000,0.74016,-0.09696,0.28984,0.31890,-0.53437,0.32455,-0.31316,-0.90522,-0.10467,-0.26749,1.86726,-0.50631,-2.03172
-0.35956,1.13482,-0.48750,0.10116,0.19079,-0.21526,0.78041,-0.08819,0.24546,0.32366,-0.44741,0.25448,-0.31445,-0.90457,-0.11084,-0.26569,2.22970,0.18590,-2.58301
-0.35781,1.13717,-0.49029,0.10563,0.18739,-0.21227,0.85295,-0.05246,0.20580,0.29390,-0.00346,0.08252,-0.31636,-0.90393,-0.11795,-0.26251,4.87383,2.13814,-3.59806
-0.35624,1.13999,-0.49316,0.10640,0.19116,-0.21115,0.94362,0.01042,0.20162,-0.13772,0.48076,0.08609,-0.31780,-0.90371,-0.12596,-0.25777,6.23164,4.37845,-0.87030
-0.35508,1.14333,-0.49620,0.10074,0.20281,-0.21295,0.95872,0.05491,0.28510,-0.39598,1.08079,-0.21579,-0.31600,-0.90453,-0.13296,-0.25357,1.50272,2.99866,3.95681
-0.35415,1.14718,-0.49941,0.09298,0.21912,-0.21662,0.93561,0.08804,0.41765,-0.52086,1.23811,-0.13371,-0.31184,-0.90609,-0.13954,-0.24956,-0.18743,2.08239,8.81306
-0.35316,1.15138,-0.50262,0.08816,0.23697,-0.21948,0.81148,0.05915,0.59344,-0.05157,1.39336,-0.09011,-0.30434,-0.90834,-0.14408,-0.24805,-7.13262,-1.92729,12.51099
-0.35156,1.15604,-0.50575,0.09304,0.25887,-0.22062,0.68216,-0.03557,0.76306,0.69058,1.74769,0.04115,-0.29534,-0.91035,-0.14862,-0.24889,-8.75295,-6.25767,11.74464
-0.34934,1.16146,-0.50880,0.10588,0.28733,-0.21997,0.66339,-0.15438,0.91431,1.14526,2.61633,-0.35392,-0.28622,-0.91165,-0.15622,-0.25013,-5.54158,-10.31422,10.82885
-0.34681,1.16863,-0.51200,0.12152,0.33521,-0.22240,1.00785,-0.13980,1.03159,0.60926,3.50024,-0.85869,-0.28060,-0.91185,-0.17332,-0.24444,16.02879,-1.23555,8.29774
-0.34462,1.17617,-0.51548,0.12892,0.37852,-0.22849,1.45033,0.01804,1.09411,0.73116,3.77180,-0.48373,-0.27799,-0.91162,-0.19399,-0.23246,35.22360,12.05708,6.15429
-0.34217,1.18454,-0.51913,0.13851,0.42349,-0.23541,1.78284,0.11996,1.16170,0.73135,3.97571,-0.74055,-0.27442,-0.91090,-0.21475,-0.22099,28.86716,11.22791,7.43519
-0.33924,1.19457,-0.52313,0.15267,0.48384,-0.24594,2.07909,0.27643,1.27882,1.31961,3.57009,-0.08071,-0.26949,-0.91053,-0.23629,-0.20610,22.96722,14.16752,8.33069
-0.33541,1.20448,-0.52714,0.17720,0.53148,-0.25475,1.90556,0.14353,1.41076,2.02753,3.24372,-0.57952,-0.25859,-0.91127,-0.24785,-0.20319,-5.83872,-6.18404,10.52721
-0.33074,1.21539,-0.53174,0.20879,0.58363,-0.27023,1.79303,0.15558,1.41361,2.22175,4.07507,-1.50480,-0.25165,-0.91167,-0.25815,-0.19720,-9.90015,-5.38331,1.25415
-0.32557,1.22780,-0.53684,0.24151,0.64717,-0.28971,1.71821,0.21736,1.40543,2.26379,5.12647,-1.45367,-0.24557,-0.91207,-0.26825,-0.18939,-5.52367,4.27996,-1.08066
-0.32034,1.24200,-0.54220,0.26847,0.72436,-0.30924,1.69641,0.32180,1.43814,1.66365,6.05991,-1.47964,-0.23889,-0.91262,-0.27916,-0.17921,-3.60276,4.85476,2.74991
-0.31514,1.25831,-0.54764,0.28925,0.81588,-0.32540,1.72033,0.47644,1.49953,1.23200,7.30200,-0.96372,-0.23188,-0.91326,-0.29090,-0.16600,-0.58039,9.34999,5.03104
-0.31025,1.27705,-0.55243,0.30108,0.92457,-0.32874,1.89189,0.73055,1.59118,0.46326,8.45761,0.17399,-0.22552,-0.91310,-0.30628,-0.14690,8.42826,16.70261,7.49956
-0.30595,1.29830,-0.55656,0.30205,1.04819,-0.32193,1.99181,0.90197,1.72917,-0.28306,9.39207,0.97057,-0.21665,-0.91295,-0.32114,-0.12826,10.26807,16.01660,10.09362
-0.30310,1.32346,-0.56014,0.28101,1.20562,-0.30827,1.89966,0.93215,2.01406,-2.16916,10.36261,1.25158,-0.20039,-0.91466,-0.33246,-0.11272,-3.41288,0.26748,17.00758
-0.30212,1.35005,-0.56320,0.23597,1.35263,-0.28951,1.73744,0.87761,2.36067,-4.19554,10.87726,1.64147,-0.17922,-0.91712,-0.34202,-0.09901,-8.97069,-7.93532,22.86637
-0.30217,1.37620,-0.56591,0.18692,1.45953,-0.27015,1.65496,0.86045,2.66279,-5.56581,10.82231,2.13883,-0.15721,-0.91874,-0.35243,-0.08363,-8.05969,-8.64216,27.65508
-0.30649,1.40785,-0.56683,0.08671,1.62210,-0.22890,1.53769,0.77470,3.21765,-6.77244,9.64299,3.08132,-0.12382,-0.92125,-0.36257,-0.06716,-2.98007,-8.41377,34.78835
-0.31204,1.43921,-0.56699,-0.01217,1.74949,-0.18466,1.41604,0.59385,3.66879,-7.41441,8.66094,3.42028,-0.08891,-0.92241,-0.37192,-0.05413,-3.58883,-16.85366,31.88547
-0.32032,1.47220,-0.56569,-0.13226,1.87714,-0.12739,1.34074,0.42521,4.11733,-7.75913,7.25947,3.69595,-0.05105,-0.92207,-0.38151,-0.04051,-0.79603,-15.34086,28.60178
-0.32827,1.50386,-0.56433,-0.22259,1.95748,-0.08090,1.33229,0.34495,4.37637,-7.66794,6.13766,3.93805,-0.01685,-0.91966,-0.39150,-0.02581,1.46180,-11.10186,23.49593
-0.33841,1.53643,-0.56143,-0.32558,2.03426,-0.02172,1.39457,0.35275,4.56750,-7.53056,4.82582,4.30958,0.01596,-0.91519,-0.40262,-0.00869,3.62642,-2.41766,15.56545
-0.35001,1.56870,-0.55750,-0.42911,2.09234,0.04021,1.48063,0.43661,4.67087,-7.68330,3.44378,4.36838,0.04602,-0.90907,-0.41397,0.01037,4.74434,5.44721,8.90834
-0.36431,1.60097,-0.55233,-0.55246,2.13750,0.10862,1.51508,0.59023,4.76864,-7.92320,2.12687,4.32446,0.07549,-0.90212,-0.42359,0.03231,0.06015,10.56034,7.54376
-0.37847,1.63205,-0.54753,-0.64870,2.15694,0.15760,1.48142,0.62067,4.83064,-8.11375,1.02925,4.14157,0.10552,-0.89473,-0.43096,0.05101,-2.64913,4.58253,5.52264
-0.39528,1.66266,-0.54175,-0.76306,2.16629,0.21035,1.36503,0.48583,4.87987,-8.15593,0.23458,3.94958,0.13752,-0.88748,-0.43506,0.06473,-4.26783,-7.32684,3.88942
-0.41497,1.69265,-0.53465,-0.89683,2.16282,0.27220,1.26030,0.19034,4.91163,-8.58010,-0.80020,4.23914,0.17183,-0.87941,-0.43799,0.07261,-2.13301,-20.03964,0.39750
-0.43546,1.72133,-0.52673,-1.01750,2.14190,0.33440,1.32426,-0.11041,4.91859,-8.88841,-2.03494,4.62543,0.20623,-0.86825,-0.44443,0.07802,9.04167,-20.02649,-1.12387
-0.45894,1.74807,-0.51710,-1.16039,2.09644,0.41040,1.48785,-0.17211,4.94035,-9.41223,-3.65397,4.49557,0.23850,-0.85404,-0.45380,0.08829,12.68242,-5.17765,0.26136
-0.48233,1.77397,-0.50764,-1.26904,2.04543,0.46688,1.60866,0.02854,4.97325,-9.29959,-4.84507,4.39396,0.26749,-0.83822,-0.46322,0.10618,7.13931,14.39862,3.49457
-0.50856,1.79736,-0.49717,-1.39659,1.96947,0.52582,1.64304,0.31259,5.05260,-9.12420,-6.21976,4.02284,0.29552,-0.82127,-0.47078,0.12868,-3.00763,21.54583,6.98306
-0.53636,1.81821,-0.48643,-1.52152,1.87245,0.57684,1.61832,0.42357,5.13939,-8.56386,-7.69420,3.72236,0.32522,-0.80385,-0.47545,0.14831,-6.45865,11.09893,8.34237
-0.56570,1.83670,-0.47520,-1.63986,1.75742,0.62239,1.65624,0.29160,5.19480,-8.06718,-8.93008,3.24987,0.35770,-0.78496,-0.47963,0.16076,3.18630,-6.53847,4.26780
-0.59612,1.85226,-0.46356,-1.74894,1.62332,0.66343,1.74783,0.13882,5.22874,-7.54852,-10.38990,2.59306,0.39025,-0.76417,-0.48432,0.17082,10.48292,-9.52844,0.76068
-0.62730,1.86457,-0.45183,-1.84749,1.47002,0.69791,1.78917,0.12378,5.28400,-6.67915,-11.87751,1.96637,0.42117,-0.74195,-0.48806,0.18418,6.75556,-2.99629,3.21189
-0.65902,1.87326,-0.44006,-1.93105,1.29580,0.72513,1.73299,0.20854,5.33101,-5.32869,-13.26911,1.64463,0.44977,-0.71944,-0.48959,0.20104,-4.22401,4.42030,4.81190
-0.69075,1.87807,-0.42826,-1.99705,1.10215,0.74664,1.69326,0.22363,5.32351,-3.82764,-14.51228,1.53718,0.47727,-0.69673,-0.49024,0.21552,-6.21140,1.05277,0.97365
-0.72192,1.87894,-0.41654,-2.04372,0.89074,0.76374,1.82580,0.13751,5.27516,-2.66932,-15.54931,1.19206,0.50530,-0.67144,-0.49347,0.22434,6.90529,-2.16388,-3.77453
-0.75217,1.87848,-0.40546,-2.06933,0.70126,0.77150,2.02493,0.06351,5.25979,-1.73344,-16.21489,0.34380,0.53399,-0.64283,-0.49797,0.23165,17.07780,-0.62611,-3.39272
-0.78169,1.87243,-0.39507,-2.08201,0.47328,0.76913,2.17074,0.07072,5.27016,-0.49357,-16.72513,-0.89907,0.56102,-0.61270,-0.50203,0.24047,14.20038,3.23007,-0.93394
-0.80988,1.86097,-0.38615,-2.07504,0.20954,0.74555,2.13554,0.16236,5.37890,1.18514,-16.68432,-2.41606,0.58679,-0.58201,-0.50197,0.25488,-2.39649,5.09020,7.16264
-0.83701,1.84886,-0.37866,-2.04808,-0.01720,0.70243,1.99432,0.15266,5.47939,2.96034,-16.33282,-3.91373,0.61266,-0.55237,-0.49708,0.26917,-8.80524,-2.56224,7.58975
-0.86211,1.83398,-0.37323,-1.99712,-0.23745,0.63815,1.89233,-0.00049,5.54380,4.62804,-15.55514,-5.15220,0.63954,-0.52304,-0.48921,0.27944,-5.36772,-11.92747,4.35746
-0.88431,1.81501,-0.37041,-1.91356,-0.47300,0.54749,1.89426,-0.29831,5.52300,6.13945,-14.20466,-5.93673,0.66736,-0.49430,-0.47974,0.28309,5.66148,-17.02135,-2.29530
-0.90494,1.79584,-0.36832,-1.82123,-0.66306,0.46342,1.93665,-0.53972,5.46983,7.17966,-13.24093,-6.15101,0.69390,-0.46477,-0.47040,0.28499,11.31453,-15.59002,-6.60792
-0.92308,1.77504,-0.36737,-1.71259,-0.83844,0.38036,1.89693,-0.70399,5.47791,8.31272,-12.14554,-6.09042,0.71901,-0.43459,-0.45880,0.28925,4.25468,-11.69544,-2.55460
-0.93865,1.75291,-0.36744,-1.58720,-0.99635,0.29931,1.79841,-0.83616,5.51368,9.69015,-10.60365,-5.69013,0.74287,-0.40408,-0.44474,0.29507,-3.12213,-11.74447,1.86070
-0.95151,1.73003,-0.36829,-1.44658,-1.13152,0.22339,1.73010,-0.91398,5.51108,10.57538,-8.84937,-5.26499,0.76474,-0.37318,-0.43092,0.30037,-2.61542,-8.86743,-0.56983
-0.96296,1.70775,-0.36941,-1.31718,-1.22833,0.16049,1.70917,-0.94775,5.48026,11.22414,-7.37354,-5.25776,0.78475,-0.34168,-0.41793,0.30457,-1.25911,-3.71894,-2.73460
-0.96898,1.68396,-0.37272,-1.13460,-1.32768,0.07814,1.62874,-0.96454,5.42505,11.81830,-5.10940,-5.28770,0.80247,-0.31143,-0.40403,0.30953,-2.55374,-1.51537,-3.51186
-0.97396,1.66169,-0.37643,-0.97089,-1.38354,0.00571,1.49592,-1.01977,5.32888,11.77096,-2.99643,-5.31249,0.81857,-0.28335,-0.38819,0.31458,-7.63019,-4.67348,-6.91883
-0.97688,1.64057,-0.38119,-0.81157,-1.41114,-0.06707,1.35675,-1.13987,5.18618,11.31719,-0.94660,-5.24241,0.83367,-0.25796,-0.37034,0.31828,-5.16602,-9.68915,-10.21842
-0.97798,1.62092,-0.38689,-0.65846,-1.41152,-0.13888,1.22040,-1.30971,4.97602,10.99177,0.89056,-5.13945,0.84762,-0.23607,-0.35103,0.32030,-5.23724,-11.96089,-15.34577
-0.97601,1.60296,-0.39395,-0.48824,-1.38401,-0.21689,1.17374,-1.52228,4.68051,10.52231,2.66788,-4.41568,0.86129,-0.21717,-0.33127,0.31824,0.83829,-14.05295,-19.56989
-0.97486,1.58624,-0.40036,-0.36712,-1.34499,-0.26840,1.29236,-1.60382,4.39183,9.73883,3.92666,-3.80802,0.87414,-0.19685,-0.31572,0.31217,11.65877,-4.84833,-21.07486
-0.97137,1.57200,-0.40733,-0.23840,-1.27784,-0.31692,1.58195,-1.56265,3.96941,8.76308,6.05533,-2.44755,0.88566,-0.17863,-0.30669,0.29941,15.71821,5.08867,-25.61130
-0.96755,1.56027,-0.41433,-0.13188,-1.18635,-0.35543,2.20291,-1.35798,3.45011,6.64780,7.32897,-2.62152,0.89696,-0.15900,-0.30760,0.27487,35.84858,31.77378,-29.42448
-0.96374,1.55136,-0.42109,-0.04741,-1.07190,-0.38231,2.48850,-1.13549,2.87348,6.10872,9.27950,-2.04458,0.90453,-0.14608,-0.30987,0.25390,37.26388,26.42467,-32.61616
-0.95822,1.54681,-0.42733,0.04646,-0.91442,-0.39616,2.11430,-1.21338,2.28583,5.72387,10.15457,-1.17841,0.90899,-0.14659,-0.30200,0.24707,-13.53058,4.32494,-40.43804
-0.95303,1.54244,-0.43317,0.11540,-0.78691,-0.40087,1.80514,-1.42617,1.94770,5.75806,11.16535,0.34297,0.91543,-0.14509,-0.28767,0.24121,-28.09544,-18.85535,-36.29670
-0.94524,1.54373,-0.43842,0.20931,-0.60081,-0.39560,1.71059,-1.35035,1.59501,5.81158,12.29311,1.00884,0.92005,-0.14236,-0.28192,0.23186,-5.82996,2.96175,-23.12536
-0.93703,1.54697,-0.44292,0.29084,-0.42215,-0.38008,1.59930,-1.25121,1.33669,5.78438,13.31709,1.25533,0.92400,-0.13881,-0.27713,0.22395,-3.74998,11.90751,-18.50353
-0.92806,1.55350,-0.44629,0.36622,-0.23091,-0.35010,1.26855,-1.26830,1.08008,5.04180,14.10421,2.37559,0.92680,-0.14004,-0.26856,0.22206,-16.86674,1.16489,-19.31392
-0.91939,1.56155,-0.44871,0.42001,-0.06048,-0.31280,0.82493,-1.36703,0.80820,4.16903,14.57374,3.37713,0.92850,-0.14605,-0.25697,0.22477,-30.53801,-6.59107,-24.13393
-0.91012,1.57450,-0.44959,0.47104,0.14514,-0.26106,0.27007,-1.45403,0.45932,3.24803,15.21671,3.82324,0.92779,-0.15834,-0.24499,0.23265,-37.54719,-7.71350,-28.23289
-0.90113,1.59098,-0.44971,0.50679,0.36048,-0.20858,-0.24361,-1.51752,-0.00612,2.05739,16.02052,3.91605,0.92508,-0.17685,-0.23412,0.24113,-33.96651,-5.75156,-33.21119
-0.89291,1.61108,-0.44910,0.52367,0.58501,-0.15637,-0.61544,-1.44750,-0.62729,0.49247,16.70403,4.02814,0.91972,-0.20172,-0.22895,0.24700,-26.63112,-0.40454,-44.24562
-0.88610,1.63469,-0.44797,0.51637,0.81516,-0.10735,-0.84071,-1.22686,-1.46769,-1.00412,16.93098,3.54435,0.91059,-0.23501,-0.23200,0.24853,-11.10161,13.01132,-57.33682
-0.87985,1.65993,-0.44671,0.50247,1.01816,-0.06707,-1.01876,-0.99499,-2.34632,-0.69841,17.56663,3.28078,0.89788,-0.27448,-0.23833,0.24835,-7.28702,14.86510,-70.88673
-0.87279,1.69122,-0.44477,0.50399,1.26505,-0.02568,-1.17461,-0.69505,-3.38904,1.20527,18.09391,2.82274,0.87869,-0.32352,-0.25055,0.24589,-3.75380,16.17369,-77.94275
-0.86212,1.72887,-0.44241,0.55898,1.55874,0.01377,-1.32927,-0.32374,-4.49590,6.01807,18.76341,2.01595,0.85229,-0.37849,-0.26766,0.24230,-0.41206,18.49866,-73.64784
-0.84744,1.76618,-0.44081,0.65986,1.78489,0.03416,-1.52989,-0.13214,-5.20079,10.68865,18.93134,1.01947,0.82489,-0.42856,-0.27862,0.24138,-5.93093,16.48264,-65.15617
-0.82391,1.81148,-0.43948,0.87075,2.08380,0.04638,-1.86981,0.03434,-6.07438,15.59666,18.65343,0.35463,0.78793,-0.48690,-0.28898,0.24206,-17.49683,10.73571,-55.08563
-0.79553,1.85746,-0.43891,1.11251,2.33557,0.04505,-2.07725,0.25188,-6.89962,19.27709,17.61578,-0.32135,0.74492,-0.54475,-0.30164,0.23950,-12.06672,12.80805,-59.42872
-0.75925,1.90580,-0.43989,1.42394,2.56981,0.02038,-2.23257,0.11135,-7.34830,21.55934,14.16210,-1.81829,0.70450,-0.59756,-0.30339,0.23358,-5.80924,-4.89604,-40.59798
-0.71970,1.95251,-0.44014,1.72089,2.73364,0.01284,-2.48663,0.83033,-8.23117,30.05074,14.87652,0.54452,0.64130,-0.65341,-0.32591,0.23573,-16.74022,9.95973,-46.70634
-0.66630,2.00170,-0.44190,2.15649,2.89763,-0.01632,-2.29040,1.06175,-9.76389,30.35062,7.41822,-4.02296,0.56017,-0.72126,-0.34869,0.21074,28.64184,-1.58442,-133.28060
-0.60563,2.04750,-0.44459,2.60802,2.97574,-0.05245,-2.50503,1.24378,-10.89892,35.11438,3.67983,-1.66156,0.47064,-0.78182,-0.35964,0.19469,-23.19069,15.75741,-72.35693
-0.53253,2.08904,-0.44754,3.12674,2.97618,-0.08604,-2.20879,1.52659,-12.27376,39.36290,-3.30825,-2.29544,0.36500,-0.83416,-0.38036,0.16210,10.98317,-5.78165,-98.31725
-0.44816,2.12247,-0.45114,3.70508,2.86476,-0.12200,-1.74294,1.71761,-13.82226,43.62227,-13.17218,-2.92937,0.24255,-0.87580,-0.40078,0.11625,13.21058,-24.89326,-108.98980
-0.35315,2.14313,-0.45582,4.32777,2.58610,-0.16602,-1.41715,1.84935,-15.39310,44.62398,-27.79031,-3.53493,0.10376,-0.90258,-0.41276,0.06488,1.34432,-18.73080,-119.43260
-0.24696,2.13635,-0.46264,5.02485,1.94736,-0.23628,-0.98131,1.56240,-17.09768,39.70451,-53.15989,-5.09701,-0.04501,-0.90904,-0.41424,-0.00510,-13.55798,-31.83770,-116.36770
-0.15377,2.12178,-0.46932,5.37075,1.33414,-0.28779,-0.82362,1.22778,-17.58760,28.49313,-68.41048,-5.06589,-0.16724,-0.89777,-0.40264,-0.06259,-30.80565,-27.18013,-78.47635
-0.06100,2.05621,-0.47836,5.63474,0.11334,-0.36198,-0.51475,0.29790,-17.44813,3.53493,-80.78652,-3.80961,-0.26117,-0.87463,-0.38678,-0.13124,-42.18562,-33.24830,3.89066
0.00900,1.98205,-0.48729,5.51737,-0.99752,-0.41700,-0.59332,-0.85858,-16.58959,-18.89280,-76.89757,-3.56375,-0.32541,-0.85118,-0.36109,-0.19804,-76.79097,-33.23840,50.21414
0.06355,1.90875,-0.49593,5.19658,-1.85632,-0.45601,-1.08293,-1.51540,-15.59773,-35.17898,-66.07829,-3.73757,-0.38166,-0.82813,-0.32465,-0.25127,-81.19534,6.30158,69.42583
0.08907,1.82078,-0.50538,4.52084,-2.75010,-0.49908,-1.92992,-1.63977,-13.60085,-48.23228,-45.45489,-2.62186,-0.40588,-0.82327,-0.28265,-0.27857,-52.43379,58.28291,108.58190
0.09916,1.74332,-0.51284,3.74098,-3.33192,-0.50475,-1.55609,-0.08076,-11.39838,-50.29315,-27.30042,-1.27852,-0.43706,-0.82033,-0.27169,-0.24944,54.96885,67.90075,136.76280
0.11287,1.67906,-0.51803,3.17152,-3.59713,-0.47583,0.33283,2.09788,-10.13108,-47.34155,-16.60050,2.02060,-0.49891,-0.79310,-0.29553,-0.18642,202.79560,43.85523,96.51265
0.11001,1.61547,-0.51908,2.47720,-3.79588,-0.39142,4.03217,4.44809,-9.17156,-40.22262,-9.62891,8.36085,-0.57298,-0.72773,-0.36815,-0.08102,305.71370,-22.51891,3.79436
0.10896,1.55828,-0.51803,1.94630,-3.86282,-0.29250,5.96968,4.16428,-8.67794,-33.61102,-3.03469,9.65998,-0.62095,-0.65806,-0.42341,-0.04577,163.78700,-87.26093,-37.27132
0.10964,1.50584,-0.51747,1.55609,-3.84212,-0.22307,5.22291,2.75074,-7.97972,-28.58448,1.60006,8.54287,-0.64154,-0.62727,-0.43644,-0.06699,-25.97889,-94.03015,11.86973
0.10522,1.45881,-0.51614,1.17753,-3.74810,-0.15737,1.96579,0.38964,-6.86228,-25.93962,7.77113,4.89846,-0.62641,-0.64694,-0.40571,-0.15645,-252.97420,-81.20186,55.36550
0.09745,1.42005,-0.51541,0.82348,-3.55224,-0.11211,-2.20072,-0.66361,-4.40362,-20.66492,13.61984,1.18662,-0.57291,-0.71426,-0.32916,-0.23078,-302.97780,34.26525,146.98240
0.09409,1.37959,-0.51498,0.60471,-3.41912,-0.08101,-4.19682,-0.94038,-3.34610,-18.20111,11.41826,1.63814,-0.54744,-0.74071,-0.27087,-0.27979,-198.13290,48.14945,91.10284
0.08603,1.34102,-0.51365,0.36566,-3.28897,-0.04463,-5.39687,-0.92667,-2.33973,-17.14430,9.21233,1.17870,-0.51929,-0.76390,-0.21890,-0.31446,-115.48700,43.09751,64.01550
0.07614,1.30167,-0.51218,0.14886,-3.19850,-0.01307,-5.41248,-0.69223,-1.81405,-15.20877,5.35282,1.29584,-0.50733,-0.77340,-0.18742,-0.33068,-18.04073,35.03117,37.57589
0.06659,1.26005,-0.51092,-0.01713,-3.15619,0.00868,-4.98477,-0.50024,-1.73642,-13.64169,2.71641,1.23124,-0.50813,-0.77255,-0.16562,-0.34284,29.25525,18.87579,10.27758
0.05229,1.21837,-0.50948,-0.21807,-3.12539,0.02867,-3.85445,-0.22275,-1.88502,-12.37016,2.29028,0.17627,-0.52398,-0.76381,-0.16138,-0.34058,60.82309,5.33532,-10.05550
0.03941,1.17681,-0.50839,-0.35913,-3.10019,0.04027,-2.53977,0.06289,-2.01465,-11.48228,2.46308,0.96845,-0.54531,-0.75265,-0.16729,-0.32890,105.36790,4.18803,-15.15789
0.02234,1.13664,-0.50667,-0.53149,-3.05726,0.05867,-1.50120,0.28810,-2.14260,-10.08908,2.24357,2.78816,-0.56706,-0.74052,-0.17275,-0.31659,85.10415,2.72195,-11.30385
0.00561,1.09739,-0.50461,-0.66707,-3.01056,0.07802,-1.69952,0.33296,-2.19112,-9.31482,3.54691,2.17701,-0.57459,-0.73496,-0.15283,-0.32607,1.49142,2.37770,-5.95351
-0.01241,1.05978,-0.50239,-0.79425,-2.94938,0.09591,-2.27079,0.44592,-2.17219,-9.06872,4.80801,1.37306,-0.57594,-0.73326,-0.12074,-0.34065,-37.73526,12.49274,0.58737
-0.03233,1.02394,-0.50000,-0.92354,-2.87610,0.11225,-2.92840,0.63379,-2.14549,-9.77593,5.62653,1.13522,-0.57434,-0.73266,-0.08152,-0.35594,-42.42703,19.70956,-0.17738
-0.05424,0.98958,-0.49776,-1.05479,-2.79405,0.12271,-3.39780,0.90404,-2.12673,-8.84808,6.32119,-0.26670,-0.57291,-0.73174,-0.04100,-0.36695,-42.36288,24.57793,0.78229
-0.07631,0.95686,-0.49550,-1.16246,-2.70610,0.13173,-3.02670,1.17661,-2.23864,-7.22681,7.12589,-0.11849,-0.58376,-0.72599,-0.01743,-0.36312,11.25739,17.54359,-10.47459
-0.09890,0.92663,-0.49257,-1.25623,-2.60052,0.14847,-2.15163,1.32341,-2.40043,-6.51124,8.40935,1.36205,-0.60344,-0.71640,-0.00966,-0.35006,59.45881,-0.42705,-18.72202
-0.12304,0.90056,-0.48870,-1.35404,-2.45135,0.17554,-1.24655,1.44152,-2.45215,-4.43954,10.44273,2.78168,-0.62352,-0.70773,-0.00723,-0.33209,59.61416,9.62067,-22.06571
-0.14635,0.87540,-0.48417,-1.42037,-2.32068,0.20624,-1.11228,1.37865,-2.32723,-5.87798,11.12727,4.03541,-0.63142,-0.70207,0.00439,-0.32922,34.69330,-25.28546,10.94392
-0.17155,0.85434,-0.47855,-1.49997,-2.16056,0.24609,-1.64947,1.54681,-2.07922,-5.48948,11.34322,3.71303,-0.62769,-0.70266,0.03512,-0.33324,-23.71200,15.94625,17.96950
-0.19740,0.83627,-0.47180,-1.57254,-1.98452,0.29379,-2.55486,1.79631,-1.84786,-3.56074,10.76853,2.68765,-0.61635,-0.70398,0.07980,-0.34373,-53.26203,25.68499,18.36635
-0.22164,0.81850,-0.46533,-1.60870,-1.83952,0.32855,-3.06512,1.99951,-1.70962,-1.95337,10.30927,1.43017,-0.60773,-0.70290,0.11961,-0.34970,-43.24237,24.00711,14.25046
-0.24495,0.80245,-0.45896,-1.62472,-1.70078,0.35541,-2.97195,2.10758,-1.68827,-0.76191,10.05774,1.01397,-0.60713,-0.69960,0.14698,-0.34692,-2.79359,11.99982,2.66553
-0.26788,0.78712,-0.45259,-1.62946,-1.57863,0.37601,-2.48492,2.05259,-1.73813,-0.35075,10.64839,1.10611,-0.61370,-0.69434,0.16220,-0.33907,27.47969,-4.06051,-7.25204
-0.29064,0.77725,-0.44542,-1.63178,-1.40273,0.40450,-1.52643,1.80704,-1.81536,0.12309,11.32741,1.95794,-0.62904,-0.68820,0.15966,-0.32434,56.05393,-22.92694,-10.13407
-0.31293,0.76690,-0.43804,-1.62667,-1.27030,0.43004,-0.98605,1.68555,-1.86827,0.76158,10.86681,2.86248,-0.64073,-0.68215,0.16369,-0.31200,53.08831,-24.81572,-9.32810
-0.33389,0.75936,-0.42960,-1.60206,-1.12491,0.46485,-0.79714,1.61135,-1.87229,2.90691,10.12945,3.82897,-0.64847,-0.67614,0.17383,-0.30349,26.68636,4.30414,-10.10499
-0.35222,0.75447,-0.41943,-1.54449,-0.96914,0.51779,-1.38172,1.23645,-1.59058,5.18710,9.37620,3.10005,-0.64208,-0.66976,0.19122,-0.32029,-36.35905,-28.38914,23.32508
-0.36782,0.74971,-0.41008,-1.45705,-0.84266,0.54640,-1.84269,1.14589,-1.30573,7.11921,8.95166,0.95736,-0.63299,-0.66637,0.21254,-0.33181,-37.39561,2.40600,23.57615
-0.38136,0.74678,-0.40128,-1.35572,-0.71499,0.55866,-1.87776,0.92085,-1.05974,7.15535,9.34106,-0.41634,-0.62818,-0.66339,0.22272,-0.34016,-11.80185,-9.65329,20.96460
-0.39273,0.74731,-0.39382,-1.24280,-0.56122,0.54892,-1.44910,0.60643,-0.81576,7.10295,9.78108,-1.78337,-0.62878,-0.66282,0.21910,-0.34249,22.53382,-20.14108,15.70578
-0.40364,0.74847,-0.38804,-1.14713,-0.42644,0.52013,-0.90411,0.39750,-0.56525,6.76548,9.41314,-2.50003,-0.63038,-0.66521,0.21113,-0.33992,37.87445,-17.28880,17.49496
