posX, posY, posZ, velX, velY, velZ, angVelX, angVelY, angVelZ, accX, accY, accZ, rotX, rotY, rotZ, rotW, angAccX, angAccY, angAccZ
-0.34323,0.96189,-0.42407,0.02318,0.09283,0.16838,-0.12839,-0.51557,0.44237,0.64480,1.14153,-0.93133,-0.52930,-0.78197,-0.01427,-0.32887,1.54749,1.21503,1.94577
-0.34224,0.96435,-0.42293,0.03263,0.11086,0.15146,-0.08264,-0.49894,0.41986,0.58856,1.19258,-1.27210,-0.52760,-0.78223,-0.01714,-0.33085,1.96920,0.88327,-0.90676
-0.34119,0.96702,-0.42218,0.04117,0.12879,0.13242,0.00358,-0.47565,0.39177,0.66591,1.43407,-1.63141,-0.52674,-0.78235,-0.02099,-0.33170,4.96804,1.47907,-2.48022
-0.34015,0.96981,-0.42153,0.04772,0.14402,0.11590,0.12636,-0.44269,0.37178,0.67615,1.65199,-1.91817,-0.52646,-0.78265,-0.02612,-0.33109,8.57494,2.40562,-1.42221
-0.33857,0.97378,-0.42252,0.05968,0.17534,0.08011,0.40781,-0.35304,0.36720,0.70290,1.86763,-2.16414,-0.52794,-0.78369,-0.03520,-0.32538,15.85341,5.29457,-0.51615
-0.33711,0.97764,-0.42383,0.06664,0.20139,0.04714,0.62150,-0.26816,0.39496,0.28975,1.83446,-2.54313,-0.52834,-0.78534,-0.04390,-0.31963,13.69798,6.66838,2.59432
-0.33560,0.98171,-0.42597,0.07323,0.22467,0.00834,0.98800,-0.16876,0.37816,0.59459,1.67032,-3.47150,-0.53174,-0.78627,-0.05675,-0.30953,21.02421,7.20013,0.71626
-0.33374,0.98624,-0.42904,0.08501,0.24734,-0.03793,1.69128,-0.02514,0.25080,0.84547,1.79752,-3.77651,-0.54215,-0.78470,-0.07804,-0.29022,43.14770,10.94878,-5.00719
-0.33144,0.99140,-0.43274,0.10069,0.27549,-0.08348,2.54659,0.10443,0.10636,1.44901,2.46321,-3.08246,-0.55611,-0.78064,-0.10643,-0.26461,60.99041,12.51362,-10.42830
-0.32847,0.99805,-0.43666,0.12328,0.31979,-0.12292,3.30091,0.21195,0.07053,2.14299,3.98503,-2.25638,-0.56779,-0.77629,-0.13742,-0.23686,58.03574,9.58992,-4.67399
-0.32489,1.00690,-0.44059,0.14977,0.38690,-0.15504,3.61240,0.30035,0.28452,2.14509,5.19664,-1.09423,-0.57004,-0.77644,-0.16329,-0.21337,36.14219,4.99450,9.75127
-0.32130,1.01737,-0.44452,0.17098,0.46425,-0.18026,3.16175,0.37393,0.73646,1.50310,5.32541,-0.76790,-0.55913,-0.78514,-0.17337,-0.20219,-16.58840,-2.25984,30.16023
-0.31764,1.02883,-0.44846,0.18909,0.53925,-0.20064,2.28968,0.40561,1.25544,1.24531,5.17645,-1.27012,-0.53977,-0.79931,-0.17144,-0.20091,-58.45948,-8.71764,39.00892
-0.31384,1.04081,-0.45250,0.20586,0.60601,-0.21889,1.52669,0.40949,1.68712,0.84034,4.55520,-1.69401,-0.51890,-0.81374,-0.16763,-0.20118,-59.79153,-10.48789,35.60822
-0.31009,1.05293,-0.45654,0.21838,0.66130,-0.23335,1.30444,0.39588,1.88377,0.41127,4.01230,-1.74013,-0.50456,-0.82310,-0.17273,-0.19518,-29.24199,-6.38150,19.71048
-0.30637,1.06570,-0.46052,0.22778,0.71494,-0.24384,1.76944,0.42539,1.85172,0.33843,3.20716,-0.75008,-0.49990,-0.82559,-0.19271,-0.17710,24.44820,4.44130,-0.21701
-0.30271,1.07821,-0.46413,0.23444,0.75478,-0.24699,2.14987,0.45985,1.78146,0.58509,2.45977,0.55084,-0.49642,-0.82657,-0.21265,-0.15852,34.66674,9.05287,-6.72306
-0.29917,1.09064,-0.46748,0.23811,0.78467,-0.24563,2.07113,0.41438,1.83514,0.36603,2.11073,0.78266,-0.48703,-0.83097,-0.22447,-0.14801,6.34264,-0.16432,0.28207
-0.29591,1.10353,-0.47067,0.23636,0.81387,-0.24189,1.69678,0.30997,1.95605,-0.42297,1.77816,0.43732,-0.47296,-0.83835,-0.22937,-0.14444,-22.19493,-11.31978,7.78263
-0.29330,1.11635,-0.47377,0.22516,0.83685,-0.23729,1.30238,0.20116,2.06969,-1.07850,1.13144,0.08942,-0.45757,-0.84640,-0.23191,-0.14302,-26.01355,-11.94450,7.93761
-0.29085,1.12839,-0.47688,0.21461,0.84358,-0.23436,1.20094,0.16775,2.07966,-1.38299,0.48544,-0.07425,-0.44588,-0.85173,-0.23872,-0.13699,-17.03651,-8.20188,3.80147
-0.28926,1.13987,-0.48004,0.19356,0.83992,-0.23245,1.38269,0.25302,1.95874,-1.70735,-0.59215,-0.45947,-0.43984,-0.85351,-0.25021,-0.12436,5.24284,4.02357,-5.47575
-0.28789,1.15029,-0.48346,0.17316,0.82252,-0.23499,1.76053,0.50031,1.74967,-1.53247,-1.72337,-0.19543,-0.43939,-0.85210,-0.26487,-0.10352,24.19602,20.45847,-12.61739
-0.28657,1.15992,-0.48690,0.15670,0.79770,-0.23724,1.88026,0.67791,1.61081,-1.06534,-2.77038,0.48634,-0.43718,-0.85202,-0.27491,-0.08579,18.16240,23.00582,-12.42501
-0.28547,1.16815,-0.49010,0.14045,0.75747,-0.23544,1.62498,0.69932,1.53534,-0.86822,-3.40358,0.63008,-0.43152,-0.85508,-0.27695,-0.07698,-12.61508,4.25278,-5.68253
-0.28450,1.17463,-0.49290,0.12469,0.70124,-0.22803,1.19990,0.60668,1.48870,-1.01905,-3.73739,0.43519,-0.42367,-0.86003,-0.27430,-0.07492,-28.08410,-8.57223,-1.43417
-0.28340,1.18089,-0.49565,0.11441,0.65287,-0.22160,1.04450,0.59799,1.41278,-1.05572,-4.20045,0.18926,-0.41814,-0.86282,-0.27574,-0.06838,-19.20183,-6.33744,-3.37613
-0.28274,1.18400,-0.49834,0.09938,0.56677,-0.21534,0.96407,0.70505,1.14855,-0.96130,-5.23662,0.38039,-0.41971,-0.86257,-0.27617,-0.05945,-4.15825,6.95243,-13.96205
-0.28207,1.18744,-0.50108,0.08723,0.50324,-0.21070,0.80279,0.73637,0.97288,-1.00261,-5.67095,0.74316,-0.41956,-0.86349,-0.27483,-0.05317,-9.38452,5.76107,-15.17574
-0.28177,1.18893,-0.50347,0.07213,0.42560,-0.20197,0.41763,0.63458,0.82451,-0.84623,-5.71602,0.95289,-0.41795,-0.86638,-0.26781,-0.05456,-24.56181,-5.76698,-10.08214
-0.28152,1.18869,-0.50535,0.05908,0.33631,-0.18721,-0.03942,0.46571,0.65777,-0.84614,-5.55949,0.88586,-0.41652,-0.86973,-0.25759,-0.06109,-29.82897,-12.58634,-8.79137
-0.28116,1.18879,-0.50723,0.05043,0.27066,-0.17578,-0.33516,0.35536,0.50869,-0.73466,-5.33475,0.91493,-0.41598,-0.87215,-0.24889,-0.06604,-25.52106,-10.39731,-11.04052
-0.28096,1.18770,-0.50883,0.04154,0.20189,-0.16288,-0.58776,0.27477,0.35239,-0.58385,-4.39879,0.86833,-0.41663,-0.87409,-0.23932,-0.07149,-19.69320,-7.77324,-11.93295
-0.28133,1.18606,-0.50990,0.02589,0.13815,-0.14462,-0.68899,0.23484,0.23516,-1.54535,-3.37426,1.02608,-0.41737,-0.87536,-0.23225,-0.07485,-11.54904,-7.76845,-6.78849
-0.28196,1.18521,-0.51063,0.01010,0.09894,-0.12545,-0.60275,0.25797,0.15546,-1.14555,-2.91300,1.78375,-0.41876,-0.87552,-0.22948,-0.07381,4.69013,3.94211,-7.55128
-0.28269,1.18415,-0.51070,-0.00312,0.06527,-0.10122,-0.51565,0.20920,0.12022,-0.80632,-2.79553,2.37593,-0.41885,-0.87572,-0.22843,-0.07421,8.87703,-0.75223,-4.79921
-0.28335,1.18179,-0.50944,-0.01286,0.01932,-0.06284,-0.51764,-0.04715,0.10152,-0.47355,-2.44546,2.07191,-0.41650,-0.87615,-0.22835,-0.08218,-2.94950,-16.07867,2.76357
-0.28337,1.17993,-0.50784,-0.01371,-0.01220,-0.03090,-0.21192,-0.08963,-0.00651,-0.34546,-2.44930,2.09395,-0.41940,-0.87297,-0.23556,-0.08088,19.97868,-5.52093,-7.70769
-0.28359,1.17793,-0.50665,-0.01737,-0.04718,-0.00481,0.01727,-0.13951,-0.11474,-0.22701,-2.59558,1.66811,-0.42199,-0.87031,-0.24077,-0.08072,19.39159,-3.20540,-8.34604
-0.28427,1.17408,-0.50560,-0.02093,-0.08169,0.01246,0.19516,-0.14820,-0.21486,-0.43435,-2.43305,0.86568,-0.42636,-0.86638,-0.24694,-0.08138,12.00148,-2.89252,-6.73237
-0.28479,1.17059,-0.50477,-0.02540,-0.11492,0.02187,0.36761,-0.06137,-0.32584,-0.26730,-2.35110,0.54507,-0.43202,-0.86242,-0.25205,-0.07786,13.79863,5.32476,-8.48686
-0.28535,1.16685,-0.50415,-0.02893,-0.14533,0.02622,0.34245,-0.03179,-0.35947,-0.03306,-2.21118,0.49577,-0.43533,-0.86050,-0.25307,-0.07735,3.52874,4.52314,-4.38209
-0.28581,1.16369,-0.50360,-0.03018,-0.16089,0.02848,0.25682,-0.05811,-0.35014,-0.04202,-1.91199,0.40118,-0.43687,-0.85964,-0.25278,-0.07919,-6.36053,-0.13071,-0.95901
-0.28625,1.16063,-0.50304,-0.03065,-0.17116,0.03031,0.18114,-0.07677,-0.33251,-0.02351,-1.63684,0.33209,-0.43799,-0.85909,-0.25208,-0.08112,-10.71071,-2.58587,0.90220
-0.28657,1.15427,-0.50118,-0.02970,-0.22867,0.05157,-0.22407,-0.27711,-0.33144,0.03470,-1.11549,0.42283,-0.43615,-0.86129,-0.24322,-0.09382,-6.66949,-5.57429,-3.37710
-0.28711,1.14701,-0.49918,-0.02542,-0.24170,0.05945,-0.06079,-0.21081,-0.48407,0.24623,-0.78180,0.31931,-0.44436,-0.85623,-0.24512,-0.09661,7.71097,1.25044,-9.87867
-0.28706,1.14300,-0.49788,-0.01970,-0.25065,0.06596,0.20334,-0.07642,-0.66954,0.45556,-0.54002,0.46973,-0.45440,-0.84986,-0.25044,-0.09235,21.12540,9.86866,-15.11767
-0.28682,1.13919,-0.49645,-0.01294,-0.25485,0.07304,0.43987,0.05494,-0.83821,0.61117,-0.05393,0.66650,-0.46534,-0.84279,-0.25612,-0.08699,19.10245,9.34969,-12.12140
-0.28670,1.13596,-0.49516,-0.00910,-0.25014,0.07670,0.36864,0.00977,-0.83684,0.52894,0.45936,0.59903,-0.47004,-0.83979,-0.25665,-0.08911,2.66603,1.71406,-3.96533
-0.28688,1.13342,-0.49400,-0.00987,-0.23685,0.07751,0.06429,-0.13044,-0.70729,-0.19239,1.22407,-0.06078,-0.46912,-0.84089,-0.25169,-0.09736,-20.08222,-8.81043,7.49854
-0.28750,1.13167,-0.49316,-0.01641,-0.21555,0.07319,-0.23892,-0.22902,-0.53714,-0.71440,1.84290,-0.64306,-0.46603,-0.84362,-0.24488,-0.10564,-24.51358,-7.82144,11.84445
-0.28853,1.13086,-0.49277,-0.02741,-0.18505,0.06340,-0.39872,-0.22097,-0.37930,-0.81106,2.21474,-0.93075,-0.46335,-0.84616,-0.23933,-0.10976,-12.71396,-0.43275,10.20260
-0.28956,1.13041,-0.49259,-0.03645,-0.15478,0.05284,-0.38466,-0.15145,-0.27728,-0.57829,2.34300,-0.90246,-0.46255,-0.84723,-0.23702,-0.10985,-1.09185,5.26442,7.41244
-0.29056,1.13053,-0.49265,-0.04299,-0.12257,0.04099,-0.30271,-0.05647,-0.20104,-0.43384,2.37101,-0.98289,-0.46248,-0.84778,-0.23620,-0.10767,4.79818,6.38899,6.60664
-0.29148,1.13085,-0.49291,-0.04733,-0.09447,0.02884,-0.20369,0.03521,-0.14176,-0.36337,2.38394,-1.13573,-0.46271,-0.84807,-0.23616,-0.10444,7.73186,6.99905,4.48204
-0.29232,1.13313,-0.49405,-0.05374,-0.04695,0.00606,-0.11446,0.15754,-0.01969,-0.25885,2.33764,-1.06567,-0.46118,-0.84945,-0.23642,-0.09926,5.00186,6.28624,5.51231
-0.29354,1.13416,-0.49470,-0.05761,-0.01905,-0.00616,-0.11410,0.19197,0.06890,-0.25065,2.25812,-0.86313,-0.45939,-0.85115,-0.23474,-0.09694,1.65791,3.88293,7.32341
-0.29469,1.13602,-0.49560,-0.06051,0.01216,-0.01829,-0.17067,0.18562,0.18994,-0.11237,2.12013,-0.80537,-0.45543,-0.85409,-0.23217,-0.09598,-3.59958,0.03884,8.95161
-0.29563,1.13818,-0.49642,-0.06082,0.03900,-0.02826,-0.16817,0.18425,0.26308,-0.04163,1.77983,-0.80821,-0.45231,-0.85622,-0.23100,-0.09455,-1.96793,-0.76048,6.77825
-0.29636,1.14038,-0.49733,-0.05788,0.06106,-0.03751,-0.09372,0.22016,0.27760,0.30649,1.43489,-0.69394,-0.45103,-0.85719,-0.23124,-0.09123,5.25273,2.64523,1.37611
-0.29691,1.14250,-0.49844,-0.05363,0.07846,-0.04683,-0.04339,0.24776,0.28778,0.27706,1.04259,-0.63135,-0.44976,-0.85819,-0.23124,-0.08809,3.98834,2.13503,0.83824
-0.29741,1.14452,-0.49961,-0.04945,0.09090,-0.05486,0.02216,0.27638,0.27629,0.29283,0.74710,-0.53119,-0.44918,-0.85869,-0.23181,-0.08454,4.22186,1.96972,-0.49595
-0.29777,1.14643,-0.50076,-0.04408,0.09920,-0.06094,0.07678,0.30035,0.25934,0.46972,0.42126,-0.35057,-0.44886,-0.85904,-0.23242,-0.08093,4.65915,2.51683,-1.49203
-0.29805,1.14815,-0.50193,-0.03914,0.10342,-0.06588,0.05767,0.28847,0.27011,0.46073,0.16259,-0.31298,-0.44737,-0.86018,-0.23175,-0.07902,0.83757,0.17330,0.03803
-0.29816,1.14974,-0.50319,-0.03223,0.10349,-0.07145,-0.00028,0.25786,0.28089,0.42866,-0.22348,-0.36084,-0.44547,-0.86165,-0.23016,-0.07840,-3.61612,-2.58051,1.41878
-0.29809,1.15095,-0.50440,-0.02411,0.09850,-0.07515,0.01237,0.26138,0.23332,0.57453,-0.43809,-0.28787,-0.44562,-0.86187,-0.22967,-0.07650,-0.92400,0.01791,-2.06187
-0.29772,1.15185,-0.50559,-0.01288,0.08997,-0.07775,0.07856,0.28131,0.14234,0.77207,-0.61164,-0.06099,-0.44763,-0.86087,-0.23044,-0.07363,4.82540,2.00083,-5.93372
-0.29739,1.15275,-0.50668,-0.00468,0.08300,-0.07828,0.08279,0.26671,0.09449,0.73493,-0.66746,0.08880,-0.44857,-0.86054,-0.23033,-0.07217,1.68185,0.12526,-4.75640
-0.29696,1.15353,-0.50771,0.00317,0.07595,-0.07786,0.04940,0.22597,0.05806,0.66892,-0.57931,0.04851,-0.44915,-0.86043,-0.22958,-0.07220,-2.05590,-2.75502,-3.10481
-0.29637,1.15396,-0.50847,0.01231,0.06873,-0.07750,0.02602,0.18582,0.01475,0.41732,-0.34098,-0.03751,-0.45004,-0.86004,-0.22910,-0.07285,-2.09900,-2.95817,-2.60010
-0.29595,1.15475,-0.50938,0.01761,0.06485,-0.07722,0.04106,0.17863,-0.02226,0.34228,-0.22981,0.01926,-0.45125,-0.85947,-0.22915,-0.07200,1.01360,-0.69382,-3.09318
-0.29552,1.15569,-0.51036,0.02175,0.06343,-0.07710,0.05082,0.16066,-0.04046,0.18811,0.10335,-0.05993,-0.45207,-0.85905,-0.22931,-0.07136,0.71212,-1.12645,-1.49009
-0.29535,1.15666,-0.51118,0.02189,0.06694,-0.07859,0.02683,0.14718,-0.01241,-0.05217,0.28214,-0.06598,-0.45162,-0.85945,-0.22879,-0.07106,-1.06484,-0.35864,1.30423
-0.29528,1.15776,-0.51202,0.02032,0.07181,-0.07976,-0.00149,0.13549,0.02899,-0.15559,0.51194,-0.12753,-0.45072,-0.86012,-0.22811,-0.07074,-3.00602,-1.68551,3.43571
-0.29506,1.15970,-0.51343,0.01890,0.08080,-0.08043,0.00492,0.13375,0.06937,-0.10940,0.78278,-0.05045,-0.44973,-0.86083,-0.22783,-0.06936,-0.15617,0.02688,2.76566
-0.29489,1.16264,-0.51525,0.01608,0.09504,-0.08052,0.03772,0.12970,0.12528,-0.19039,0.97287,0.03929,-0.44781,-0.86186,-0.22841,-0.06701,2.37128,-0.10777,3.67877
-0.29486,1.16491,-0.51632,0.01413,0.10732,-0.08009,0.07663,0.11468,0.17566,-0.08818,1.06955,0.00185,-0.44577,-0.86268,-0.22978,-0.06535,2.84320,-1.05986,3.92212
-0.29465,1.16752,-0.51742,0.01501,0.12221,-0.08014,0.13548,0.11485,0.21873,0.21069,1.06229,-0.03768,-0.44377,-0.86335,-0.23182,-0.06288,4.02460,-0.60079,3.44130
-0.29410,1.17044,-0.51859,0.02121,0.13801,-0.08135,0.18250,0.11555,0.23824,0.69386,1.19542,-0.10194,-0.44222,-0.86377,-0.23384,-0.06051,3.94786,0.16400,2.03595
-0.29306,1.17362,-0.51977,0.03292,0.15443,-0.08235,0.21669,0.10075,0.25082,1.31831,1.51523,-0.01110,-0.44062,-0.86414,-0.23598,-0.05865,2.90270,-0.15517,0.82583
-0.29111,1.17751,-0.52086,0.05461,0.17783,-0.08171,0.22529,0.02752,0.26032,1.87454,1.83095,0.18406,-0.43849,-0.86449,-0.23854,-0.05896,1.75735,-3.89683,0.87032
-0.28843,1.18219,-0.52186,0.08214,0.20792,-0.08024,0.19827,-0.10477,0.26592,2.10269,2.47702,0.11150,-0.43574,-0.86492,-0.24120,-0.06212,-1.65457,-8.74483,-0.08421
-0.28512,1.18834,-0.52288,0.11331,0.25304,-0.07949,0.20697,-0.26024,0.27604,1.78862,3.30044,-0.20268,-0.43244,-0.86507,-0.24549,-0.06626,-0.73600,-10.52802,0.88091
-0.28203,1.19491,-0.52411,0.13490,0.29603,-0.08136,0.36509,-0.27269,0.23241,1.50356,4.22558,-0.56585,-0.43194,-0.86338,-0.25250,-0.06510,6.72973,-5.49203,-1.34881
-0.27849,1.20371,-0.52537,0.15906,0.36039,-0.08350,0.76134,-0.10590,0.11291,1.60988,5.37883,-0.12819,-0.43611,-0.85827,-0.26488,-0.05495,25.16580,9.29090,-6.00937
-0.27461,1.21481,-0.52602,0.18329,0.44434,-0.07657,1.18059,0.08225,-0.03059,1.76709,6.89374,1.23475,-0.44236,-0.85118,-0.27939,-0.04182,32.56076,16.08963,-9.76976
-0.27081,1.23165,-0.52471,0.20167,0.59702,-0.04235,1.43248,0.07861,-0.02296,0.57507,9.96856,3.02843,-0.44336,-0.84616,-0.29379,-0.03352,17.99372,3.33513,-1.06177
-0.26880,1.24932,-0.52279,0.19151,0.73220,-0.00618,1.35067,-0.16823,0.36694,-1.01161,12.39682,3.55706,-0.43030,-0.84928,-0.30403,-0.03362,-0.57875,-15.81224,16.25563
-0.26902,1.27427,-0.51918,0.15110,0.94443,0.04683,1.09352,-0.65423,1.20366,-3.28118,14.06338,3.07472,-0.39821,-0.86111,-0.31354,-0.04021,-17.80656,-36.54814,49.37202
-0.27015,1.29900,-0.51592,0.10448,1.11194,0.08437,1.10250,-0.90944,1.79620,-4.92354,14.54229,2.49726,-0.36928,-0.86904,-0.32676,-0.04029,-9.19774,-33.57412,49.25527
-0.27344,1.32825,-0.51191,0.03784,1.30729,0.12485,1.66576,-0.79210,2.29885,-5.66516,14.32178,2.17700,-0.34258,-0.87100,-0.35144,-0.02232,25.62587,-2.32248,42.29108
-0.27824,1.35958,-0.50740,-0.03705,1.49198,0.16435,2.49774,-0.37965,2.67007,-5.78508,12.41115,3.01560,-0.32003,-0.86664,-0.38262,0.01065,53.87495,33.30113,34.91145
-0.28468,1.39177,-0.50223,-0.12069,1.65318,0.20529,3.05925,-0.06172,3.06732,-5.92365,10.24623,3.44222,-0.29366,-0.86230,-0.41032,0.04291,42.68681,31.37010,33.41309
-0.29266,1.42416,-0.49654,-0.20958,1.78555,0.24584,3.19590,0.01010,3.47746,-6.33061,8.02850,3.16981,-0.26191,-0.86125,-0.43040,0.06645,14.94311,6.77248,31.77700
-0.30206,1.45641,-0.49056,-0.30050,1.88814,0.28196,3.02763,-0.09986,3.84218,-6.51350,6.17500,2.60038,-0.22666,-0.86318,-0.44365,0.08198,-5.15240,-13.43335,25.78092
-0.31350,1.48881,-0.48407,-0.40403,1.97394,0.31901,2.77286,-0.25713,4.15712,-6.65677,4.55840,2.22169,-0.18982,-0.86583,-0.45319,0.09443,-13.22947,-19.07461,17.79564
-0.32544,1.52007,-0.47744,-0.49490,2.02655,0.35097,2.66569,-0.27955,4.34236,-6.85548,3.22410,2.20969,-0.15614,-0.86507,-0.46382,0.11020,-7.74266,-10.78565,13.28279
-0.33800,1.55058,-0.47044,-0.57568,2.05872,0.38154,2.68813,-0.16637,4.46625,-7.09939,2.32059,2.68184,-0.12468,-0.86093,-0.47561,0.13056,-3.71489,2.99426,11.23721
-0.35310,1.58081,-0.46216,-0.67545,2.07888,0.42370,2.76380,-0.03007,4.62043,-7.23565,0.69313,3.31143,-0.09171,-0.85441,-0.48781,0.15364,2.32837,9.93021,13.22573
-0.36970,1.60992,-0.45298,-0.77656,2.07977,0.47059,2.80744,0.05664,4.75152,-7.18725,-0.67572,3.57226,-0.05816,-0.84668,-0.49888,0.17571,1.90578,6.30725,11.15649
-0.38839,1.63746,-0.44239,-0.88921,2.05892,0.52912,2.78347,0.00192,4.85321,-6.73108,-2.10786,3.98907,-0.02312,-0.83893,-0.50820,0.19340,-0.18603,-2.02738,6.63430
-0.40637,1.66412,-0.43185,-0.96938,2.02899,0.57509,2.75382,-0.13446,4.89253,-6.61588,-2.99116,3.87253,0.01232,-0.83033,-0.51715,0.20728,1.63578,-12.40559,1.84973
-0.42616,1.68899,-0.42008,-1.05871,1.98099,0.62935,2.74553,-0.22527,4.91747,-6.45550,-3.95009,3.92454,0.04729,-0.82014,-0.52553,0.22127,1.56665,-8.65150,-0.17939
-0.44771,1.71152,-0.40693,-1.15639,1.90801,0.69317,2.80056,-0.25418,4.94678,-5.98906,-5.05842,4.04835,0.08207,-0.80723,-0.53449,0.23657,3.20349,-1.80532,1.27334
-0.46918,1.73284,-0.39349,-1.23467,1.83129,0.74868,2.89406,-0.23801,4.96414,-5.39488,-5.99995,3.87440,0.11620,-0.79175,-0.54388,0.25264,5.12413,3.08757,2.13578
-0.49056,1.75293,-0.38018,-1.29626,1.75496,0.79109,2.94095,-0.21938,4.97013,-5.00565,-6.93225,3.25149,0.14951,-0.77549,-0.55168,0.26817,5.46562,2.93609,1.36974
-0.51369,1.76914,-0.36609,-1.37053,1.63805,0.83604,2.91262,-0.21824,4.95759,-4.27804,-8.05120,2.40772,0.18189,-0.75944,-0.55700,0.28269,-0.65280,1.24244,0.07611
-0.53674,1.78414,-0.35246,-1.42714,1.52334,0.86374,2.82186,-0.38939,4.89947,-3.47640,-8.63548,1.79018,0.21543,-0.74514,-0.55984,0.29145,-3.05879,-8.69682,-4.55766
-0.55985,1.79699,-0.33900,-1.47401,1.40180,0.88398,2.72901,-0.74814,4.76605,-2.82119,-9.02401,1.36885,0.25018,-0.73267,-0.56142,0.29226,1.06575,-21.88829,-12.63761
-0.58276,1.80768,-0.32554,-1.50896,1.27431,0.90059,2.70338,-1.16037,4.56298,-2.08029,-9.32886,1.12369,0.28478,-0.72014,-0.56367,0.28738,7.72076,-25.90602,-18.88216
-0.60541,1.81642,-0.31178,-1.53125,1.14290,0.91631,2.73954,-1.48724,4.35500,-1.25520,-9.69027,1.02020,0.31851,-0.70594,-0.56674,0.28109,10.83840,-21.14532,-19.50029
-0.62733,1.82418,-0.29792,-1.53922,1.02639,0.93079,2.84160,-1.65379,4.15996,-0.43561,-9.44408,1.29638,0.34991,-0.68899,-0.57161,0.27590,11.68719,-9.83671,-17.09427
-0.64877,1.82798,-0.28330,-1.53820,0.87742,0.95267,3.01103,-1.70341,3.88784,0.24946,-9.33571,1.20632,0.37720,-0.67003,-0.57979,0.26949,14.14215,-0.14864,-16.89428
-0.66984,1.83109,-0.26833,-1.52785,0.74602,0.97162,3.10940,-1.42524,3.76085,0.69007,-9.58888,0.87521,0.40019,-0.64752,-0.58827,0.27296,6.19125,18.83806,-7.87770
-0.69050,1.83336,-0.25372,-1.51586,0.63171,0.98323,3.09186,-1.05806,3.78078,0.98087,-9.68575,0.45522,0.42179,-0.62369,-0.59411,0.28308,-6.92708,27.26495,4.24683
-0.71018,1.83113,-0.23989,-1.49531,0.47650,0.98466,2.91095,-0.56566,3.93923,1.35306,-9.81011,-0.41314,0.44068,-0.59905,-0.59629,0.30230,-19.04768,25.75560,13.92757
-0.72950,1.82835,-0.22710,-1.47533,0.34229,0.97405,2.70155,-0.28392,4.10886,1.64463,-9.44317,-0.75562,0.46169,-0.57517,-0.59475,0.31982,-21.84101,15.39113,17.32544
-0.74845,1.82508,-0.21468,-1.45452,0.22900,0.96013,2.59049,-0.15052,4.17875,2.08646,-9.51782,-1.09611,0.48285,-0.55116,-0.59354,0.33285,-15.77598,7.45194,10.26084
-0.76618,1.81753,-0.20321,-1.42022,0.07668,0.93472,2.58191,-0.08402,4.19546,2.49377,-9.49952,-1.82124,0.50404,-0.52573,-0.59340,0.34266,-3.05284,4.41602,2.82201
-0.78354,1.80966,-0.19229,-1.38454,-0.05282,0.90425,2.59737,-0.07533,4.14217,2.79361,-9.24756,-2.50355,0.52460,-0.50064,-0.59336,0.34939,1.26302,1.55065,-2.91775
-0.79975,1.79923,-0.18277,-1.33981,-0.19506,0.85938,2.59356,-0.07481,4.08022,2.88183,-8.78844,-3.33463,0.54416,-0.47584,-0.59254,0.35547,0.13072,1.11769,-3.87067
-0.81593,1.78951,-0.17385,-1.30441,-0.29699,0.81538,2.53097,-0.12019,4.04940,3.09077,-8.41874,-4.19142,0.56382,-0.45208,-0.58906,0.36158,-1.87567,-2.08601,-3.62820
-0.83149,1.77852,-0.16612,-1.26709,-0.39360,0.76384,2.41989,-0.20052,4.02034,3.18006,-7.89426,-4.62441,0.58321,-0.42979,-0.58314,0.36754,-5.86033,-7.37021,-3.83369
-0.84565,1.76463,-0.16080,-1.21790,-0.51206,0.68868,2.25097,-0.40061,3.96549,3.17079,-7.07465,-4.81492,0.60341,-0.41116,-0.57333,0.37166,-7.88278,-13.24595,-5.11749
-0.85951,1.75092,-0.15601,-1.17419,-0.60646,0.62037,2.18970,-0.62777,3.82768,3.39139,-6.47731,-4.85134,0.62373,-0.39325,-0.56435,0.37125,-0.83231,-15.91678,-10.67409
-0.87261,1.73641,-0.15216,-1.12723,-0.69275,0.55169,2.18961,-0.81669,3.63547,3.49843,-5.93796,-4.95990,0.64310,-0.37570,-0.55663,0.36801,4.19621,-11.25786,-15.37878
-0.88439,1.72064,-0.14984,-1.07043,-0.78129,0.47408,2.18041,-1.01610,3.42469,3.61859,-5.25615,-4.83581,0.66202,-0.35991,-0.54810,0.36301,3.07663,-9.95979,-15.19884
-0.89621,1.70563,-0.14720,-1.02627,-0.84137,0.41687,2.18588,-1.13894,3.26711,3.85989,-4.85288,-4.77913,0.68006,-0.34307,-0.53979,0.35840,3.50543,-9.12022,-13.94228
-0.90648,1.68930,-0.14621,-0.96834,-0.90678,0.34792,2.23567,-1.25115,3.09294,4.45156,-4.59414,-5.14266,0.69786,-0.32633,-0.53197,0.35143,4.77407,-5.19000,-14.04969
-0.91526,1.67230,-0.14685,-0.90105,-0.96880,0.26965,2.37982,-1.34391,2.96389,5.10968,-4.28181,-5.97699,0.71645,-0.30710,-0.52480,0.34201,11.14096,-2.34556,-10.56156
-0.92171,1.65463,-0.15006,-0.81333,-1.02928,0.16909,2.55858,-1.45061,2.88305,5.76042,-3.33527,-6.64469,0.73590,-0.28630,-0.51676,0.33083,13.67676,-2.92307,-5.64114
-0.92650,1.63736,-0.15469,-0.71590,-1.07241,0.06533,2.58243,-1.57721,2.91085,6.31981,-2.21149,-6.69666,0.75516,-0.26577,-0.50459,0.32324,5.87148,-6.47280,-0.76357
-0.93121,1.62101,-0.15889,-0.63778,-1.09322,-0.01049,2.50671,-1.67868,2.97491,6.73110,-1.35321,-6.31817,0.77315,-0.24585,-0.49028,0.31847,-3.27468,-10.18737,2.36458
-0.93435,1.60510,-0.16414,-0.55538,-1.10364,-0.08398,2.43695,-1.76428,3.02310,7.15340,-0.37287,-5.99923,0.79035,-0.22604,-0.47523,0.31370,-5.21609,-10.22902,2.71150
-0.93410,1.59007,-0.17172,-0.44024,-1.09780,-0.17602,2.38081,-1.82895,3.05413,7.32664,1.18246,-5.51645,0.80677,-0.20599,-0.45985,0.30858,-2.03906,-6.08267,1.01111
-0.93341,1.57654,-0.17913,-0.34073,-1.07194,-0.24818,2.28309,-1.90293,3.03130,7.08129,2.50069,-4.96152,0.82187,-0.18817,-0.44378,0.30363,-4.32627,-4.79922,-2.05873
-0.93155,1.56446,-0.18673,-0.24476,-1.03078,-0.30859,2.11877,-1.97225,2.95511,6.88971,3.48471,-3.86225,0.83526,-0.17340,-0.42707,0.29982,-8.93278,-8.18033,-6.33891
-0.92940,1.55320,-0.19406,-0.16486,-0.98577,-0.35179,2.04376,-1.97171,2.84437,6.63198,4.11216,-3.17322,0.84747,-0.15830,-0.41259,0.29413,-7.93704,-2.43772,-9.79256
-0.92444,1.54439,-0.20233,-0.06082,-0.91507,-0.40011,2.04107,-1.87786,2.66036,6.64932,4.87134,-2.73859,0.85776,-0.14392,-0.40213,0.28606,-0.33894,6.33324,-10.91940
-0.91875,1.53672,-0.21047,0.03443,-0.84160,-0.43767,2.03310,-1.76817,2.55337,6.97537,5.65328,-2.70399,0.86730,-0.12808,-0.39196,0.27885,0.08814,9.83729,-7.92712
-0.91137,1.53089,-0.21891,0.13464,-0.75541,-0.47148,1.92316,-1.70724,2.54231,7.25525,6.68040,-2.43887,0.87626,-0.11189,-0.37931,0.27527,-6.63296,4.83416,-2.66122
-0.90254,1.52734,-0.22740,0.23560,-0.65401,-0.49917,1.70627,-1.73804,2.60412,7.03521,7.77566,-1.83751,0.88494,-0.09633,-0.36270,0.27579,-13.05593,-3.05590,1.11092
-0.89193,1.52746,-0.23561,0.34343,-0.51811,-0.51781,1.38072,-1.84077,2.70260,6.46390,9.39119,-0.67549,0.89286,-0.08213,-0.34239,0.28076,-19.00913,-10.92860,3.26282
-0.88163,1.52951,-0.24307,0.42536,-0.37925,-0.52097,1.10949,-1.92638,2.70746,5.44191,10.78930,0.32674,0.89993,-0.06993,-0.32252,0.28500,-19.28636,-10.98712,-1.03001
-0.87095,1.53620,-0.24989,0.49668,-0.19784,-0.51431,1.07783,-1.98198,2.56870,3.68368,12.32730,1.05715,0.90753,-0.05922,-0.30521,0.28235,-4.48128,-2.66414,-7.81310
-0.86146,1.54522,-0.25554,0.53622,-0.01672,-0.49108,0.89283,-1.79514,2.26250,2.03875,13.93190,2.28429,0.91080,-0.05386,-0.29597,0.28276,-8.13262,8.84682,-19.76664
-0.85318,1.55774,-0.25974,0.54776,0.17908,-0.44995,0.55271,-1.49974,1.78291,-0.17362,14.59139,3.35825,0.91046,-0.05612,-0.29275,0.28671,-18.71188,17.54004,-30.94683
-0.84690,1.57320,-0.26270,0.52653,0.37769,-0.39925,0.23749,-1.30559,1.15676,-2.43381,14.42158,3.74586,0.90949,-0.06655,-0.29093,0.28943,-19.08654,15.58421,-43.96964
-0.84199,1.58979,-0.26508,0.49018,0.54871,-0.35157,-0.06853,-1.21670,0.53223,-3.40284,14.58550,3.93917,0.90806,-0.08243,-0.28840,0.29234,-21.29387,7.64149,-52.28216
-0.83894,1.61294,-0.26595,0.43314,0.78241,-0.29085,-0.42744,-1.08331,-0.35115,-3.56946,14.91732,3.69360,0.90340,-0.11056,-0.29102,0.29487,-18.67607,6.61002,-56.74833
-0.83586,1.63732,-0.26689,0.38831,0.98858,-0.24351,-0.71536,-1.00322,-1.11258,-2.77653,14.83199,3.05479,0.89796,-0.14040,-0.29315,0.29668,-16.71799,6.00389,-56.87040
-0.83211,1.66288,-0.26804,0.36384,1.16670,-0.20993,-0.93970,-0.96050,-1.71254,-1.31651,15.06123,2.59372,0.89177,-0.17055,-0.29449,0.29821,-15.12167,2.11149,-53.58747
-0.82717,1.69360,-0.26879,0.36230,1.38059,-0.17775,-1.19274,-0.88527,-2.35355,1.01313,15.74421,2.12037,0.88237,-0.20620,-0.29802,0.30016,-14.76626,3.23118,-47.62137
-0.81946,1.72993,-0.26937,0.40330,1.63773,-0.14955,-1.47140,-0.73387,-2.99382,4.00276,16.66164,1.52912,0.86910,-0.24503,-0.30459,0.30308,-13.41720,8.00632,-42.52671
-0.81016,1.76603,-0.27036,0.45872,1.83738,-0.13322,-1.71733,-0.61405,-3.44791,5.15582,16.79592,1.14091,0.85445,-0.28207,-0.31004,0.30697,-13.37712,10.40204,-39.67726
-0.79831,1.80743,-0.27098,0.53993,2.07118,-0.11492,-2.13906,-0.50711,-4.08393,7.09777,17.07946,1.21978,0.83267,-0.32889,-0.31614,0.31393,-23.73932,7.21364,-45.33760
-0.78280,1.85219,-0.27160,0.65891,2.30728,-0.10069,-2.62716,-0.31744,-4.71788,9.94708,16.75695,0.67294,0.80406,-0.37887,-0.32421,0.32377,-28.77854,14.23619,-49.78036
-0.76315,1.89963,-0.27292,0.81363,2.53168,-0.09987,-3.02266,-0.26726,-5.30872,12.16395,15.13711,-0.77045,0.77215,-0.43117,-0.32897,0.33114,-29.28404,15.53048,-48.50483
-0.73905,1.94894,-0.27451,1.00251,2.73890,-0.10254,-3.69522,0.22728,-5.88842,15.55152,15.44312,-0.30292,0.72642,-0.48307,-0.34160,0.34967,-31.90948,18.09329,-37.61536
-0.70758,2.00229,-0.27768,1.26570,2.96716,-0.12907,-4.13613,0.70176,-7.04303,17.90243,13.20589,-2.55745,0.66583,-0.54729,-0.36120,0.35591,-15.17260,14.53267,-78.32523
-0.67480,2.05346,-0.28183,1.49190,3.11259,-0.16440,-4.41657,1.06231,-7.98132,20.61802,11.44536,-3.23772,0.59996,-0.60728,-0.37844,0.35783,-23.40312,20.31717,-80.52544
-0.62955,2.10716,-0.28888,1.85856,3.26627,-0.23592,-4.50096,1.59012,-9.39750,26.02995,8.10652,-5.34614,0.51400,-0.67119,-0.40570,0.34745,-3.30397,7.92240,-91.84597
-0.57787,2.15809,-0.29812,2.25129,3.34947,-0.32674,-4.45611,1.97802,-10.87425,31.20303,3.76082,-7.70609,0.41576,-0.73128,-0.43168,0.32562,-1.93600,-3.41948,-105.36710
-0.51625,2.20501,-0.31070,2.70983,3.35179,-0.44861,-4.37973,2.23144,-12.28944,32.89428,-4.55742,-9.19959,0.30560,-0.78425,-0.45290,0.29400,-16.54959,-16.93690,-116.81050
-0.44210,2.24481,-0.32815,3.25495,3.22904,-0.60719,-4.42780,2.49587,-13.79240,43.95042,-15.38495,-13.85172,0.17814,-0.82715,-0.46797,0.25513,-5.02722,-9.72180,-91.84163
-0.35394,2.27026,-0.35198,3.89442,2.91980,-0.82564,-4.93654,2.56086,-15.61624,46.84343,-30.81128,-17.72031,0.02596,-0.86221,-0.46284,0.20423,-46.16814,2.61325,-125.26380
-0.26234,2.28051,-0.37846,4.44221,2.46049,-1.03800,-5.47482,2.78922,-16.84772,45.45516,-47.45369,-18.86682,-0.12641,-0.87307,-0.44394,0.15714,-40.46531,28.76443,-109.76220
-0.16148,2.25960,-0.41032,5.00747,1.64698,-1.29249,-5.77034,2.64396,-18.08873,35.63414,-69.34698,-16.82006,-0.27755,-0.86222,-0.41371,0.09159,-47.20761,17.46832,-88.89404
-0.06696,2.20606,-0.44258,5.36409,0.52509,-1.50044,-5.78674,2.11350,-18.87851,13.72274,-89.79364,-11.96931,-0.40782,-0.83126,-0.37744,0.01513,-58.91513,-19.09524,-52.41444
0.00657,2.12440,-0.46992,5.34178,-0.77459,-1.59321,-5.68352,2.40102,-18.45641,-19.48948,-90.32312,-1.79623,-0.51243,-0.78815,-0.34005,-0.02463,-19.24861,2.74560,-5.23399
0.05236,2.03282,-0.48820,4.91824,-1.94525,-1.53109,-4.56017,3.50320,-17.03753,-40.65781,-72.15726,9.51461,-0.59208,-0.73545,-0.32894,-0.01877,132.50720,-17.67829,50.96040
0.07518,1.94810,-0.49891,4.25333,-2.77661,-1.37379,-3.14292,3.20857,-15.11118,-50.01328,-47.47961,13.52972,-0.63211,-0.69694,-0.33753,-0.02800,93.45119,-86.43486,112.31940
0.08602,1.87384,-0.50659,3.55372,-3.29170,-1.20737,-2.16861,2.41846,-13.33693,-49.47240,-28.64846,10.33853,-0.65804,-0.66710,-0.34585,-0.04843,21.20067,-95.81432,139.87140
0.09229,1.80731,-0.51538,2.92528,-3.59005,-1.09080,-1.53844,2.43403,-11.92879,-43.27209,-16.65866,6.54878,-0.69218,-0.63386,-0.34131,-0.05117,44.56823,-43.68637,103.04380
0.09073,1.74513,-0.52455,2.30517,-3.77138,-1.00292,-1.22354,2.64408,-10.61381,-35.31926,-7.35277,5.47104,-0.72392,-0.60537,-0.32740,-0.04781,43.63986,-5.93315,75.87220
0.09368,1.68972,-0.53295,1.87039,-3.81251,-0.91876,-1.09672,2.63744,-9.58351,-27.78378,0.72846,7.23203,-0.75305,-0.57750,-0.31108,-0.05152,21.96606,-0.51722,75.48233
0.09984,1.63911,-0.53916,1.57782,-3.77342,-0.82092,-0.77032,2.66839,-8.87755,-20.49015,6.46978,8.89747,-0.78309,-0.54325,-0.29833,-0.05153,27.56284,-6.52855,55.06792
0.10361,1.59576,-0.53947,1.31393,-3.64015,-0.65696,-0.02045,1.95893,-7.70971,-11.39223,10.50807,10.83707,-0.79328,-0.51945,-0.31351,-0.05084,27.42228,-52.71189,65.05713
0.11318,1.55741,-0.53723,1.18395,-3.45219,-0.48477,1.11265,0.96895,-5.67510,-5.11019,12.61574,10.27923,-0.78067,-0.51575,-0.35117,-0.03506,38.67291,-90.54065,94.62286
0.12481,1.51725,-0.53560,1.10947,-3.33128,-0.35776,1.52918,0.34939,-4.59746,-6.82505,8.42837,11.48580,-0.77772,-0.50447,-0.37384,-0.03009,45.93288,-85.43937,120.52050
0.13261,1.47983,-0.52855,0.99311,-3.19600,-0.17607,1.10066,-0.63189,-3.05358,-8.32021,6.58168,11.69942,-0.75676,-0.51946,-0.39442,-0.04365,-32.72324,-65.36213,90.55350
0.13974,1.44011,-0.52249,0.89143,-3.12431,-0.04755,0.25901,-1.20173,-2.04296,-9.42378,4.37296,10.60217,-0.74084,-0.53545,-0.39992,-0.06724,-72.40838,-46.34729,87.79577
0.14127,1.40041,-0.51320,0.72561,-3.06824,0.10220,-1.51944,-1.75705,-1.11099,-12.27185,2.33956,8.56379,-0.71778,-0.56716,-0.38648,-0.11733,-115.54150,-23.09227,53.60925
0.14297,1.35906,-0.50684,0.60039,-3.04983,0.17557,-2.61011,-1.95345,-0.82293,-13.85225,1.96332,6.20658,-0.70420,-0.58326,-0.37139,-0.16121,-126.71150,-13.51179,29.88522
0.13655,1.31728,-0.49956,0.38315,-3.03908,0.24530,-3.66617,-1.91471,-0.85435,-14.68085,1.05520,2.60576,-0.69481,-0.59470,-0.34589,-0.20960,-75.07401,0.88038,-5.60202
0.12795,1.27539,-0.49445,0.17565,-3.03357,0.27023,-4.39864,-1.60439,-1.04292,-15.47216,0.51836,0.79724,-0.69098,-0.60032,-0.31514,-0.25071,-50.26791,15.79295,-24.00825
0.12011,1.23342,-0.49044,0.02707,-3.03157,0.27399,-4.77663,-1.26417,-1.29577,-15.09614,0.47718,-0.03786,-0.69014,-0.60077,-0.28470,-0.28590,-41.70107,24.21544,-32.33746
0.10275,1.19189,-0.48622,-0.22843,-3.02018,0.27986,-5.10306,-0.64917,-1.87276,-13.41851,1.72032,0.58644,-0.69880,-0.59298,-0.24198,-0.31861,-15.54640,24.41760,-45.51607
0.08797,1.15195,-0.48106,-0.40035,-2.98892,0.29864,-4.99190,-0.36344,-2.24688,-11.10277,3.30325,1.45727,-0.70488,-0.58234,-0.21246,-0.34480,5.05431,12.24189,-34.33970
0.07193,1.11514,-0.47439,-0.55772,-2.91775,0.33696,-4.31474,-0.31471,-2.50802,-8.49290,6.69185,2.38745,-0.71382,-0.56652,-0.19894,-0.36047,34.83078,-5.05277,-20.50975
0.05655,1.08179,-0.46693,-0.67477,-2.80568,0.37916,-3.27573,-0.50487,-2.43300,-7.61631,9.64182,2.80091,-0.72087,-0.55203,-0.20302,-0.36660,65.96922,-21.44465,5.82029
0.04060,1.05232,-0.45904,-0.77598,-2.66018,0.41925,-2.31337,-0.72068,-2.13027,-6.77737,10.68356,3.15596,-0.72478,-0.54161,-0.21395,-0.36821,73.22811,-25.75512,25.47449
0.02504,1.02408,-0.45144,-0.84865,-2.53043,0.44596,-1.83704,-0.76451,-1.85348,-5.84525,10.29556,2.16368,-0.72589,-0.53548,-0.21685,-0.37325,45.44147,-11.67307,31.35944
0.00775,1.00048,-0.44395,-0.93372,-2.35628,0.46596,-1.95425,-0.47449,-1.51625,-5.69013,10.86534,1.68470,-0.72208,-0.53906,-0.20408,-0.38258,6.41471,16.07051,18.63464
-0.00977,0.97866,-0.43699,-1.00604,-2.19151,0.47435,-2.37849,-0.10096,-1.17684,-4.86167,11.79856,0.25994,-0.71357,-0.54804,-0.18206,-0.39663,-28.04462,32.32572,17.30572
-0.02712,0.95742,-0.43069,-1.05705,-2.05254,0.46999,-2.88854,0.34734,-0.90581,-3.78724,11.32020,-0.59626,-0.70282,-0.55967,-0.15277,-0.41168,-35.64839,39.53987,17.55910
-0.04472,0.94073,-0.42559,-1.10212,-1.87566,0.44884,-3.45225,1.04902,-0.54169,-2.57194,11.12185,-2.05798,-0.68800,-0.57905,-0.11366,-0.42242,-35.73081,49.21836,14.04370
-0.06283,0.92485,-0.42157,-1.14702,-1.72193,0.41565,-3.88185,1.72156,-0.22450,-4.10232,10.91803,-2.65862,-0.67188,-0.59896,-0.07294,-0.42954,-26.14035,52.07696,12.61880
-0.08281,0.91025,-0.41844,-1.20779,-1.57986,0.37553,-4.19900,2.34421,-0.01048,-4.39474,9.72206,-3.44211,-0.65507,-0.61787,-0.02974,-0.43387,-27.58062,51.84332,8.54075
-0.10289,0.89534,-0.41538,-1.25625,-1.47446,0.34332,-4.06924,2.68403,0.06428,-3.76243,8.65126,-3.24669,-0.64405,-0.63091,0.00367,-0.43260,-3.15576,37.29604,-1.50152
-0.12381,0.88242,-0.41267,-1.30721,-1.36391,0.31325,-3.51231,2.80402,0.07864,-3.36221,7.74862,-2.41706,-0.64019,-0.63999,0.02477,-0.42421,31.77520,13.39739,-7.82563
-0.14483,0.87016,-0.40976,-1.34756,-1.26501,0.29198,-2.56953,2.68442,0.03171,-2.30120,6.82593,-1.68920,-0.64473,-0.64468,0.03128,-0.40956,58.08055,-4.57612,-12.14669
-0.16542,0.85878,-0.40632,-1.37413,-1.17397,0.28273,-1.41525,2.38610,-0.09213,-1.55501,6.64791,-0.35255,-0.65690,-0.64456,0.02542,-0.39036,79.22562,-22.11316,-19.72272
-0.18566,0.84818,-0.40242,-1.39061,-1.09158,0.28234,-0.58457,2.14082,-0.19677,-1.25127,7.09307,0.85626,-0.66766,-0.64408,0.02068,-0.37277,76.72142,-24.55231,-21.03197
-0.20619,0.84211,-0.39745,-1.40602,-0.95776,0.29749,0.01152,1.87020,-0.32056,-0.04224,7.52509,1.74432,-0.67789,-0.64186,0.01623,-0.35807,34.05909,-15.38139,-11.47908
-0.22525,0.83481,-0.39201,-1.39726,-0.86857,0.31621,0.22124,1.80975,-0.50925,1.92756,7.46257,1.87301,-0.68578,-0.63976,0.02240,-0.34628,16.77466,-11.17412,-12.90341
-0.24175,0.83011,-0.38526,-1.35355,-0.76138,0.35010,0.03856,1.29401,-0.46411,4.12688,7.65337,3.36478,-0.68560,-0.63652,0.02241,-0.35255,1.69547,-35.95066,-4.02165
-0.25626,0.82706,-0.37871,-1.28852,-0.65133,0.37383,-0.71286,1.27265,-0.24861,5.59226,7.68659,1.38422,-0.67316,-0.64210,0.04241,-0.36437,-47.33436,-7.01012,17.16429
-0.26855,0.82511,-0.37332,-1.20418,-0.54844,0.37539,-1.35505,1.46334,0.01893,6.42690,7.08726,-1.04849,-0.65717,-0.65180,0.06722,-0.37251,-50.81767,13.15883,23.87180
-0.27959,0.82389,-0.36927,-1.11939,-0.45596,0.35741,-1.78273,1.73364,0.22652,5.47349,6.38041,-1.63724,-0.64173,-0.66215,0.09286,-0.37565,-28.53566,19.32746,17.49216
-0.28979,0.82387,-0.36632,-1.03783,-0.36395,0.32687,-2.22465,2.05819,0.40758,5.03038,5.19756,-2.35554,-0.62361,-0.67304,0.12288,-0.37818,-29.60286,23.31713,13.50524
-0.29957,0.82320,-0.36359,-0.96488,-0.29969,0.29878,-2.29623,2.12991,0.46591,5.43574,4.29047,-2.67858,-0.61126,-0.68004,0.14370,-0.37848,-12.41741,11.31448,6.19926
-0.30865,0.82235,-0.36101,-0.89854,-0.25181,0.27477,-2.10425,2.01735,0.47056,5.50204,3.79412,-2.21533,-0.60380,-0.68481,0.15570,-0.37712,11.08516,-4.99744,0.04042
-0.31623,0.82226,-0.35898,-0.82565,-0.20362,0.24882,-1.83837,1.78421,0.47041,5.16111,3.06895,-1.93615,-0.59858,-0.68820,0.16187,-0.37666,18.71293,-14.20469,-0.09118
-0.32217,0.82229,-0.35738,-0.74028,-0.16345,0.22124,-1.33124,1.37450,0.39154,5.51621,2.05251,-2.01181,-0.60001,-0.68874,0.15795,-0.37508,28.76514,-23.12007,-3.65273
-0.32795,0.82163,-0.35559,-0.67236,-0.14077,0.20231,-0.83591,0.97488,0.24839,5.69746,1.92816,-1.45513,-0.60504,-0.68702,0.15117,-0.37293,40.76778,-31.21744,-11.79556
-0.33212,0.82162,-0.35412,-0.59556,-0.11349,0.18294,-0.44879,0.53825,0.12470,5.53951,1.97343,-0.99111,-0.61091,-0.68346,0.14178,-0.37360,33.54275,-33.18166,-9.89781
-0.33522,0.82210,-0.35310,-0.51871,-0.08479,0.16102,-0.24377,0.19920,0.05039,5.77596,2.23066,-1.75355,-0.61467,-0.67996,0.13476,-0.37640,15.73466,-26.27081,-6.53146
-0.33718,0.82341,-0.35302,-0.44192,-0.04955,0.12965,-0.11994,0.00276,0.04413,5.45425,2.75441,-2.33780,-0.61632,-0.67831,0.12951,-0.37853,11.32624,-17.74878,-1.63464
