posX, posY, posZ, velX, velY, velZ, angVelX, angVelY, angVelZ, accX, accY, accZ, rotX, rotY, rotZ, rotW, angAccX, angAccY, angAccZ
-0.36145,1.12473,-0.34657,-0.14477,0.14583,-0.07531,0.32115,0.43211,0.21405,0.30711,-0.73165,0.30757,-0.37340,-0.88690,-0.07862,-0.26038,13.26315,-0.91287,-1.51557
-0.36321,1.12624,-0.34749,-0.14123,0.13935,-0.07301,0.43280,0.44076,0.20083,0.39207,-0.56363,0.22298,-0.37436,-0.88764,-0.08303,-0.25507,12.17294,0.04933,-2.34387
-0.36471,1.12754,-0.34845,-0.13503,0.13142,-0.07193,0.50220,0.43001,0.22110,0.49269,-0.46718,0.18306,-0.37422,-0.88860,-0.08748,-0.25040,6.79209,-0.04709,0.00237
-0.36596,1.12867,-0.34943,-0.12660,0.12314,-0.07101,0.46429,0.37583,0.26775,0.61950,-0.55519,0.12317,-0.37207,-0.88986,-0.08980,-0.24829,-3.12187,-3.50440,3.63743
-0.36691,1.12980,-0.35006,-0.11479,0.11564,-0.06514,0.56995,0.33561,0.23091,0.92503,-0.49430,0.33697,-0.37326,-0.88980,-0.09539,-0.24460,2.86280,-3.10491,-0.98695
-0.36754,1.13101,-0.35029,-0.10042,0.10988,-0.05500,0.83608,0.33112,0.12773,1.26155,-0.49132,0.83725,-0.37837,-0.88831,-0.10557,-0.23791,17.19510,-1.07643,-7.04298
-0.36752,1.13195,-0.34992,-0.07998,0.10171,-0.03848,1.20473,0.31863,-0.02750,1.54735,-0.65302,1.33223,-0.38701,-0.88494,-0.12014,-0.22952,26.76640,0.60731,-11.42490
-0.36700,1.13268,-0.34916,-0.05590,0.09175,-0.01952,1.46952,0.27383,-0.14467,1.59420,-0.64820,1.38803,-0.39497,-0.88118,-0.13431,-0.22244,19.57034,-1.37319,-9.72111
-0.36641,1.13311,-0.34839,-0.03530,0.08010,-0.00407,1.48718,0.17608,-0.15446,1.23271,-0.85615,0.98865,-0.39853,-0.87877,-0.14412,-0.21946,3.31900,-5.71757,-1.94084
-0.36589,1.13328,-0.34781,-0.01994,0.06664,0.00565,1.38217,0.08506,-0.14302,1.04570,-1.11532,0.66880,-0.40049,-0.87705,-0.15072,-0.21834,-6.68002,-6.40301,0.30386
-0.36519,1.13313,-0.34727,-0.00497,0.05053,0.01248,1.24069,0.00610,-0.15048,1.07406,-1.16937,0.37244,-0.40242,-0.87533,-0.15562,-0.21827,-9.92238,-6.63400,-0.44039
-0.36421,1.13274,-0.34680,0.01114,0.03473,0.01690,1.13937,-0.05177,-0.18694,1.10133,-1.06333,0.16733,-0.40528,-0.87317,-0.16048,-0.21810,-7.85754,-4.23973,-2.14628
-0.36324,1.13250,-0.34647,0.02330,0.02461,0.01823,1.12841,-0.05378,-0.24402,0.80362,-0.51264,-0.24604,-0.40963,-0.87055,-0.16652,-0.21592,-5.41937,-2.16644,-4.35539
-0.36229,1.13259,-0.34632,0.03263,0.02193,0.01647,1.32667,0.06580,-0.33545,0.22843,0.17325,-0.42686,-0.41730,-0.86693,-0.17654,-0.20766,10.69346,6.68106,-5.39176
-0.36181,1.13304,-0.34635,0.03294,0.02530,0.01262,1.54425,0.20759,-0.39009,-0.12192,0.51783,-0.41809,-0.42504,-0.86329,-0.18783,-0.19697,17.54239,10.77224,-4.21701
-0.36162,1.13395,-0.34648,0.02895,0.03487,0.00805,1.78565,0.37129,-0.41750,-0.30525,0.85513,-0.17808,-0.43302,-0.85942,-0.20057,-0.18348,19.01000,12.21453,-1.72921
-0.36171,1.13534,-0.34659,0.02170,0.04907,0.00466,1.90505,0.46056,-0.36836,-0.33715,0.82713,0.11737,-0.43817,-0.85643,-0.21222,-0.17176,10.61945,6.38081,2.55254
-0.36178,1.13665,-0.34663,0.01655,0.05881,0.00265,1.80055,0.42411,-0.27480,-0.28100,0.72177,0.09495,-0.43978,-0.85486,-0.21989,-0.16571,-2.72034,-0.48255,6.61193
-0.36196,1.13848,-0.34706,0.01098,0.07525,-0.00582,1.10055,0.17598,0.03901,-0.00289,0.28049,-0.34135,-0.43098,-0.85909,-0.21626,-0.17160,-27.47071,-10.52683,10.79641
-0.36167,1.14084,-0.34777,0.01140,0.07948,-0.01436,0.71035,0.03024,0.19693,-0.04859,0.30341,-0.93420,-0.42580,-0.86066,-0.22023,-0.17166,-26.60283,-11.26935,10.27118
-0.36151,1.14214,-0.34858,0.01167,0.08247,-0.02337,0.58943,0.01023,0.27489,-0.09500,0.49625,-1.40315,-0.42235,-0.86208,-0.22185,-0.17092,-18.80362,-6.62576,7.99288
-0.36157,1.14371,-0.35033,0.00853,0.08925,-0.04413,0.66007,0.15104,0.32891,-0.55949,0.61458,-1.80882,-0.42111,-0.86312,-0.22592,-0.16326,0.39011,5.99730,4.28799
-0.36190,1.14539,-0.35251,0.00168,0.09680,-0.06715,1.02369,0.45638,0.31460,-0.46468,0.48334,-1.45223,-0.42462,-0.86187,-0.23572,-0.14599,20.79725,19.16516,0.23219
-0.36214,1.14697,-0.35439,-0.00218,0.10061,-0.08111,1.28305,0.63643,0.30221,-0.04967,0.14637,-0.76676,-0.42749,-0.86013,-0.24565,-0.13071,24.79361,19.19150,-1.20057
-0.36220,1.14849,-0.35632,-0.00239,0.10263,-0.09264,1.45370,0.72832,0.32809,0.17662,0.01701,-0.63452,-0.42868,-0.85865,-0.25544,-0.11707,13.55765,8.44783,1.36515
-0.36208,1.14971,-0.35832,0.00038,0.10004,-0.10301,1.67207,0.79789,0.33941,0.20227,-0.41767,-0.61738,-0.43026,-0.85605,-0.26748,-0.10250,14.36581,4.77248,1.62139
-0.36182,1.15049,-0.36035,0.00461,0.09104,-0.11180,1.71385,0.85588,0.31373,0.62821,-0.99046,-0.28505,-0.43223,-0.85390,-0.27561,-0.08987,7.86146,6.74094,-1.11378
-0.36093,1.15107,-0.36233,0.01705,0.08110,-0.11784,1.59724,0.75781,0.31646,1.25614,-0.68064,-0.19183,-0.43183,-0.85282,-0.28154,-0.08339,-6.56881,-3.86317,-0.60404
-0.35970,1.15139,-0.36421,0.03188,0.06919,-0.12115,1.41116,0.56070,0.30867,0.57428,-0.58656,-0.31507,-0.43034,-0.85209,-0.28645,-0.08181,-13.35972,-13.58549,-0.76678
-0.35904,1.15172,-0.36588,0.03478,0.05975,-0.12053,1.43013,0.51798,0.29458,-0.06050,-0.45314,-0.10518,-0.43050,-0.84995,-0.29439,-0.07475,-3.51561,-8.11641,-2.22002
-0.35812,1.15234,-0.36723,0.04151,0.05693,-0.11536,1.84501,0.62111,0.25143,0.45393,0.43614,-0.09537,-0.43367,-0.84359,-0.31123,-0.05844,19.55979,3.83174,-0.90408
-0.35702,1.15326,-0.36855,0.04920,0.05887,-0.11099,2.41067,0.89785,0.09599,0.40266,0.20222,0.35479,-0.44243,-0.83256,-0.33160,-0.03386,45.11855,19.51986,-9.86145
-0.35581,1.15433,-0.36967,0.05671,0.06260,-0.10434,2.92587,1.21578,0.01487,0.65207,-0.12118,0.74686,-0.45064,-0.82026,-0.35224,-0.00474,36.35931,24.34147,-5.94155
-0.35471,1.15522,-0.37088,0.06112,0.06333,-0.10024,3.01704,1.27645,0.00184,0.60671,-0.27406,0.73157,-0.45456,-0.81163,-0.36663,0.01445,17.04231,10.53352,-0.14173
-0.35334,1.15630,-0.37206,0.06855,0.06656,-0.09633,2.94419,1.23903,0.01607,0.69696,0.60193,0.16241,-0.45661,-0.80477,-0.37814,0.02921,-5.86638,-2.37681,0.00522
-0.35189,1.15775,-0.37304,0.07551,0.07444,-0.09049,2.95437,1.21613,0.01969,0.22109,0.41258,0.72139,-0.45873,-0.79652,-0.39126,0.04511,1.74558,-0.98964,0.37169
-0.35087,1.15926,-0.37355,0.07469,0.08141,-0.07841,2.88549,1.10298,0.06654,-0.05493,0.54034,1.17206,-0.45840,-0.78973,-0.40357,0.05760,-4.29482,-6.49884,0.54016
-0.35011,1.16096,-0.37345,0.07013,0.08983,-0.05953,2.67680,0.86624,0.19490,-0.15002,0.23336,1.42342,-0.45390,-0.78632,-0.41407,0.06500,-9.18079,-14.50515,5.43928
-0.34926,1.16264,-0.37310,0.06822,0.09605,-0.04115,2.13508,0.47023,0.36291,0.36207,0.05950,1.30724,-0.44576,-0.78919,-0.41783,0.06235,-29.64216,-23.65400,7.94171
-0.34808,1.16407,-0.37284,0.07188,0.09735,-0.02801,1.69520,0.08359,0.47152,0.29937,0.19314,0.88944,-0.43719,-0.79209,-0.42214,0.05707,-39.46304,-34.88408,6.58197
-0.34666,1.16508,-0.37238,0.07822,0.09175,-0.01485,1.53712,-0.15065,0.47470,0.01134,-0.47437,0.59402,-0.43110,-0.79114,-0.43034,0.05520,-17.84574,-25.36046,1.59092
-0.34511,1.16522,-0.37196,0.08482,0.07466,-0.00505,1.58489,-0.07651,0.41044,0.28387,-1.45791,0.44990,-0.42999,-0.78631,-0.43928,0.06212,0.31167,1.13268,-4.40214
-0.34313,1.16455,-0.37168,0.09654,0.04921,0.00111,1.72628,0.06022,0.31535,1.26677,-2.16117,0.36481,-0.43098,-0.77895,-0.44975,0.07221,10.61011,12.90689,-5.46468
-0.34049,1.16341,-0.37166,0.11520,0.02245,0.00174,1.74822,0.15953,0.18125,1.81289,-2.94957,-0.00549,-0.43357,-0.77185,-0.45813,0.07987,6.79941,8.33314,-8.98117
-0.33646,1.16043,-0.37217,0.15075,-0.02582,-0.00573,1.45667,0.18659,-0.02137,2.95133,-3.67056,-0.47677,-0.43873,-0.76817,-0.45933,0.08028,-14.82037,5.94801,-10.33325
-0.33150,1.15665,-0.37303,0.19322,-0.07648,-0.01692,0.96758,0.00391,-0.25996,3.57754,-4.07526,-0.77234,-0.44355,-0.76774,-0.45705,0.07026,-31.73971,-8.16382,-16.88253
-0.32623,1.15287,-0.37400,0.23014,-0.11534,-0.02722,0.52694,-0.19484,-0.49752,4.08246,-4.11205,-1.04777,-0.44896,-0.76751,-0.45403,0.05677,-39.61390,-15.06967,-20.06173
-0.31814,1.14652,-0.37601,0.30028,-0.18373,-0.05057,-0.47006,-0.64463,-0.98453,3.55568,-3.81193,-1.35499,-0.45904,-0.77245,-0.43836,0.02090,-54.25004,-22.14520,-31.03174
-0.31124,1.14075,-0.37801,0.34088,-0.23159,-0.06932,-1.28401,-1.01594,-1.25965,2.50601,-2.97722,-1.18472,-0.46488,-0.77824,-0.42197,-0.01324,-61.44090,-22.97881,-21.79555
-0.30474,1.13560,-0.37990,0.36642,-0.25969,-0.08246,-1.95925,-1.28525,-1.37257,1.98586,-1.34972,-0.96893,-0.46772,-0.78496,-0.40367,-0.04610,-55.65834,-23.75736,-21.96766
-0.29840,1.13105,-0.38166,0.38423,-0.27299,-0.09136,-2.49399,-1.42847,-1.40782,-0.12909,0.36858,-0.59671,-0.46936,-0.79160,-0.38374,-0.07634,-38.96249,-10.00512,-7.31758
-0.29379,1.12787,-0.38310,0.37356,-0.26368,-0.09410,-2.60483,-1.34819,-1.24425,-1.42380,1.73765,-0.29008,-0.46870,-0.79687,-0.36957,-0.09348,-14.90885,5.97693,7.45426
-0.29002,1.12577,-0.38440,0.35279,-0.24064,-0.09416,-2.49220,-1.20784,-1.05054,-2.06028,2.72610,-0.09667,-0.46753,-0.80065,-0.35981,-0.10447,3.62338,12.43123,12.81567
-0.28761,1.12579,-0.38536,0.31687,-0.19160,-0.08932,-2.12777,-0.97370,-0.73637,-2.31634,3.74870,0.52991,-0.46436,-0.80399,-0.35612,-0.10559,20.66280,16.32981,18.00982
-0.28536,1.12680,-0.38562,0.28592,-0.13767,-0.07511,-1.71012,-0.82381,-0.46041,-1.95688,4.23537,1.39385,-0.46030,-0.80612,-0.35660,-0.10551,27.62743,13.94091,20.50981
-0.28336,1.12960,-0.38478,0.25683,-0.06737,-0.04707,-1.16146,-0.73867,-0.15948,-1.70621,4.62592,1.93575,-0.45425,-0.80687,-0.36355,-0.10220,32.61803,6.87848,20.23293
-0.28152,1.13292,-0.38348,0.23274,-0.00474,-0.01984,-0.65106,-0.67731,0.07394,-1.71965,4.44064,1.80025,-0.44846,-0.80650,-0.37255,-0.09816,35.60748,4.92930,19.12548
-0.27977,1.13633,-0.38225,0.21237,0.04540,0.00083,-0.23182,-0.60914,0.24716,-1.80135,3.95308,1.58626,-0.44321,-0.80564,-0.38185,-0.09330,36.30598,6.79531,17.20243
-0.27888,1.14113,-0.38076,0.18314,0.10586,0.02121,0.19460,-0.51124,0.45406,-1.68869,3.19424,1.25593,-0.43687,-0.80455,-0.39324,-0.08487,29.28084,8.02989,14.21975
-0.27791,1.14550,-0.37953,0.16084,0.14848,0.03384,0.30437,-0.53194,0.60364,-1.32584,2.52557,0.90222,-0.42906,-0.80574,-0.39980,-0.08277,12.47877,0.89127,12.23555
-0.27694,1.14991,-0.37847,0.14336,0.18283,0.04124,0.27800,-0.60236,0.72042,-1.20160,2.21468,0.33978,-0.42021,-0.80816,-0.40405,-0.08391,-1.64468,-5.70840,8.79130
-0.27594,1.15411,-0.37768,0.12919,0.20669,0.04359,0.29091,-0.61744,0.79972,-1.31761,1.79685,-0.11944,-0.41225,-0.81002,-0.40856,-0.08367,-0.62450,-3.58968,6.23559
-0.27537,1.15837,-0.37721,0.11271,0.22545,0.03970,0.28483,-0.58028,0.86953,-1.02928,0.86332,-0.48955,-0.40468,-0.81228,-0.41193,-0.08212,1.12494,2.81936,6.31853
-0.27465,1.16223,-0.37730,0.10172,0.23473,0.02857,0.15883,-0.57298,0.88716,-0.55491,0.23754,-0.95037,-0.39749,-0.81557,-0.41218,-0.08345,-7.15717,0.60564,3.03440
-0.27368,1.16569,-0.37786,0.09653,0.23683,0.01369,-0.01980,-0.57810,0.84312,-0.27304,-0.04952,-1.13581,-0.39156,-0.81904,-0.41021,-0.08705,-12.17286,-1.13171,-3.28289
-0.27265,1.16895,-0.37849,0.09364,0.23499,0.00067,-0.18927,-0.58536,0.79888,-0.12074,-0.27777,-1.07954,-0.38572,-0.82275,-0.40739,-0.09126,-13.19680,-0.79421,-4.06474
-0.27156,1.17204,-0.37953,0.09277,0.23098,-0.01588,-0.37055,-0.57677,0.73646,-0.03885,-0.18555,-1.16062,-0.38070,-0.82675,-0.40289,-0.09615,-12.90577,-1.20990,-4.59935
-0.27041,1.17493,-0.38072,0.09184,0.22562,-0.03124,-0.41044,-0.49708,0.69170,-0.10976,-0.26042,-0.97695,-0.37682,-0.82957,-0.40043,-0.09738,-3.85795,4.35782,-3.36129
-0.26932,1.17787,-0.38170,0.09044,0.22169,-0.04127,-0.41037,-0.42227,0.67349,-0.01440,-0.22795,-0.58888,-0.37269,-0.83220,-0.39878,-0.09759,-0.15272,6.03746,-2.11929
-0.26822,1.18078,-0.38251,0.08944,0.21864,-0.04610,-0.42677,-0.40016,0.67730,0.10002,-0.39776,-0.09643,-0.36751,-0.83511,-0.39722,-0.09873,0.01982,3.48488,-0.08197
-0.26698,1.18344,-0.38290,0.09065,0.21235,-0.04370,-0.50153,-0.46944,0.66821,0.13502,-0.35436,0.23434,-0.36119,-0.83838,-0.39495,-0.10330,-5.85253,-4.31230,-0.22237
-0.26574,1.18610,-0.38309,0.09192,0.20723,-0.03907,-0.45291,-0.51054,0.66043,0.07218,-0.23706,0.23735,-0.35542,-0.84024,-0.39548,-0.10613,0.83599,-4.07114,-0.40747
-0.26434,1.18831,-0.38281,0.09662,0.19467,-0.02827,-0.12973,-0.37688,0.62545,0.20157,-0.60178,0.23725,-0.35313,-0.83903,-0.40112,-0.10210,13.69158,6.52134,-1.36059
-0.26158,1.19347,-0.38341,0.09816,0.19063,-0.02632,-0.03021,-0.31773,0.61094,0.25932,-0.71391,0.22499,-0.34521,-0.84086,-0.40453,-0.10072,15.03386,9.68164,-1.78390
-0.25992,1.19495,-0.38328,0.10385,0.17331,-0.02168,0.27527,-0.10103,0.52221,0.27652,-0.99386,0.17465,-0.34778,-0.83732,-0.41179,-0.09146,14.72204,11.13229,-3.86157
-0.25821,1.19651,-0.38344,0.10820,0.16074,-0.02017,0.39583,0.03440,0.44998,0.43094,-0.99850,0.22546,-0.34916,-0.83552,-0.41561,-0.08527,11.63662,12.21229,-4.95391
-0.25654,1.19833,-0.38367,0.11091,0.15475,-0.01994,0.37800,0.06032,0.40467,0.50335,-0.88235,0.22255,-0.34863,-0.83525,-0.41706,-0.08289,5.23352,8.60583,-5.19121
-0.25473,1.19993,-0.38399,0.11541,0.14650,-0.02139,0.12207,-0.06308,0.31603,0.23372,-0.36685,0.01394,-0.34678,-0.83750,-0.41282,-0.08898,-13.00956,-6.54231,-4.86023
-0.25310,1.20181,-0.38429,0.11571,0.14443,-0.02156,-0.16152,-0.22522,0.26045,-0.13520,0.06388,0.03263,-0.34317,-0.84080,-0.40717,-0.09752,-18.65091,-10.79668,-4.40197
-0.25177,1.20388,-0.38436,0.11178,0.14545,-0.01847,-0.30886,-0.32992,0.24749,-0.47097,0.30264,0.19352,-0.33924,-0.84330,-0.40372,-0.10373,-13.48999,-9.25912,-2.05776
-0.25074,1.20605,-0.38412,0.10447,0.14761,-0.01171,-0.30907,-0.33136,0.26717,-0.67169,0.32022,0.44465,-0.33602,-0.84477,-0.40290,-0.10553,-2.67816,-1.79933,0.64428
-0.24995,1.20826,-0.38356,0.09502,0.14965,-0.00213,-0.23293,-0.28787,0.31190,-0.66385,0.04951,0.76571,-0.33286,-0.84563,-0.40396,-0.10453,4.95276,3.63786,3.23290
-0.24967,1.21046,-0.38234,0.07910,0.15073,0.01573,-0.00723,-0.16286,0.33948,-0.42617,0.09582,0.37506,-0.33143,-0.84467,-0.40826,-0.10005,8.27014,6.27151,0.08749
-0.24801,1.21505,-0.38130,0.07399,0.15332,0.02265,0.08436,-0.06770,0.33821,-0.25422,0.18739,0.61991,-0.32823,-0.84505,-0.41099,-0.09616,7.78481,8.40350,0.20515
-0.24748,1.21769,-0.38039,0.06905,0.15782,0.02961,0.08374,-0.06621,0.35690,-0.36733,0.36763,0.71770,-0.32557,-0.84576,-0.41191,-0.09505,2.47770,2.91449,0.92573
-0.24741,1.22051,-0.37911,0.05808,0.16442,0.04068,0.01607,-0.15281,0.43826,-0.75798,0.34880,0.82908,-0.31944,-0.84787,-0.41205,-0.09637,-3.89178,-4.44424,4.39043
-0.24741,1.22320,-0.37774,0.04818,0.16839,0.05114,-0.03418,-0.24925,0.51171,-0.72341,0.37211,0.86936,-0.31266,-0.84989,-0.41262,-0.09839,-4.49950,-8.09447,5.68456
-0.24748,1.22614,-0.37602,0.03957,0.17445,0.06399,-0.01808,-0.28746,0.60716,-0.59880,0.53872,0.70500,-0.30540,-0.85163,-0.41453,-0.09811,-1.10525,-5.84846,6.86357
-0.24727,1.22914,-0.37425,0.03596,0.18090,0.07548,0.04563,-0.25140,0.69851,0.07271,0.25777,0.63918,-0.29892,-0.85296,-0.41725,-0.09493,4.32520,2.88205,6.37634
-0.24647,1.23206,-0.37243,0.04121,0.18513,0.08566,0.09339,-0.19976,0.72991,0.57230,0.31638,0.78754,-0.29400,-0.85393,-0.41945,-0.09180,2.51331,2.46164,3.60105
-0.24522,1.23505,-0.37034,0.05160,0.18950,0.09761,0.18832,-0.13915,0.73051,1.06561,0.46094,1.06852,-0.29032,-0.85384,-0.42305,-0.08776,5.63508,5.68507,0.67313
-0.24317,1.23826,-0.36751,0.07078,0.19696,0.11780,0.38020,-0.06120,0.70628,1.26723,0.55029,1.35899,-0.28817,-0.85180,-0.42974,-0.08193,11.73755,5.36644,-0.81600
-0.24095,1.24172,-0.36450,0.08861,0.20684,0.13678,0.51076,-0.03868,0.67992,1.40279,0.81867,1.48295,-0.28558,-0.84985,-0.43608,-0.07767,11.08990,4.55615,-1.93550
-0.23867,1.24555,-0.36143,0.10357,0.21971,0.15260,0.54802,-0.09725,0.65701,1.28467,1.15326,1.38434,-0.28166,-0.84860,-0.44125,-0.07649,5.68199,-2.18070,-2.17264
-0.23595,1.25037,-0.35796,0.12148,0.24413,0.17089,0.51841,-0.19616,0.65409,1.09220,1.90015,0.94679,-0.27629,-0.84823,-0.44518,-0.07738,-1.60379,-7.31276,-1.58393
-0.23304,1.25597,-0.35461,0.13888,0.27510,0.18415,0.50676,-0.19426,0.67598,1.31628,2.59593,0.87004,-0.27143,-0.84816,-0.44864,-0.07528,-1.57043,-1.48282,1.83676
-0.22971,1.26278,-0.35100,0.15863,0.31720,0.19846,0.54614,-0.14290,0.72646,1.39630,3.74702,1.00551,-0.26646,-0.84776,-0.45311,-0.07068,1.20954,2.58608,2.42958
-0.22619,1.27191,-0.34703,0.17740,0.38499,0.21529,0.62397,-0.02915,0.84977,0.90959,4.82884,1.03377,-0.26026,-0.84750,-0.45841,-0.06222,5.10309,7.17791,8.14484
-0.22324,1.28257,-0.34309,0.18442,0.46250,0.22885,0.63827,0.07190,0.99624,0.10840,6.33490,1.02976,-0.25274,-0.84830,-0.46226,-0.05324,1.99231,7.50637,9.04290
-0.22106,1.29564,-0.33886,0.17844,0.55900,0.24374,0.56731,0.07925,1.23430,-0.62774,7.48228,1.34517,-0.24031,-0.85108,-0.46462,-0.04519,-2.98078,2.35649,15.82671
-0.21935,1.31015,-0.33435,0.16773,0.65486,0.25948,0.42182,-0.03315,1.44864,-0.88173,8.52860,1.60529,-0.22493,-0.85508,-0.46536,-0.04105,-9.04284,-7.64999,17.91433
-0.21825,1.32839,-0.32914,0.15048,0.78311,0.28175,0.23591,-0.22769,1.72120,-1.53966,9.78255,1.62522,-0.20449,-0.86055,-0.46487,-0.03910,-12.63905,-16.25551,17.89573
-0.21814,1.35031,-0.32346,0.12237,0.94095,0.30668,0.05264,-0.42829,1.99859,-2.08812,10.23662,1.29955,-0.18153,-0.86646,-0.46355,-0.03765,-10.24194,-14.09689,17.91871
-0.21888,1.37366,-0.31829,0.08653,1.08920,0.31912,-0.07237,-0.51691,2.21616,-3.40632,11.10409,0.30868,-0.15990,-0.87165,-0.46206,-0.03398,-8.49282,-11.36198,14.42582
-0.22095,1.39808,-0.31371,0.03961,1.22131,0.32086,-0.14981,-0.49719,2.47439,-4.62739,11.32213,-0.20547,-0.13704,-0.87674,-0.46030,-0.02594,-8.07202,-1.73446,19.25836
-0.22574,1.42625,-0.30956,-0.03600,1.37843,0.31621,-0.19639,-0.38653,2.86015,-6.42203,11.46289,-0.60444,-0.11003,-0.88200,-0.45807,-0.01193,-5.69322,4.56135,24.88535
-0.23321,1.45625,-0.30566,-0.13439,1.53007,0.30892,-0.27755,-0.23902,3.31917,-7.50479,10.19083,-0.31184,-0.07914,-0.88762,-0.45369,0.00626,-7.22847,12.35705,32.56934
-0.24290,1.48707,-0.30170,-0.24451,1.66411,0.30418,-0.49000,-0.35198,3.68196,-8.06956,8.80114,0.07632,-0.04444,-0.89401,-0.44553,0.01646,-12.98614,-4.70624,28.72816
-0.25486,1.51833,-0.29753,-0.36494,1.77672,0.30324,-0.70486,-0.65171,3.97930,-8.96903,7.27369,0.08423,-0.00597,-0.89961,-0.43620,0.02001,-11.80578,-22.99098,22.56233
-0.27039,1.55010,-0.29313,-0.51458,1.87673,0.30602,-0.80710,-0.96093,4.27671,-10.05469,5.54682,0.06810,0.03516,-0.90266,-0.42833,0.02258,-3.26936,-22.83194,19.21638
-0.28726,1.58065,-0.28853,-0.65577,1.94141,0.31124,-0.72881,-1.05244,4.56104,-10.54228,4.09717,0.30676,0.07486,-0.90196,-0.42415,0.03116,4.13304,-7.43668,20.24753
-0.30650,1.61078,-0.28376,-0.80184,1.98523,0.31725,-0.55074,-0.95861,4.86679,-10.74353,2.36417,0.13275,0.11452,-0.89794,-0.42245,0.04615,8.63139,6.96779,22.81412
-0.32771,1.63984,-0.27907,-0.94755,2.00608,0.32112,-0.35323,-0.70514,5.14749,-10.39983,0.65919,0.15731,0.15237,-0.89133,-0.42169,0.06707,5.27727,21.64999,20.08125
-0.34935,1.66766,-0.27466,-1.06837,2.00480,0.32010,-0.22373,-0.57587,5.33618,-9.71478,-0.99261,-0.09395,0.19005,-0.88350,-0.41960,0.08506,4.95582,19.80503,18.24162
-0.37475,1.69353,-0.27082,-1.21924,1.97711,0.31094,-0.09046,-0.59251,5.50707,-9.13860,-2.65920,-0.79418,0.22986,-0.87351,-0.41750,0.09918,7.54728,2.85723,11.46677
-0.40009,1.71775,-0.26746,-1.34063,1.92942,0.29621,0.01128,-0.58518,5.61741,-8.44214,-4.31748,-1.39510,0.26830,-0.86218,-0.41456,0.11316,7.17549,1.58388,8.73596
-0.42435,1.74115,-0.26429,-1.42001,1.88149,0.28236,0.06321,-0.47663,5.68685,-7.85806,-5.44977,-1.74184,0.30409,-0.84974,-0.41058,0.12996,3.85961,6.89233,7.46180
-0.45285,1.75906,-0.26269,-1.54309,1.76661,0.24937,0.07676,-0.15027,5.78818,-5.96432,-7.44911,-2.15981,0.33698,-0.83512,-0.40626,0.15483,-6.78131,17.92085,6.03990
-0.47884,1.77719,-0.26118,-1.60688,1.67458,0.22134,0.06072,0.01584,5.79507,-4.65528,-8.04525,-2.42056,0.36859,-0.82041,-0.40036,0.17543,-8.55479,14.61080,2.39236
-0.50542,1.79120,-0.26122,-1.66677,1.54332,0.17670,0.00022,0.19097,5.71684,-2.76995,-8.87076,-3.23664,0.39641,-0.80595,-0.39349,0.19616,-6.01166,8.75609,-3.00258
-0.53055,1.80390,-0.26203,-1.69386,1.41771,0.12963,-0.17084,0.30387,5.53518,-1.00146,-9.45851,-3.51039,0.42014,-0.79393,-0.38318,0.21527,-14.40587,5.37425,-11.24969
-0.55472,1.81451,-0.26380,-1.69997,1.28597,0.07815,-0.33314,0.20808,5.27438,0.56182,-9.66702,-3.51903,0.44283,-0.78399,-0.37072,0.22765,-11.65834,-6.74299,-16.65794
-0.57748,1.82288,-0.26632,-1.68601,1.14959,0.02643,-0.37038,-0.11920,4.97137,1.85648,-9.84619,-3.43409,0.46648,-0.77510,-0.35854,0.23037,2.09406,-20.07012,-20.47405
-0.59921,1.82917,-0.26943,-1.65586,1.01186,-0.02309,-0.23477,-0.60102,4.66787,2.85713,-9.66010,-3.24725,0.49205,-0.76580,-0.34835,0.22382,17.45726,-29.21725,-20.34878
-0.61922,1.83272,-0.27309,-1.60455,0.86020,-0.07109,-0.02268,-1.08688,4.31954,3.70048,-9.34515,-2.81872,0.51656,-0.75688,-0.33981,0.21175,25.00132,-26.69361,-20.22692
-0.63790,1.83605,-0.27639,-1.54807,0.73419,-0.10461,0.10511,-1.35914,4.01951,4.30127,-8.91444,-2.22542,0.53826,-0.74781,-0.33127,0.20327,18.30389,-17.60672,-20.49658
-0.65525,1.83780,-0.27965,-1.48346,0.61253,-0.12947,0.13693,-1.45451,3.76281,4.88622,-8.54510,-1.72288,0.55717,-0.73896,-0.32244,0.19882,9.15947,-7.87935,-18.60419
-0.67132,1.83836,-0.28290,-1.41239,0.49800,-0.14888,0.06297,-1.51070,3.52037,5.31066,-7.91366,-1.08849,0.57401,-0.73156,-0.31126,0.19606,-1.02832,-4.52346,-17.88027
-0.68658,1.83880,-0.28559,-1.34708,0.40517,-0.15686,-0.00643,-1.55182,3.32082,5.70225,-7.65445,-0.27152,0.59023,-0.72417,-0.29964,0.19345,-3.21047,-5.21086,-17.63081
-0.69853,1.83602,-0.28767,-1.25099,0.28575,-0.15417,0.07766,-1.67987,3.11694,6.17778,-7.05901,1.09867,0.60687,-0.71635,-0.29011,0.18544,5.29169,-6.72842,-12.83252
-0.70984,1.83341,-0.28829,-1.16313,0.19083,-0.13079,0.34565,-1.70059,2.95430,6.26215,-6.22971,2.49799,0.62382,-0.70542,-0.28694,0.17578,18.12054,-1.70271,-9.74826
-0.71993,1.83024,-0.28703,-1.07475,0.10768,-0.08519,0.70102,-1.51049,2.81274,5.85666,-5.67676,3.86958,0.63900,-0.69176,-0.29124,0.16833,25.95646,12.82487,-7.37798
-0.72905,1.82633,-0.28347,-0.99122,0.03230,-0.01555,0.69468,-0.84394,2.73630,5.48859,-5.50667,4.63327,0.64788,-0.67753,-0.29831,0.17947,5.49534,39.32082,-4.58549
-0.73718,1.82199,-0.27843,-0.90930,-0.03415,0.06128,0.10740,0.09062,2.67807,5.85862,-4.56791,5.10942,0.64876,-0.66671,-0.29919,0.21235,-45.93704,57.50335,-2.74304
-0.74404,1.81756,-0.27254,-0.82459,-0.09071,0.13510,-0.65315,0.95440,2.64862,6.46144,-3.67102,5.34659,0.64572,-0.65676,-0.29516,0.25416,-67.68001,53.09561,-1.96054
-0.74902,1.81274,-0.26644,-0.73018,-0.14111,0.19719,-1.11606,1.56108,2.70546,7.25600,-3.06563,4.39040,0.64519,-0.64287,-0.29230,0.29156,-50.00486,41.51466,3.09792
-0.75112,1.80748,-0.26050,-0.61043,-0.18821,0.24440,-1.35714,1.92645,2.83692,8.18476,-2.30520,2.14422,0.64817,-0.62557,-0.28935,0.32375,-19.23186,23.82373,9.14000
-0.75406,1.80361,-0.25625,-0.52976,-0.20587,0.25730,-1.47111,1.99528,2.87299,8.58290,-1.22029,0.82376,0.65225,-0.61045,-0.28403,0.34821,-14.94425,12.35210,7.49139
-0.75305,1.80006,-0.25283,-0.41187,-0.21476,0.25589,-1.58994,1.94046,2.83238,8.84797,-0.09067,-0.76382,0.65525,-0.59795,-0.27619,0.36990,-9.27336,-3.02193,0.03285
-0.74915,1.79745,-0.25135,-0.27402,-0.20819,0.22657,-1.53485,1.66843,2.74041,8.84606,1.09621,-2.37781,0.66078,-0.58765,-0.26741,0.38279,1.46826,-14.69142,-3.72241
-0.74336,1.79592,-0.25175,-0.13575,-0.18553,0.17346,-1.22419,1.23549,2.61425,8.79060,2.38545,-3.90290,0.67032,-0.57846,-0.26042,0.38501,19.10948,-22.10620,-6.68627
-0.73812,1.79553,-0.25302,-0.03350,-0.15142,0.11918,-0.83167,0.80478,2.45780,8.53800,3.68194,-4.77984,0.68123,-0.57031,-0.25518,0.38151,35.50315,-28.98167,-10.72020
-0.73048,1.79750,-0.25614,0.08196,-0.09077,0.04985,-0.40325,0.31234,2.19655,8.18084,5.02848,-5.32451,0.69233,-0.56612,-0.25052,0.37071,38.94855,-31.07635,-17.15749
-0.72214,1.80241,-0.26051,0.19098,-0.00684,-0.02156,-0.26701,-0.14063,1.87076,7.86001,6.27754,-5.30143,0.69907,-0.56732,-0.24144,0.36215,22.18703,-30.62332,-21.16101
-0.71164,1.81057,-0.26594,0.31193,0.10873,-0.09450,-0.44264,-0.56008,1.43856,7.76933,7.57707,-4.41887,0.69935,-0.57572,-0.22711,0.35759,-4.51751,-29.17831,-25.82223
-0.70090,1.81869,-0.27062,0.40744,0.20376,-0.14304,-0.68278,-0.82705,1.09409,8.39453,8.09664,-3.89829,0.69749,-0.58406,-0.21212,0.35691,-14.62983,-24.69478,-27.94421
-0.68666,1.82968,-0.27628,0.53089,0.31945,-0.19509,-0.68863,-1.12921,0.75500,9.36321,9.12276,-3.18383,0.69687,-0.59360,-0.19932,0.34967,-8.49244,-23.22068,-26.43456
-0.66854,1.84412,-0.28315,0.68802,0.46401,-0.25484,-0.21541,-1.73054,0.56625,10.64840,9.51270,-3.23923,0.70629,-0.60091,-0.18674,0.32434,34.63779,-41.94244,-1.19728
-0.64802,1.86136,-0.28794,0.84941,0.62368,-0.27237,-0.13695,-1.55465,-0.16342,11.69241,12.34931,0.19056,0.69624,-0.61665,-0.18962,0.31468,18.24194,-14.65560,-31.24000
-0.62575,1.88247,-0.29030,1.00260,0.80811,-0.25168,-0.47373,-1.21412,-0.89754,10.29936,13.11925,2.08257,0.67613,-0.63668,-0.19156,0.31747,-6.20104,27.51956,-58.18233
-0.60183,1.90708,-0.29043,1.14953,1.00677,-0.20248,-1.27488,-0.76835,-1.66226,10.72857,15.01423,4.18780,0.64389,-0.66177,-0.18796,0.33485,-50.52688,32.26202,-58.22691
-0.57671,1.93372,-0.28919,1.28231,1.19075,-0.14300,-1.83132,-0.14913,-2.46289,11.64925,16.06224,5.95965,0.60483,-0.68651,-0.19345,0.35421,-45.92392,35.23223,-63.44611
-0.54652,1.96543,-0.28595,1.46089,1.40869,-0.06772,-2.06531,0.80718,-3.51492,14.14317,15.73477,5.26590,0.55280,-0.71128,-0.21844,0.37521,-12.95779,64.80968,-86.47521
-0.51135,1.99919,-0.28309,1.67623,1.61284,-0.01344,-2.06207,1.60870,-4.54702,17.17353,14.05597,2.76175,0.49589,-0.73469,-0.24948,0.38997,7.45792,48.20466,-81.21386
-0.46786,2.03572,-0.28218,1.97262,1.81570,0.00133,-1.97687,2.24027,-5.89234,20.98285,11.35172,-0.75890,0.42421,-0.76224,-0.28609,0.39648,4.50592,29.95179,-87.93831
-0.42020,2.07025,-0.28431,2.27662,1.94928,-0.03158,-1.84988,2.50596,-7.22972,23.89514,7.59561,-3.85712,0.34581,-0.79044,-0.32010,0.39135,2.53024,7.29834,-95.05357
-0.36533,2.10267,-0.28947,2.62488,2.02427,-0.10234,-1.74326,2.51795,-8.77228,27.34711,2.83733,-6.10846,0.25314,-0.81970,-0.35328,0.37311,-14.11444,-4.12323,-105.87990
-0.30189,2.13045,-0.29792,3.02400,2.01492,-0.20648,-1.29807,2.06326,-10.47542,31.51062,-3.76644,-8.01945,0.15290,-0.84666,-0.38982,0.32837,-16.70689,-32.81284,-116.09380
-0.22602,2.14916,-0.31036,3.53471,1.87021,-0.35002,-0.81222,1.08502,-12.62059,33.16969,-15.45728,-9.64257,0.03644,-0.86952,-0.42376,0.25105,-35.87180,-74.31482,-129.43600
-0.15119,2.15964,-0.32250,3.91774,1.63323,-0.45858,-0.94902,0.56156,-13.75584,31.70855,-25.94912,-9.34153,-0.07373,-0.87601,-0.43719,0.18984,-45.66466,-35.30815,-111.28940
-0.06185,2.14392,-0.33801,4.44123,1.05403,-0.59522,-1.46233,0.34237,-15.77413,33.33888,-48.66284,-8.59120,-0.21985,-0.86312,-0.43945,0.11652,-29.78850,13.55769,-116.86140
0.02124,2.11427,-0.35276,4.75892,0.39035,-0.69165,-1.97466,-0.14781,-17.27587,20.76732,-62.92208,-6.86059,-0.35518,-0.83160,-0.42575,0.03208,-54.80576,15.97539,-144.10420
0.09665,2.06257,-0.36687,4.89258,-0.43925,-0.75648,-2.45011,-0.95233,-18.20372,1.61591,-74.21272,-2.92973,-0.46963,-0.78517,-0.39888,-0.06203,-69.64799,12.29434,-100.92990
0.14727,1.97251,-0.37749,4.62972,-1.65372,-0.75558,-3.37146,-2.59806,-17.97485,-32.83453,-73.87113,3.91597,-0.53874,-0.74600,-0.35190,-0.17147,-107.55610,16.96432,-17.46795
0.16913,1.88739,-0.38168,4.00515,-2.56258,-0.66193,-4.45749,-4.02813,-16.31231,-53.59259,-50.60427,8.63527,-0.56158,-0.72472,-0.29897,-0.26463,-140.82500,63.83372,69.72723
0.17967,1.82081,-0.38270,3.35236,-3.00665,-0.54323,-5.01457,-4.20364,-14.36063,-55.75898,-22.35235,9.69352,-0.57689,-0.70700,-0.25381,-0.32081,-85.81735,101.29290,113.60330
0.17251,1.76434,-0.38055,2.58710,-3.20958,-0.40491,-5.36614,-4.11673,-12.08195,-53.37212,-5.57551,9.61656,-0.57436,-0.70215,-0.21512,-0.36169,-25.16209,103.97910,145.08130
0.15721,1.72653,-0.37671,1.85396,-3.10321,-0.26880,-4.11244,-4.51163,-9.20944,-31.59735,28.01697,2.25715,-0.54928,-0.70051,-0.23505,-0.39029,-21.97784,4.74691,113.52650
0.15979,1.70327,-0.38040,1.52196,-2.81882,-0.26890,-3.32451,-2.82171,-6.12137,-28.11660,19.94716,-1.21819,-0.52761,-0.73468,-0.23393,-0.35658,85.09006,128.71940,339.70210
0.15359,1.68913,-0.38804,1.12469,-2.45304,-0.32773,-1.89937,-1.36098,-3.33648,-17.47687,17.94281,-4.00807,-0.50543,-0.76471,-0.25644,-0.30659,98.08781,83.41815,156.11420
0.15697,1.66987,-0.39801,0.94197,-2.23160,-0.40901,-1.71528,-0.37018,-1.71588,-10.85155,13.10110,-5.97112,-0.48704,-0.78851,-0.24785,-0.28217,20.26996,82.02271,120.91550
0.16180,1.64818,-0.40831,0.81857,-2.09378,-0.47792,-1.23534,0.69858,-0.71226,-8.72710,6.80120,-3.99819,-0.48046,-0.80608,-0.24100,-0.24762,35.04684,84.95774,76.05582
0.16596,1.62270,-0.41698,0.70981,-2.03900,-0.50750,-0.50282,1.48517,-0.24248,-7.88374,1.34204,-0.56607,-0.48395,-0.81401,-0.24143,-0.21187,52.93861,65.65940,38.53446
0.17004,1.59409,-0.42335,0.62445,-2.04290,-0.49724,0.20240,1.86099,-0.17828,-6.84238,-1.94843,2.18694,-0.49411,-0.81325,-0.24681,-0.18321,61.69951,37.54270,4.00254
0.17200,1.56187,-0.42656,0.52573,-2.10040,-0.44220,1.09446,2.13002,-0.36645,-5.84674,-5.37599,4.97292,-0.51212,-0.80460,-0.25949,-0.15167,53.64574,23.29822,-13.52634
0.17464,1.52758,-0.42808,0.45652,-2.17368,-0.37410,1.62114,1.93675,-0.78186,-5.74632,-7.21915,6.89841,-0.53220,-0.78999,-0.27210,-0.13652,48.54647,-3.91746,-36.07803
0.17504,1.49046,-0.42652,0.37013,-2.27290,-0.27641,1.76315,1.23139,-1.38214,-6.25667,-7.56649,8.13033,-0.55301,-0.76955,-0.28516,-0.14371,14.87287,-38.47333,-51.82794
0.17298,1.45176,-0.42275,0.26443,-2.37687,-0.16539,1.16074,0.33631,-1.74956,-6.20985,-6.25881,6.92662,-0.56322,-0.75615,-0.28586,-0.17120,-39.00246,-51.22071,-29.64815
0.17169,1.41405,-0.41998,0.19165,-2.44259,-0.09144,0.46604,-0.22438,-1.91509,-6.02253,-5.00985,5.97052,-0.56956,-0.74759,-0.27890,-0.19729,-60.44920,-41.80038,-19.12738
0.16821,1.37591,-0.41608,0.10289,-2.50131,-0.01741,-0.45303,-0.73422,-2.03356,-6.96870,-3.53328,4.94824,-0.57187,-0.74155,-0.26323,-0.23190,-67.62321,-29.74151,-11.78106
0.16239,1.33869,-0.41208,-0.00491,-2.53507,0.04247,-1.30861,-1.12973,-2.06340,-8.83393,-1.13463,3.28768,-0.57070,-0.73684,-0.24424,-0.26778,-71.84595,-21.02460,-7.64391
0.15348,1.30240,-0.40833,-0.13741,-2.54534,0.08579,-1.66923,-1.33180,-2.11196,-10.44065,0.38710,1.87401,-0.57291,-0.72886,-0.23154,-0.29484,-39.25818,-13.05428,-3.09406
0.14321,1.26739,-0.40544,-0.25958,-2.53686,0.10797,-1.71662,-1.37864,-2.20091,-10.45882,1.72769,0.99618,-0.57923,-0.71828,-0.22280,-0.31452,-8.36154,-6.39086,-7.41216
0.12960,1.23482,-0.40360,-0.40034,-2.49891,0.11186,-1.68143,-1.30197,-2.22924,-9.74702,3.88899,-0.69041,-0.58600,-0.70875,-0.21412,-0.32929,0.70372,1.34732,-3.59650
0.11349,1.20650,-0.40359,-0.55115,-2.40315,0.08836,-1.35560,-1.00540,-2.11571,-6.94525,7.44357,-2.50139,-0.59438,-0.70201,-0.20961,-0.33160,15.08216,14.26777,3.50623
0.09936,1.18095,-0.40440,-0.64698,-2.28589,0.05790,-0.62544,-0.67578,-1.78389,-6.83395,9.58052,-2.46650,-0.60245,-0.69771,-0.21735,-0.32096,47.19136,17.92864,19.15910
0.08456,1.15712,-0.40515,-0.73250,-2.17045,0.03489,0.04076,-0.45787,-1.38894,-7.01355,9.66236,-1.43339,-0.60775,-0.69501,-0.22963,-0.30802,60.94273,14.79538,34.24506
0.06714,1.13687,-0.40597,-0.83830,-2.02502,0.01539,0.48654,-0.28300,-0.99099,-6.52197,7.94519,-0.10934,-0.61009,-0.69457,-0.24075,-0.29564,36.86232,8.76052,30.41634
0.04985,1.11593,-0.40624,-0.92193,-1.91843,0.00779,0.15924,-0.21437,-0.88665,-6.04413,6.82264,0.27552,-0.61039,-0.69444,-0.23433,-0.30044,-8.65745,6.19888,10.32462
0.03241,1.09512,-0.40664,-0.99026,-1.83351,-0.00086,-0.50796,-0.11603,-0.84638,-5.53537,7.05355,-0.90602,-0.60769,-0.69708,-0.21629,-0.31306,-48.08015,8.21443,2.87572
0.01382,1.07763,-0.40847,-1.06000,-1.71561,-0.02914,-1.24637,0.21372,-0.71945,-3.22742,8.09787,-3.02509,-0.60198,-0.70536,-0.18865,-0.32327,-53.37373,21.65833,5.73327
-0.00349,1.06125,-0.41131,-1.09866,-1.60584,-0.06575,-1.30150,0.66384,-0.51040,-2.67780,8.15159,-3.17928,-0.60057,-0.71363,-0.17152,-0.31723,-12.05566,32.33624,11.63175
-0.02147,1.04595,-0.41431,-1.13981,-1.50154,-0.09721,-1.06357,1.09818,-0.29119,-3.30224,7.05392,-1.85289,-0.60126,-0.72177,-0.16023,-0.30309,16.26838,33.44124,12.60560
-0.04064,1.03092,-0.41644,-1.19041,-1.41561,-0.10917,-0.81311,1.42266,-0.17110,-4.24734,5.31218,0.12563,-0.60345,-0.72805,-0.15035,-0.28841,21.07801,26.20923,7.93772
-0.06129,1.01535,-0.41697,-1.25280,-1.35611,-0.09465,-0.75809,1.57079,-0.25154,-4.70060,2.99664,2.55887,-0.60748,-0.73042,-0.13751,-0.28026,11.40297,14.70125,-2.30881
-0.08207,0.99857,-0.41545,-1.30407,-1.32516,-0.05306,-1.20007,1.50950,-0.54707,-2.85711,1.18141,4.26822,-0.61086,-0.72878,-0.11404,-0.28762,-22.57595,-1.01017,-15.34505
-0.10135,0.98099,-0.41293,-1.32263,-1.31271,-0.00618,-1.91797,1.36600,-0.90452,-0.50482,0.76673,4.30730,-0.61229,-0.72459,-0.08177,-0.30559,-54.68041,-10.72374,-21.17755
-0.11910,0.96414,-0.40902,-1.31593,-1.29244,0.05111,-2.95872,1.20025,-1.32321,0.77331,2.14135,2.69166,-0.61027,-0.71713,-0.03711,-0.33454,-72.32740,-10.32104,-19.42353
-0.13676,0.94962,-0.40610,-1.30903,-1.23925,0.08307,-3.34684,1.21182,-1.56117,0.15999,4.91693,0.16298,-0.61068,-0.71040,-0.00147,-0.34987,-36.47790,-1.34217,-13.56846
-0.15496,0.93757,-0.40478,-1.31173,-1.16020,0.08501,-3.04007,1.34657,-1.59871,-0.43071,6.64447,-1.10063,-0.61503,-0.70670,0.01994,-0.34917,12.86458,4.97426,-8.14043
-0.17400,0.92803,-0.40461,-1.32460,-1.06017,0.06930,-2.44272,1.55508,-1.50508,-1.06680,7.72261,-1.72566,-0.62080,-0.70629,0.03355,-0.33859,40.14751,9.72919,-1.92591
-0.19326,0.92047,-0.40508,-1.33819,-0.95134,0.04721,-1.65832,1.76245,-1.36700,-0.50093,7.86436,-1.77562,-0.62845,-0.70762,0.03998,-0.32051,54.01842,11.85828,2.42999
-0.21134,0.91333,-0.40523,-1.33164,-0.86122,0.03509,-0.88612,1.81551,-1.33880,1.55456,7.40557,-0.49575,-0.63939,-0.70608,0.04107,-0.30157,64.73746,3.88042,-3.50838
-0.22727,0.90810,-0.40436,-1.29356,-0.76202,0.04093,-0.20214,1.68032,-1.31319,3.91498,6.83079,1.71735,-0.65092,-0.70272,0.03638,-0.28489,56.54299,-11.24454,-6.46885
-0.24081,0.90396,-0.40205,-1.22969,-0.66727,0.06631,0.02999,1.44405,-1.19377,5.44187,6.64466,2.73402,-0.65651,-0.70033,0.03543,-0.27799,23.93783,-18.30632,3.38638
-0.25181,0.90185,-0.39839,-1.14129,-0.56118,0.10678,-0.08823,1.15439,-0.89775,5.77651,6.59657,2.88410,-0.65426,-0.70146,0.03762,-0.28014,-4.79880,-17.79827,17.87108
-0.26299,0.89942,-0.39467,-1.07311,-0.48210,0.13882,-0.18527,0.93210,-0.66715,5.63339,6.68696,2.33758,-0.65196,-0.70258,0.04030,-0.28231,-11.25073,-17.18157,21.53401
