posX, posY, posZ, velX, velY, velZ, angVelX, angVelY, angVelZ, accX, accY, accZ, rotX, rotY, rotZ, rotW, angAccX, angAccY, angAccZ
-0.18305,1.05803,-0.30978,0.03101,0.09786,0.01862,-0.06770,-0.03359,0.13716,0.29543,0.84577,0.07093,0.42650,0.81593,0.26421,0.28732,-3.34052,-1.02790,2.54193
-0.18196,1.06151,-0.30925,0.03437,0.10859,0.01908,-0.10139,-0.04886,0.17102,0.34726,0.99603,-0.03088,0.42312,0.81750,0.26380,0.28823,-3.41862,-1.65350,2.37546
-0.18102,1.06404,-0.30898,0.04114,0.12305,0.01920,-0.11043,-0.05996,0.21629,0.66923,1.14488,-0.03476,0.42035,0.81873,0.26408,0.28853,-0.79075,-1.07711,3.30224
-0.17957,1.06703,-0.30875,0.05369,0.14129,0.01879,-0.05708,-0.04984,0.26909,1.13309,1.59566,-0.17163,0.41790,0.81983,0.26592,0.28728,1.25213,-0.27278,3.17871
-0.17711,1.07097,-0.30844,0.07856,0.16978,0.01977,0.08148,-0.02289,0.34376,2.09452,2.06317,0.22547,0.41568,0.82069,0.27051,0.28371,9.03360,2.91131,4.52301
-0.17375,1.07553,-0.30796,0.11219,0.20223,0.02284,0.17532,-0.06946,0.40772,2.79072,2.71393,0.22906,0.41254,0.82107,0.27560,0.28231,6.36550,-2.57077,4.51462
-0.16932,1.08154,-0.30754,0.15438,0.24934,0.02427,0.30120,-0.12990,0.47066,3.24866,4.24118,-0.14794,0.40932,0.82086,0.28256,0.28072,8.74938,-4.42691,3.85600
-0.16421,1.08973,-0.30762,0.19792,0.31884,0.01790,0.43313,-0.17376,0.59402,3.08234,5.80694,-0.83719,0.40434,0.82134,0.29107,0.27785,9.95760,-3.61567,8.23735
-0.15865,1.10040,-0.30853,0.23919,0.41044,0.00079,0.53147,-0.14758,0.74196,2.87669,7.36256,-1.59881,0.39843,0.82305,0.29897,0.27289,7.97928,0.00219,10.00348
-0.15259,1.11387,-0.31049,0.27955,0.52353,-0.02840,0.47127,-0.07405,0.89744,2.90867,8.78834,-2.30808,0.39062,0.82705,0.30268,0.26793,-0.23628,4.62603,11.57385
-0.14640,1.12899,-0.31308,0.31293,0.63603,-0.06000,0.32713,0.02927,1.02648,2.64126,9.98506,-2.68938,0.38208,0.83252,0.30292,0.26299,-11.59912,6.01479,10.99600
-0.13960,1.14833,-0.31648,0.34799,0.78535,-0.09642,0.10537,0.09751,1.15286,2.46040,11.59305,-2.37228,0.37168,0.83919,0.30039,0.25960,-14.76712,5.97411,8.35041
-0.13294,1.17151,-0.32015,0.37368,0.95879,-0.12935,-0.04999,0.11791,1.36822,1.27233,13.50104,-2.51185,0.35767,0.84662,0.29988,0.25570,-14.94812,-0.27470,12.63210
-0.12753,1.20028,-0.32439,0.37658,1.18062,-0.16443,-0.03603,0.16899,1.75863,-0.60244,14.66741,-2.29704,0.33893,0.85527,0.30476,0.24649,-0.81006,3.42200,22.84707
-0.12379,1.23074,-0.32877,0.35458,1.38578,-0.19472,0.06779,0.23645,2.23002,-2.38860,14.94228,-2.26913,0.31649,0.86443,0.31312,0.23356,5.65710,4.12219,31.46305
-0.12147,1.26212,-0.33327,0.31674,1.55853,-0.21990,0.22235,0.32860,2.65491,-3.83414,14.13469,-2.13539,0.29306,0.87301,0.32337,0.21771,10.47392,8.32299,35.85857
-0.12173,1.29856,-0.33843,0.24959,1.76938,-0.24965,0.45609,0.50652,3.13655,-4.80361,12.33445,-1.67242,0.26695,0.88166,0.33639,0.19557,13.33361,12.63791,31.80062
-0.12304,1.33415,-0.34330,0.18003,1.92884,-0.26940,0.55707,0.61360,3.43153,-5.32452,10.49335,-0.78184,0.24240,0.88896,0.34624,0.17638,9.40217,12.66104,23.04781
-0.12599,1.37065,-0.34781,0.10051,2.06759,-0.27965,0.46456,0.55292,3.63580,-6.15860,9.19347,-0.16580,0.21560,0.89600,0.35204,0.16359,-2.92860,-2.42106,15.57711
-0.13185,1.40852,-0.35183,-0.00656,2.20069,-0.28114,0.32998,0.37132,3.84694,-7.29706,7.54915,0.02054,0.18527,0.90230,0.35718,0.15475,-6.44865,-14.97696,13.85600
-0.13895,1.44558,-0.35556,-0.11046,2.29396,-0.27737,0.33624,0.29702,3.99469,-7.78555,5.91969,0.17668,0.15698,0.90675,0.36437,0.14284,0.44493,-8.42485,11.31064
-0.14780,1.48243,-0.35905,-0.21860,2.36471,-0.27103,0.41634,0.34849,4.07679,-8.10318,4.22544,0.52967,0.13130,0.90992,0.37230,0.12726,4.51770,2.73311,7.31523
-0.15751,1.51837,-0.36218,-0.31592,2.40802,-0.26128,0.51465,0.43159,4.10567,-8.37631,3.04964,1.03532,0.10734,0.91186,0.38051,0.11041,5.87085,8.52714,3.38096
-0.17021,1.55439,-0.36466,-0.43508,2.44207,-0.24351,0.60741,0.48618,4.13396,-8.78307,1.79439,1.64412,0.08309,0.91269,0.38902,0.09360,6.00105,7.78784,1.36907
-0.18511,1.58964,-0.36650,-0.56182,2.45827,-0.22029,0.66324,0.47876,4.18996,-9.23639,0.54616,1.88781,0.05695,0.91269,0.39706,0.07806,4.12510,1.21318,3.08970
-0.20294,1.62386,-0.36755,-0.70771,2.45706,-0.19004,0.68058,0.44824,4.24453,-9.10047,-0.74325,2.04076,0.02998,0.91206,0.40404,0.06329,2.14714,-1.91891,3.79385
-0.22005,1.65695,-0.36849,-0.81422,2.44151,-0.16472,0.68773,0.44821,4.26691,-8.85124,-1.91638,2.15578,0.00394,0.91072,0.41021,0.04806,0.84794,-1.41684,2.72545
-0.23969,1.68899,-0.36860,-0.93219,2.40925,-0.13251,0.69237,0.48997,4.25118,-8.25772,-2.75952,2.49726,-0.02075,0.90866,0.41581,0.03177,-0.00919,2.53074,-0.43201
-0.26046,1.71940,-0.36791,-1.04477,2.36425,-0.09508,0.69142,0.48261,4.22739,-7.94014,-3.78989,3.02501,-0.04539,0.90579,0.42095,0.01699,-0.82962,1.60163,-1.86969
-0.28235,1.74803,-0.36636,-1.15322,2.30659,-0.05233,0.70049,0.39761,4.20025,-7.61384,-4.44955,3.32140,-0.07061,0.90188,0.42615,0.00490,1.74931,-3.99595,-1.84162
-0.30475,1.77618,-0.36448,-1.24371,2.24959,-0.01406,0.69851,0.26979,4.18506,-7.54701,-5.16759,3.29295,-0.09711,0.89720,0.43079,-0.00544,2.87646,-8.46087,-2.56437
-0.33021,1.80121,-0.36125,-1.35990,2.16052,0.03550,0.71385,0.15265,4.17578,-7.10908,-6.00274,2.95255,-0.12379,0.89149,0.43552,-0.01524,3.80573,-8.06693,-1.18382
-0.35639,1.82422,-0.35781,-1.46775,2.05874,0.08052,0.69777,0.09148,4.16795,-6.70749,-6.82521,2.72391,-0.14983,0.88557,0.43891,-0.02612,0.61487,-4.67298,-1.25725
-0.38051,1.84901,-0.35522,-1.52014,2.00307,0.10232,0.70632,0.10305,4.19346,-6.64547,-7.06080,2.66415,-0.17598,0.87839,0.44261,-0.03942,0.40200,-2.67433,0.07840
-0.40974,1.86721,-0.35018,-1.63323,1.86763,0.15382,0.74434,0.34011,4.31301,-6.12681,-8.09909,2.87712,-0.20157,0.86925,0.44723,-0.06126,-1.52265,12.32081,7.23490
-0.43797,1.88497,-0.34525,-1.71293,1.75017,0.19480,0.77437,0.50818,4.43034,-5.24354,-8.78432,3.17020,-0.22778,0.85884,0.45132,-0.08256,-2.14256,14.44196,9.42821
-0.46595,1.90181,-0.34005,-1.77063,1.64290,0.23048,0.80945,0.53461,4.50247,-4.19664,-9.30920,3.15919,-0.25485,0.84738,0.45495,-0.10011,0.59528,6.53474,7.38068
-0.49473,1.91405,-0.33370,-1.82773,1.49251,0.27480,0.88492,0.46958,4.48907,-2.85694,-9.79670,2.52330,-0.28094,0.83500,0.45933,-0.11340,6.00266,-3.73948,1.11443
-0.52282,1.92422,-0.32736,-1.86404,1.33809,0.31111,0.91766,0.49647,4.40034,-1.74384,-9.83744,1.97516,-0.30316,0.82292,0.46315,-0.12796,2.14830,3.27453,-5.91219
-0.55014,1.93359,-0.32143,-1.88282,1.20165,0.33452,0.91297,0.42598,4.30057,-0.71270,-9.92851,1.58377,-0.32568,0.81122,0.46515,-0.13958,-0.51332,-1.28796,-6.17278
-0.57691,1.94217,-0.31575,-1.88946,1.08420,0.34851,0.93941,0.25978,4.17942,-0.18864,-9.82200,0.96587,-0.34853,0.79930,0.46699,-0.14683,4.94930,-10.35650,-10.10047
-0.60342,1.94662,-0.30996,-1.88779,0.92995,0.36025,0.97145,0.06044,4.02778,0.57156,-9.71944,0.42940,-0.37084,0.78756,0.46838,-0.15113,4.67759,-11.25653,-10.84905
-0.62897,1.95047,-0.30466,-1.87508,0.79710,0.36361,0.97901,-0.06094,3.90871,1.19227,-9.39352,-0.06443,-0.39234,0.77549,0.46920,-0.15666,4.96305,-8.89760,-8.94484
-0.65364,1.95359,-0.29969,-1.85558,0.68625,0.36282,0.94521,-0.08391,3.81353,1.84934,-9.10091,-0.21177,-0.41223,0.76339,0.46928,-0.16456,-0.94081,-4.08166,-8.58418
-0.67758,1.95523,-0.29482,-1.82850,0.57853,0.36037,0.88162,-0.05584,3.71820,2.39304,-8.82859,-0.29920,-0.43048,0.75154,0.46867,-0.17385,-3.98232,-0.22798,-7.77532
-0.69985,1.95336,-0.28987,-1.78429,0.44274,0.35994,0.76826,0.08008,3.57898,3.01588,-8.21146,0.15516,-0.44459,0.74083,0.46785,-0.18607,-9.80343,6.46469,-7.50301
-0.72131,1.95177,-0.28471,-1.73950,0.33216,0.36261,0.74564,0.11938,3.42409,3.43745,-7.64870,0.48268,-0.45876,0.72965,0.46821,-0.19476,-5.96819,5.93335,-10.18543
-0.74212,1.94924,-0.27937,-1.69262,0.22982,0.36715,0.82925,0.05138,3.25386,3.38485,-7.05455,0.46907,-0.47384,0.71765,0.47019,-0.19843,6.26869,-3.11337,-11.86187
-0.76173,1.94509,-0.27371,-1.63720,0.12353,0.37521,0.92167,0.00552,3.04007,3.54822,-6.40561,0.52694,-0.48685,0.70621,0.47326,-0.20068,5.96879,-0.74932,-13.08460
-0.78096,1.94095,-0.26793,-1.58748,0.03721,0.38337,0.99802,-0.00201,2.84581,3.48515,-6.17353,0.53736,-0.49874,0.69479,0.47671,-0.20318,6.13677,-0.03813,-14.24845
-0.80009,1.93646,-0.26204,-1.54517,-0.03558,0.39099,1.00213,0.08789,2.72506,3.28237,-6.14456,0.45309,-0.50946,0.68290,0.47983,-0.20942,2.52815,5.57116,-11.87011
-0.81741,1.92797,-0.25591,-1.48484,-0.14676,0.40150,0.97554,0.27111,2.63386,3.26585,-6.18424,0.59363,-0.51815,0.67054,0.48370,-0.21893,-4.51287,10.33054,-5.13498
-0.83527,1.91989,-0.25017,-1.44465,-0.22409,0.40543,0.95824,0.39270,2.62349,3.16602,-6.27629,0.19465,-0.52861,0.65683,0.48673,-0.22854,-1.91577,9.66509,-1.68287
-0.85309,1.91156,-0.24459,-1.41229,-0.28859,0.40561,0.92319,0.46595,2.63500,3.18661,-6.29563,0.00094,-0.53955,0.64295,0.48858,-0.23831,-5.02342,9.21105,1.43728
-0.86799,1.89828,-0.23986,-1.34738,-0.41604,0.39296,1.05898,0.38750,2.62782,3.29313,-6.38925,-1.00862,-0.55318,0.62738,0.49186,-0.24178,7.90082,-2.75813,-0.84521
-0.88389,1.88746,-0.23541,-1.30800,-0.49203,0.37747,1.13491,0.29746,2.65191,3.11605,-6.47993,-1.71030,-0.56751,0.61177,0.49345,-0.24532,10.79203,-6.24970,-1.10988
-0.89966,1.87625,-0.23133,-1.27503,-0.55484,0.36034,1.11361,0.25320,2.71554,3.18668,-6.37880,-2.11933,-0.58165,0.59615,0.49295,-0.25156,4.68864,-5.69023,3.60775
-0.91296,1.86089,-0.22882,-1.21411,-0.66423,0.32430,0.93610,0.21186,2.88223,3.41108,-6.04808,-2.10286,-0.59682,0.58082,0.48735,-0.26255,-9.96166,-4.56298,8.61678
-0.92638,1.84614,-0.22637,-1.16556,-0.74628,0.29379,0.87056,0.12739,3.01070,3.61721,-5.76652,-2.07250,-0.61279,0.56437,0.48235,-0.27075,-6.14406,-6.89234,9.58815
-0.93908,1.83044,-0.22427,-1.11477,-0.82460,0.26418,0.91864,0.00271,3.11758,3.76702,-5.46583,-2.04555,-0.63026,0.54615,0.47801,-0.27570,3.96853,-8.78751,6.63404
-0.95088,1.81404,-0.22264,-1.06098,-0.89549,0.23466,1.04122,-0.13220,3.15949,4.14036,-4.63489,-2.08140,-0.64773,0.52735,0.47477,-0.27737,9.47554,-7.77245,4.84031
-0.96167,1.79752,-0.22138,-1.00400,-0.95424,0.20573,1.10365,-0.21435,3.16078,4.12192,-3.99616,-2.32555,-0.66349,0.50938,0.47136,-0.27951,9.13449,-5.20667,-0.95822
-0.97147,1.78067,-0.22067,-0.94311,-1.00514,0.17448,1.03615,-0.25529,3.21124,4.48134,-3.42121,-2.39956,-0.67842,0.49176,0.46532,-0.28531,-2.05512,-4.43837,2.56178
-0.97956,1.76341,-0.22086,-0.86941,-1.05269,0.13617,0.90023,-0.28582,3.27541,4.78091,-2.62755,-2.63443,-0.69254,0.47466,0.45730,-0.29320,-7.61228,-3.13806,4.06077
-0.98718,1.74664,-0.22151,-0.80324,-1.08437,0.09839,0.80362,-0.34838,3.30012,4.89281,-1.91803,-2.76744,-0.70644,0.45808,0.44872,-0.29960,-7.16707,-6.31941,2.09692
-0.99372,1.72996,-0.22308,-0.73406,-1.10717,0.05463,0.77984,-0.45017,3.29610,5.18609,-1.24983,-3.36939,-0.72085,0.44130,0.43991,-0.30348,-1.70566,-6.57753,0.12809
-0.99975,1.71382,-0.22530,-0.67282,-1.11757,0.01113,0.81280,-0.57584,3.25624,5.20329,-0.38222,-3.74448,-0.73544,0.42483,0.43106,-0.30467,2.96309,-9.00043,-2.79532
-1.00424,1.69842,-0.22898,-0.60311,-1.11568,-0.04408,0.93250,-0.76123,3.15466,5.03154,0.75560,-4.05227,-0.75077,0.40926,0.42225,-0.30093,10.60663,-9.67941,-6.43990
-1.00800,1.68411,-0.23355,-0.53626,-1.09722,-0.10085,1.08762,-0.95176,2.98327,4.77955,1.89191,-4.06007,-0.76567,0.39518,0.41398,-0.29359,13.96732,-9.95997,-10.75413
-1.01092,1.67107,-0.23875,-0.47112,-1.06493,-0.15534,1.17838,-1.12827,2.78527,4.64491,2.68492,-3.85485,-0.77937,0.38339,0.40498,-0.28563,11.97829,-9.60925,-14.74007
-1.01294,1.65930,-0.24430,-0.40614,-1.02153,-0.20379,1.24243,-1.27686,2.58208,4.76479,3.52872,-3.27782,-0.79214,0.37292,0.39584,-0.27706,8.69789,-8.70784,-14.36398
-1.01397,1.64888,-0.24982,-0.33969,-0.96619,-0.24190,1.19953,-1.37228,2.37075,4.75088,4.34929,-2.38571,-0.80285,0.36484,0.38619,-0.27051,2.31986,-6.38765,-16.00958
-1.01352,1.64069,-0.25492,-0.26463,-0.88975,-0.26666,1.06688,-1.38460,2.13798,4.63002,5.18284,-0.88556,-0.81082,0.35926,0.37733,-0.26671,-6.18966,-2.30818,-15.21796
-1.01349,1.63272,-0.25909,-0.21086,-0.82596,-0.27328,0.96753,-1.32205,1.95859,4.42865,5.55960,-0.27337,-0.81775,0.35273,0.37041,-0.26394,-8.46736,3.93253,-15.85939
-1.01211,1.62671,-0.26300,-0.14917,-0.74717,-0.27461,0.81555,-1.22712,1.76891,4.34872,5.70791,-0.02203,-0.82278,0.34808,0.36420,-0.26311,-8.20850,6.35884,-14.52254
-1.00945,1.62266,-0.26662,-0.08046,-0.65512,-0.27175,0.55943,-1.12237,1.60245,4.27592,5.82946,0.18975,-0.82602,0.34538,0.35715,-0.26616,-16.02171,4.87005,-12.28779
-1.00349,1.62317,-0.27106,0.03354,-0.49970,-0.28335,0.35313,-1.00941,1.42181,4.54333,6.33555,-1.27229,-0.82865,0.34306,0.35134,-0.26872,-5.91301,4.42216,-6.49528
-0.99716,1.61741,-0.28065,0.11263,-0.38012,-0.30855,0.07232,-1.13757,1.33018,4.41090,7.03348,-1.74080,-0.83938,0.33581,0.32996,-0.27165,-13.44602,-7.83779,-5.70875
-0.99159,1.61884,-0.28654,0.17292,-0.27835,-0.33251,-0.20808,-1.30291,1.22356,4.37603,7.60185,-1.90460,-0.84332,0.33767,0.31409,-0.27594,-17.90726,-12.37456,-8.38517
-0.98526,1.62224,-0.29291,0.23196,-0.16864,-0.35871,-0.46340,-1.50007,1.06544,4.30431,8.29091,-1.74328,-0.84657,0.34241,0.29653,-0.27954,-17.67126,-16.35136,-11.00375
-0.97813,1.62768,-0.29956,0.29085,-0.05131,-0.38388,-0.56451,-1.62867,0.82084,4.34409,8.86454,-1.44324,-0.84888,0.34904,0.28192,-0.27947,-9.61888,-12.65119,-16.61972
-0.97010,1.63533,-0.30656,0.35058,0.07476,-0.40854,-0.42237,-1.63416,0.49778,4.33606,9.56212,-1.51443,-0.85075,0.35597,0.27375,-0.27308,9.14734,-2.51142,-20.64977
-0.96140,1.64543,-0.31364,0.40796,0.21107,-0.42930,-0.26346,-1.62558,0.11225,4.10822,10.16123,-1.44554,-0.85128,0.36588,0.26779,-0.26409,16.84623,1.31340,-24.63288
-0.95251,1.65675,-0.32049,0.45544,0.33522,-0.44223,-0.23359,-1.64112,-0.26066,4.07615,10.64379,-1.08219,-0.85000,0.37901,0.26062,-0.25675,9.70885,-1.40983,-28.72802
-0.94217,1.67176,-0.32726,0.51414,0.48634,-0.45124,-0.31744,-1.68079,-0.72375,4.51070,11.08087,-0.44400,-0.84545,0.39830,0.25277,-0.25037,-0.50950,-3.89324,-33.07985
-0.93055,1.68892,-0.33403,0.57892,0.63719,-0.45827,-0.29898,-1.90355,-1.09715,4.72854,10.50066,-0.93124,-0.84247,0.41851,0.24053,-0.23925,-2.49538,-1.36133,-34.92400
-0.91697,1.70818,-0.34069,0.65988,0.78862,-0.46203,-0.38678,-2.08705,-1.51568,7.55210,11.85976,0.66085,-0.83675,0.44255,0.22692,-0.22914,3.55848,-33.69437,-18.20678
-0.90008,1.73035,-0.34611,0.77258,0.95183,-0.44742,-0.56318,-1.61703,-2.09176,8.81548,11.68288,1.33448,-0.82079,0.46930,0.23198,-0.22856,-4.96974,25.78945,-43.26789
-0.88005,1.75438,-0.35166,0.90721,1.10776,-0.43741,-0.62448,-1.49060,-2.51969,10.75112,11.05425,0.49243,-0.80699,0.49608,0.23056,-0.22253,2.58259,16.10525,-35.22092
-0.85449,1.78193,-0.35704,1.09832,1.28637,-0.42685,-0.59867,-1.35368,-2.98873,13.19320,11.25095,0.78771,-0.79076,0.52476,0.23162,-0.21373,5.21408,5.64414,-28.99947
-0.82783,1.80887,-0.36227,1.26666,1.42000,-0.41657,-0.64012,-1.27330,-3.37436,15.29023,11.26751,0.83639,-0.77302,0.55383,0.23082,-0.20599,5.15216,6.62330,-31.10178
-0.79690,1.83825,-0.36701,1.45611,1.55656,-0.40113,-0.76421,-1.19778,-3.84394,16.84175,11.58315,1.44353,-0.74995,0.58746,0.22970,-0.19925,-2.96904,5.15525,-35.72889
-0.75661,1.87266,-0.37017,1.74275,1.73826,-0.36627,-1.21407,-1.03649,-4.64005,19.90028,10.88565,2.21485,-0.71291,0.63255,0.22765,-0.19953,-15.09374,11.69530,-50.51645
-0.71079,1.90745,-0.37232,2.06007,1.89365,-0.32288,-1.81768,-0.88735,-5.13178,19.61860,8.92093,4.27224,-0.67445,0.67385,0.21936,-0.20716,-35.36362,6.85674,-48.22066
-0.66192,1.94097,-0.37291,2.35638,1.99753,-0.26511,-2.07111,-0.22418,-5.68002,29.89044,8.43913,5.42502,-0.62862,0.71055,0.22949,-0.21747,-4.04579,48.59593,-27.20099
-0.60300,1.97569,-0.37187,2.72890,2.09587,-0.19767,-2.56284,0.25322,-6.72362,31.80704,6.91441,5.32274,-0.56185,0.75976,0.23496,-0.22780,-5.09043,41.86679,-89.55795
-0.52546,2.01303,-0.36612,3.30214,2.21420,-0.07459,-3.16845,1.52886,-8.26761,34.42826,6.52808,8.30535,-0.46214,0.80963,0.25771,-0.25400,-13.27521,69.02256,-94.47308
-0.45037,2.04807,-0.36125,3.72707,2.27451,0.01185,-2.71689,2.37660,-9.61678,37.98993,3.99962,7.70839,-0.36422,0.84671,0.29453,-0.25234,34.60065,32.37753,-115.93390
-0.37028,2.08067,-0.35638,4.12049,2.28565,0.07770,-2.15134,3.05789,-11.00572,42.09679,-2.44805,5.91487,-0.25199,0.87526,0.33546,-0.24060,50.00214,-3.80382,-144.47290
-0.26339,2.10213,-0.35012,4.82591,2.13209,0.14389,-1.27011,4.03985,-13.29103,47.61753,-18.33958,1.93399,-0.09579,0.88835,0.39462,-0.21434,40.80842,7.74692,-159.08370
-0.14800,2.10172,-0.34876,5.57303,1.65505,0.11447,-0.08669,3.47311,-15.77950,46.78621,-43.32124,-4.48306,0.06369,0.88712,0.43681,-0.13477,-15.18602,-52.64932,-166.82890
-0.04254,2.09055,-0.35080,5.98939,1.13919,0.05050,0.36251,2.34424,-17.08451,38.05548,-61.06201,-7.64951,0.19575,0.87170,0.44635,-0.05085,-87.40661,-69.00410,-151.51730
0.07281,2.01220,-0.36018,6.43458,-0.20470,-0.09608,0.05140,0.30739,-18.24606,9.47186,-87.02232,-7.89392,0.31805,0.84784,0.41962,0.06269,-117.84740,-14.40816,-74.88921
0.15832,1.91993,-0.36706,6.37752,-1.48524,-0.17203,-0.58789,-0.92231,-18.41223,-21.07398,-91.64761,-2.88549,0.41560,0.81163,0.38263,0.14875,-102.06050,26.03211,-22.05624
0.21016,1.81483,-0.36912,5.85123,-2.69401,-0.16346,-0.90007,-1.31803,-17.11737,-52.99004,-77.12272,2.59836,0.47438,0.78007,0.35657,0.19829,-64.70267,23.46238,60.24524
0.23354,1.71228,-0.36535,5.01353,-3.61917,-0.07524,-0.05966,-0.35380,-15.13742,-67.38869,-52.30750,6.40367,0.52182,0.74593,0.36549,0.19419,49.17901,-4.84754,136.77030
0.23757,1.62125,-0.35827,4.07201,-4.19643,0.04191,2.38413,1.55983,-13.03070,-67.62179,-29.48708,7.60665,0.57090,0.69285,0.41915,0.13543,187.96990,-61.60590,133.52370
0.22480,1.53967,-0.35063,3.06845,-4.52963,0.14340,5.95366,2.86575,-10.82081,-58.30106,-14.42658,5.27718,0.60123,0.61192,0.51082,0.05599,246.54430,-159.31550,77.64629
0.21582,1.46921,-0.34656,2.30812,-4.62777,0.17239,7.44548,2.64834,-9.54123,-50.07978,-3.30900,1.84617,0.62362,0.53859,0.56594,0.02702,115.40190,-129.99530,33.86156
0.20992,1.40689,-0.34491,1.75956,-4.59114,0.16116,6.96407,1.71858,-8.66765,-41.43713,3.73691,-0.75153,0.63806,0.49480,0.58864,0.03938,-15.57458,-94.01812,41.18016
0.19837,1.35464,-0.34595,1.24931,-4.42142,0.11476,3.67620,0.46918,-7.30288,-31.38111,15.70365,-2.69600,0.63319,0.52574,0.55939,0.09882,-213.68310,-2.87682,66.84151
0.18824,1.31096,-0.34761,0.85885,-4.15888,0.06772,-0.50121,-0.35338,-5.94447,-26.30384,18.85850,-3.25923,0.61750,0.58839,0.49101,0.17718,-294.29330,62.46624,127.37680
0.17493,1.27509,-0.34965,0.49759,-3.83580,0.02491,-4.56881,-0.46617,-4.72207,-20.74639,23.33440,-3.23124,0.59493,0.65471,0.39029,0.25512,-278.95590,98.35756,49.63455
0.16660,1.23845,-0.35022,0.27909,-3.59399,0.01169,-5.55647,-0.14140,-3.72765,-16.65399,22.24579,-2.23297,0.58430,0.68217,0.33670,0.28261,-130.03560,99.61549,59.20731
0.15547,1.20623,-0.35071,0.06694,-3.33813,0.00254,-4.98526,0.25676,-2.71367,-13.72752,18.71482,-1.61937,0.57960,0.69687,0.31676,0.27947,17.31843,51.32325,60.92294
0.14441,1.17479,-0.35079,-0.10194,-3.12388,0.00094,-3.22193,0.60210,-1.96505,-11.03493,14.21505,-0.04136,0.58737,0.69436,0.33038,0.25241,122.21550,19.97722,47.56801
0.13175,1.14479,-0.35015,-0.26309,-2.93115,0.00970,-1.66120,0.72198,-1.52371,-9.88464,9.10382,1.71991,0.59717,0.68513,0.34938,0.22785,119.24400,0.83387,26.08154
0.11929,1.11241,-0.34928,-0.38984,-2.80585,0.01900,-1.68752,0.71974,-1.43517,-8.43973,6.59730,1.73663,0.60133,0.68587,0.33655,0.23394,24.39490,-0.31087,10.49906
0.10845,1.07815,-0.34845,-0.46570,-2.73706,0.02608,-2.25092,0.65536,-1.56541,-7.27828,5.66808,1.15076,0.60432,0.68846,0.30931,0.25524,-36.99393,2.36437,-0.85744
0.09310,1.04655,-0.34763,-0.59078,-2.64490,0.03137,-3.29365,0.65025,-1.99455,-7.00783,4.78386,-0.56297,0.60862,0.68964,0.26285,0.29134,-64.12912,0.89356,-21.03592
0.07890,1.01387,-0.34755,-0.67794,-2.58580,0.02557,-3.70382,0.83939,-2.38337,-5.99663,4.79877,-0.89523,0.61885,0.68498,0.22257,0.31353,-36.94226,11.27885,-27.66782
0.06519,0.98126,-0.34741,-0.73823,-2.53657,0.02218,-3.63111,0.95874,-2.62885,-6.15790,6.27279,-0.98754,0.63073,0.67663,0.19277,0.32739,-15.09294,8.80918,-30.10500
0.04596,0.95763,-0.34705,-0.86830,-2.36540,0.02252,-2.54746,1.05748,-2.76538,-4.88534,10.21985,-0.06783,0.65219,0.66101,0.18760,0.32018,48.27787,-6.44196,-8.87338
0.03003,0.93316,-0.34640,-0.92678,-2.23672,0.02695,-1.68227,1.08487,-2.66517,-3.93900,11.61532,0.49914,0.66779,0.64995,0.18512,0.31200,69.84052,-11.66181,0.36297
0.01439,0.91309,-0.34515,-0.96706,-2.07024,0.03933,-1.04104,0.84297,-2.41800,-1.54033,11.51304,1.73667,0.67732,0.64044,0.18934,0.30858,59.37501,-27.43040,15.01009
0.00004,0.89691,-0.34352,-0.98053,-1.87847,0.05416,-0.96293,0.73583,-2.16417,-0.97132,12.06390,1.22450,0.68171,0.63628,0.18232,0.31173,8.12764,-8.28487,16.99453
-0.01437,0.88064,-0.34198,-0.99290,-1.72952,0.06465,-1.14391,0.73829,-1.97369,-1.07990,12.66581,1.04647,0.68429,0.63433,0.16783,0.31813,-7.16618,0.84683,15.24654
-0.02906,0.86870,-0.34054,-1.00557,-1.54767,0.07114,-1.54588,0.82888,-1.68087,-0.76980,13.09280,0.27936,0.68139,0.63796,0.14699,0.32727,-23.83756,9.35542,20.44012
-0.04313,0.85936,-0.33999,-1.00694,-1.36615,0.06442,-1.86551,0.98722,-1.28412,1.19745,13.03530,-1.62160,0.67503,0.64591,0.12567,0.33368,-29.34441,17.41874,26.40200
-0.05516,0.85161,-0.33996,-0.97837,-1.19959,0.05152,-1.37952,1.00929,-0.91039,2.44723,11.82715,-1.62294,0.67497,0.65028,0.12356,0.32600,19.49349,8.74006,27.42265
-0.06669,0.84479,-0.33946,-0.94719,-1.05254,0.04855,-0.58021,0.82674,-0.69818,2.01969,9.73210,0.53457,0.68037,0.64846,0.13461,0.31381,61.75711,-13.36379,15.37405
-0.07774,0.83876,-0.33802,-0.91707,-0.92480,0.06019,-0.21804,0.63755,-0.58404,2.09863,8.48158,1.93210,0.68366,0.64621,0.14027,0.30877,37.10926,-16.78426,6.76218
-0.08848,0.83480,-0.33556,-0.88895,-0.79123,0.08482,-0.41284,0.54047,-0.49642,2.03939,7.91953,2.43051,0.68222,0.64703,0.13401,0.31299,-3.06110,2.62158,4.52619
-0.09936,0.83104,-0.33298,-0.86687,-0.68009,0.10628,-0.97154,0.48846,-0.34553,1.50723,7.76284,1.13160,0.67465,0.65152,0.11944,0.32573,-38.84182,-12.65747,12.31845
-0.10954,0.82744,-0.33114,-0.84014,-0.59232,0.11244,-1.29022,0.60700,-0.16476,2.93865,6.98694,-0.24984,0.66741,0.65838,0.10418,0.33203,-35.94691,9.79893,14.68620
-0.11823,0.82409,-0.32956,-0.79706,-0.52076,0.11348,-1.29266,0.68666,-0.04814,3.96129,5.65530,-0.36274,0.66321,0.66354,0.09429,0.33314,-11.31791,11.16602,13.62200
-0.12481,0.82219,-0.32736,-0.73240,-0.44305,0.12357,-0.97109,0.57851,-0.06124,3.86835,4.72891,0.94206,0.66444,0.66328,0.09446,0.33114,18.52086,-2.80519,0.71403
-0.13382,0.81737,-0.32532,-0.71699,-0.42484,0.12858,-0.86789,0.51718,-0.08222,3.84350,4.64748,1.27037,0.66439,0.66336,0.09089,0.33209,21.48847,-8.35333,-2.20322
-0.14249,0.81295,-0.32308,-0.70146,-0.40676,0.13451,-0.76972,0.43277,-0.11729,3.89712,4.59937,1.54407,0.66504,0.66224,0.08885,0.33358,23.74404,-12.64315,-4.11938
-0.14654,0.81397,-0.31902,-0.63705,-0.32957,0.16164,-0.50975,0.08878,-0.21627,4.12482,5.18526,2.06434,0.66917,0.65433,0.09918,0.33798,20.61713,-23.19170,-7.08155
-0.14624,0.82466,-0.31593,-0.52105,-0.12954,0.17196,-0.98683,0.04113,0.15720,3.99784,6.41760,-1.43053,0.65355,0.66360,0.09059,0.35257,-20.75756,4.66872,16.19922
-0.14610,0.83191,-0.31585,-0.40276,0.01709,0.13638,-0.67492,0.24644,0.50070,3.97952,4.58343,-1.06523,0.64695,0.67363,0.09122,0.34548,14.04669,7.75854,10.19697
-0.15400,0.83587,-0.31261,-0.35590,0.06765,0.12992,-0.39202,0.20288,0.53896,3.77520,4.09759,-0.26255,0.64165,0.67965,0.09297,0.34309,22.40293,-0.21346,5.26648
-0.15569,0.84018,-0.31078,-0.31125,0.11511,0.13160,-0.16657,0.09735,0.56078,3.62687,3.87533,0.75005,0.64021,0.68128,0.09960,0.34069,23.66702,-6.53206,1.66967
-0.15597,0.84618,-0.30823,-0.25538,0.17689,0.14358,-0.22808,-0.06233,0.61790,3.50201,3.64410,1.39300,0.63465,0.68363,0.10285,0.34540,2.71313,-10.36514,3.08117
-0.15613,0.85230,-0.30575,-0.20817,0.22916,0.15234,-0.52897,-0.15175,0.72017,3.28105,3.73334,0.24024,0.62463,0.68848,0.09969,0.35482,-21.47629,-8.92385,6.92768
-0.15627,0.85864,-0.30398,-0.17013,0.27328,0.14882,-0.65611,-0.17606,0.81507,3.10383,3.82000,-1.05099,0.61565,0.69378,0.09818,0.36055,-17.28390,-4.56998,7.61510
-0.15493,0.86713,-0.30373,-0.11870,0.34012,0.12482,-0.54374,-0.12389,1.02009,2.55713,3.69189,-1.78927,0.60646,0.70198,0.10169,0.35929,5.10777,3.44860,10.80212
-0.15455,0.87464,-0.30359,-0.09056,0.38033,0.10404,-0.37286,-0.06660,1.14243,2.09683,3.14181,-1.75429,0.59934,0.70907,0.10637,0.35596,11.95813,5.35269,11.64935
-0.15382,0.88263,-0.30379,-0.06348,0.41842,0.08309,-0.16695,-0.02284,1.23536,1.70804,2.42196,-1.11026,0.59309,0.71575,0.11282,0.35102,15.54094,5.71835,7.49666
-0.15292,0.89068,-0.30376,-0.03866,0.45033,0.06871,-0.06573,-0.01463,1.28604,1.40576,1.55953,-0.46609,0.58650,0.72171,0.11800,0.34819,7.77148,1.86167,4.36465
