posX, posY, posZ, velX, velY, velZ, angVelX, angVelY, angVelZ, accX, accY, accZ, rotX, rotY, rotZ, rotW, angAccX, angAccY, angAccZ
-0.27117,1.53134,-0.46601,-0.65250,1.39759,-0.30648,1.53291,0.92881,2.53454,-3.57194,2.92181,2.55823,0.16259,0.89155,0.40292,0.12789,18.65181,9.81629,5.80044
-0.28736,1.55552,-0.46640,-0.77463,1.47842,-0.24378,1.58061,0.79464,2.76121,-3.97663,2.03634,1.71021,0.14316,0.89017,0.41735,0.11369,0.23728,-5.71536,6.33847
-0.31176,1.59802,-0.47191,-0.81994,1.50111,-0.22429,1.53797,0.76553,2.82353,-3.80905,1.83264,1.56692,0.11338,0.88753,0.43843,0.08490,-2.59968,-5.03095,5.73073
-0.32654,1.62039,-0.47357,-0.87139,1.52420,-0.20224,1.47193,0.73341,2.87823,-3.82423,1.41342,1.61209,0.09663,0.88632,0.44730,0.07091,-3.17525,-2.82991,3.97643
-0.34212,1.64250,-0.47498,-0.92516,1.53981,-0.18072,1.40463,0.72516,2.92985,-4.01937,0.91525,1.49016,0.07978,0.88495,0.45534,0.05633,-4.27676,-3.68888,3.94902
-0.35855,1.66441,-0.47604,-0.97921,1.54889,-0.15899,1.32629,0.76399,2.97242,-3.94363,0.31907,1.62625,0.06349,0.88363,0.46211,0.04035,-4.75533,1.09274,3.90830
-0.37583,1.68602,-0.47666,-1.03310,1.55029,-0.13539,1.22850,0.81354,3.00760,-3.93735,-0.21821,1.82563,0.04727,0.88240,0.46752,0.02379,-6.70766,1.94110,3.53734
-0.39426,1.70696,-0.47637,-1.09517,1.54259,-0.10263,1.09516,0.88667,3.02682,-4.04866,-0.73025,2.37860,0.03175,0.88164,0.47081,0.00657,-9.87552,2.22151,1.67077
-0.41320,1.72738,-0.47511,-1.15146,1.52866,-0.06262,1.03909,1.01351,3.06526,-4.14450,-1.11613,3.24972,0.01677,0.87963,0.47518,-0.01323,-6.93856,6.03754,3.11028
-0.43303,1.74728,-0.47245,-1.20787,1.50841,-0.01037,1.01010,1.07774,3.12025,-3.92052,-1.74831,4.37735,0.00050,0.87671,0.47992,-0.03254,-3.52213,6.96211,4.81366
-0.45395,1.76597,-0.46762,-1.27036,1.47473,0.06408,1.01560,0.96505,3.19712,-3.75219,-2.31462,5.21903,-0.01919,0.87269,0.48558,-0.04742,1.14351,-5.75283,4.46684
-0.47450,1.78438,-0.46240,-1.31373,1.44424,0.12803,1.07862,0.85774,3.26822,-3.51125,-2.71326,5.51509,-0.03943,0.86713,0.49264,-0.06188,5.98854,-9.23230,4.66841
-0.49588,1.80170,-0.45514,-1.35853,1.40267,0.20730,1.18952,0.80018,3.35931,-3.04241,-3.22525,5.76236,-0.06042,0.85980,0.50104,-0.07776,8.94269,-4.58824,5.28684
-0.51730,1.81786,-0.44659,-1.39541,1.35351,0.28930,1.34044,0.79572,3.44720,-2.36116,-3.91853,5.93118,-0.08118,0.85060,0.51074,-0.09505,10.37700,1.00807,6.52500
-0.53837,1.83314,-0.43759,-1.41939,1.30302,0.36032,1.50518,0.83002,3.47521,-1.77111,-4.54000,5.87827,-0.10004,0.83989,0.52144,-0.11264,11.87832,4.16524,3.46935
-0.55961,1.84684,-0.42664,-1.43854,1.23952,0.44264,1.74750,0.96225,3.48071,-1.15942,-4.52665,5.73385,-0.11679,0.82604,0.53513,-0.13291,13.94704,10.36342,0.71240
-0.58039,1.86017,-0.41551,-1.44815,1.18488,0.51080,1.95196,1.18362,3.49085,-0.66985,-4.67229,5.40919,-0.13153,0.81060,0.54874,-0.15657,13.41795,19.18637,1.52953
-0.60109,1.87046,-0.40180,-1.45442,1.09769,0.60172,2.16643,1.60679,3.54332,-0.10237,-5.21451,4.57439,-0.14312,0.79181,0.56329,-0.18778,6.71815,25.50883,5.41037
-0.62157,1.88133,-0.38962,-1.45412,1.03409,0.65272,2.22392,1.83682,3.56600,0.39502,-5.62285,4.03899,-0.15573,0.77469,0.57380,-0.21533,1.51845,23.10850,6.44684
-0.64174,1.89085,-0.37718,-1.45055,0.96668,0.69634,2.24571,1.91827,3.55335,0.64472,-5.86983,3.52396,-0.16901,0.75789,0.58298,-0.23912,-1.15827,12.09162,2.50200
-0.66157,1.89675,-0.36353,-1.44333,0.86240,0.74901,2.26166,1.80930,3.49281,0.45221,-5.84220,2.52557,-0.18403,0.74189,0.59151,-0.25662,2.51103,-4.51550,-4.62033
-0.68158,1.90295,-0.35064,-1.43882,0.78042,0.78085,2.21470,1.68626,3.47117,0.30618,-5.99851,1.99108,-0.20013,0.72654,0.59757,-0.27385,-1.07169,-7.99547,-3.29163
-0.70164,1.90938,-0.33833,-1.43753,0.71996,0.79890,2.18005,1.53965,3.45763,0.18590,-6.08589,1.68765,-0.21720,0.71103,0.60287,-0.28949,-0.97461,-11.21842,-2.82583
-0.72154,1.91062,-0.32552,-1.43712,0.59697,0.82357,2.14212,1.14221,3.40024,-0.02834,-6.37660,0.93286,-0.23846,0.69803,0.60654,-0.29664,2.60542,-19.29797,-5.82613
-0.74151,1.91362,-0.31353,-1.43701,0.51976,0.83203,2.12410,0.93732,3.37062,-0.16373,-6.55269,0.50370,-0.25778,0.68310,0.61039,-0.30716,3.25732,-18.31307,-6.91817
-0.76146,1.91448,-0.30165,-1.43703,0.42847,0.83747,2.07868,0.81348,3.40154,-0.21346,-6.51396,0.19056,-0.27721,0.66762,0.61257,-0.31968,0.35613,-11.37871,-1.39620
-0.78119,1.91429,-0.29012,-1.43616,0.33880,0.83868,1.98640,0.76152,3.48754,0.12134,-6.57962,-0.03275,-0.29644,0.65184,0.61245,-0.33486,-4.05314,-6.67193,5.51000
-0.80067,1.91282,-0.27871,-1.43028,0.24774,0.83749,1.88428,0.71547,3.51977,0.69273,-6.65675,0.02555,-0.31442,0.63650,0.61149,-0.34941,-7.14067,-5.08419,4.44531
-0.81989,1.90988,-0.26733,-1.42176,0.15468,0.83533,1.85561,0.56141,3.44495,0.82596,-6.80647,-0.08868,-0.33267,0.62192,0.61161,-0.35844,-1.92371,-8.76526,-4.18151
-0.83900,1.90532,-0.25605,-1.41263,0.05860,0.83063,1.87036,0.37037,3.30778,0.59750,-7.02004,-0.49490,-0.35072,0.60785,0.61257,-0.36369,3.67092,-11.62041,-11.73484
-0.85816,1.89916,-0.24514,-1.40482,-0.04111,0.82079,1.88469,0.16958,3.21245,0.45993,-7.34646,-0.95686,-0.37006,0.59373,0.61249,-0.36797,3.86299,-11.94558,-9.73010
-0.87733,1.89152,-0.23471,-1.39727,-0.14358,0.80532,1.90483,-0.02919,3.16244,0.55925,-7.44916,-1.28342,-0.39079,0.57914,0.61135,-0.37166,5.04051,-13.17265,-5.76860
-0.89638,1.88321,-0.22480,-1.39050,-0.24454,0.78637,1.94288,-0.25744,3.11344,0.72372,-7.51779,-1.58360,-0.41262,0.56484,0.60949,-0.37312,5.35134,-13.68448,-5.44871
-0.91520,1.87331,-0.21552,-1.38165,-0.34759,0.76219,2.03121,-0.54142,3.05989,0.84567,-7.67162,-1.89701,-0.43663,0.55033,0.60725,-0.37114,9.29392,-16.51944,-6.12991
-0.93336,1.86023,-0.20712,-1.36415,-0.46935,0.72884,2.23316,-0.91432,2.94863,1.85488,-7.62691,-2.14256,-0.46355,0.53505,0.60591,-0.36293,15.90515,-19.87824,-6.82990
-0.95102,1.84818,-0.19841,-1.34413,-0.54533,0.70695,2.41450,-1.10136,2.81441,2.28560,-7.51623,-2.22338,-0.48715,0.51834,0.60643,-0.35531,22.30066,-15.88237,-14.06997
-0.96720,1.83281,-0.19055,-1.30654,-0.64859,0.67711,2.61302,-1.21327,2.69731,2.82465,-7.27260,-2.37169,-0.51017,0.49962,0.60811,-0.34685,19.41664,-5.69608,-11.05803
-0.98199,1.81658,-0.18326,-1.25903,-0.74619,0.64689,2.66948,-1.15306,2.70489,3.54863,-6.89064,-2.43342,-0.53029,0.47955,0.60811,-0.34500,7.21610,2.46993,-1.00374
-0.99492,1.79873,-0.17680,-1.19455,-0.85070,0.61127,2.55097,-0.96662,2.85441,4.27193,-6.45089,-2.33057,-0.54785,0.45878,0.60490,-0.35139,-9.27503,8.74642,9.87385
-1.00722,1.78069,-0.17054,-1.13253,-0.93816,0.57911,2.48162,-0.81103,2.98667,4.64633,-6.11788,-2.20687,-0.56534,0.43666,0.60167,-0.35736,-9.66133,7.52461,11.71999
-1.01845,1.76175,-0.16482,-1.06811,-1.02141,0.54578,2.48421,-0.68938,3.08153,4.80102,-5.82483,-2.48511,-0.58277,0.41306,0.59915,-0.36163,-3.47426,7.51361,8.83240
-1.02790,1.74140,-0.16027,-0.99067,-1.10978,0.50213,2.49683,-0.58825,3.17500,4.95077,-5.31785,-2.98319,-0.59992,0.38851,0.59619,-0.36566,-0.32810,6.07467,6.60535
-1.03762,1.72174,-0.15577,-0.93171,-1.16970,0.46610,2.48129,-0.54199,3.26078,4.96057,-4.80017,-3.14441,-0.61719,0.36424,0.59154,-0.36943,-1.79518,2.93527,7.54422
-1.04570,1.70108,-0.15249,-0.86292,-1.23207,0.42090,2.46368,-0.54037,3.34058,5.11224,-4.20740,-3.40471,-0.63464,0.34000,0.58546,-0.37265,-1.53113,-0.38868,6.91752
-1.05270,1.68002,-0.15010,-0.79200,-1.28708,0.37177,2.45481,-0.56474,3.40279,5.12573,-3.72425,-3.66530,-0.65206,0.31561,0.57843,-0.37500,-0.78512,-1.83768,4.13792
-1.05946,1.65903,-0.14809,-0.73231,-1.32922,0.32750,2.46062,-0.62732,3.43952,4.97594,-3.37258,-3.71479,-0.66978,0.29142,0.57028,-0.37583,0.44977,-4.74601,2.67054
-1.06389,1.63692,-0.14795,-0.65198,-1.37930,0.26595,2.59143,-0.72531,3.41894,5.40704,-2.75431,-3.84746,-0.68869,0.26598,0.56274,-0.37188,8.11601,-5.46900,-0.65260
-1.06775,1.61530,-0.14821,-0.57838,-1.41312,0.21000,2.75051,-0.76661,3.34439,5.19866,-2.08568,-4.13056,-0.70607,0.23994,0.55696,-0.36563,13.96078,1.82774,-5.14205
-1.07059,1.59394,-0.14907,-0.50491,-1.43677,0.15685,2.74786,-0.80976,3.32957,5.30362,-1.45380,-3.92473,-0.72201,0.21560,0.54827,-0.36279,3.87987,-1.97832,-2.83800
-1.07226,1.57284,-0.15066,-0.42967,-1.45277,0.10375,2.69165,-0.82795,3.30332,5.54051,-0.87924,-3.84205,-0.73623,0.19246,0.53910,-0.36097,-3.62200,-2.90131,-1.44964
-1.07287,1.55181,-0.15306,-0.35394,-1.46339,0.04955,2.67183,-0.79634,3.23532,5.42310,-0.66272,-3.91055,-0.74889,0.16907,0.53153,-0.35785,-1.95074,1.88091,-4.37996
-1.07245,1.53093,-0.15642,-0.27873,-1.47011,-0.00741,2.68900,-0.74657,3.14342,5.56941,-0.20379,-4.16440,-0.76059,0.14556,0.52497,-0.35317,-0.85914,4.21663,-4.88969
-1.07007,1.51063,-0.16154,-0.18949,-1.46816,-0.07895,2.80956,-0.60505,2.98860,5.67585,0.44865,-4.58541,-0.77042,0.12071,0.52243,-0.34488,4.72434,11.42677,-7.40175
-1.06735,1.49088,-0.16711,-0.11224,-1.45761,-0.14346,2.93099,-0.48447,2.87548,5.40601,1.04818,-4.72425,-0.77998,0.09482,0.51953,-0.33576,7.73541,12.63854,-6.10484
-1.06313,1.47225,-0.17410,-0.02767,-1.43306,-0.21648,2.95146,-0.43724,2.82850,5.12955,1.97449,-4.80098,-0.78926,0.06990,0.51395,-0.32868,2.63571,6.07565,-2.95627
-1.05876,1.45460,-0.18130,0.04280,-1.39937,-0.27862,2.76570,-0.56802,2.90787,4.79190,2.80257,-4.72240,-0.79938,0.04769,0.50135,-0.32766,-7.85315,-6.61744,2.39658
-1.05434,1.43761,-0.18861,0.09857,-1.36227,-0.32854,2.57858,-0.75638,2.96422,4.60050,3.44127,-3.74594,-0.81002,0.02730,0.48589,-0.32716,-14.29002,-21.47484,2.15557
-1.04882,1.42227,-0.19670,0.15808,-1.30991,-0.37914,2.51334,-0.78642,2.90029,4.26030,4.26147,-2.99984,-0.81858,0.00694,0.47489,-0.32305,-6.81719,-8.96259,-3.80783
-1.04334,1.40786,-0.20484,0.20461,-1.25617,-0.41983,2.59993,-0.63455,2.76431,3.80153,4.92076,-3.20411,-0.82473,-0.01568,0.47007,-0.31403,1.62954,10.55790,-7.45789
-1.03699,1.39576,-0.21410,0.25351,-1.18128,-0.46779,2.73862,-0.42980,2.61621,3.18180,5.80115,-3.62881,-0.82952,-0.03942,0.46804,-0.30212,8.28006,20.87447,-7.88837
-1.03000,1.38637,-0.22442,0.30222,-1.07991,-0.52120,2.69588,-0.47388,2.55209,2.84666,6.97588,-3.78963,-0.83602,-0.05967,0.45890,-0.29480,-0.57075,2.38447,-4.69736
-1.02294,1.37875,-0.23495,0.34322,-0.97384,-0.56835,2.53840,-0.73534,2.61710,2.55613,8.13364,-3.78112,-0.84453,-0.07832,0.44162,-0.29258,-5.44611,-15.17463,-1.79072
-1.01625,1.37236,-0.24550,0.36992,-0.87190,-0.60526,2.25995,-1.27802,2.68463,1.80052,9.15016,-3.28536,-0.85634,-0.09124,0.41399,-0.29492,-11.93248,-38.03289,0.36820
-1.00936,1.37103,-0.25664,0.39426,-0.71906,-0.64327,1.96621,-1.87034,2.62668,1.41710,10.12018,-1.25305,-0.86924,-0.09782,0.38235,-0.29776,-12.18171,-47.20809,-10.98438
-1.00307,1.37115,-0.26704,0.40585,-0.57429,-0.66411,1.89114,-1.96245,2.47884,0.50543,10.97665,-0.78762,-0.87738,-0.10849,0.36320,-0.29415,-3.60434,-11.39697,-11.76406
-0.99732,1.37118,-0.27688,0.40700,-0.46232,-0.67204,1.86580,-1.94478,2.33870,-0.16798,11.72106,-0.48172,-0.88418,-0.11999,0.34690,-0.28895,-0.94326,1.56859,-12.80045
-0.99317,1.38191,-0.28609,0.38485,-0.22031,-0.66969,1.73753,-2.02079,1.98299,-2.25483,12.77362,0.47337,-0.89173,-0.12176,0.33098,-0.28363,-2.61830,-0.40817,-17.77106
-0.99132,1.39236,-0.29386,0.33159,-0.01872,-0.64572,1.44943,-2.41775,1.53189,-4.47086,12.86536,2.12162,-0.90175,-0.11345,0.30690,-0.28247,-10.06535,-21.84160,-29.93753
-0.98948,1.39890,-0.30142,0.29145,0.07967,-0.62503,1.31253,-2.61081,1.22043,-5.50658,12.30623,3.16973,-0.91048,-0.10824,0.28530,-0.27911,-10.69063,-26.20648,-39.00356
-0.99281,1.41345,-0.30618,0.18730,0.26860,-0.56944,1.14607,-2.69800,0.37746,-7.06816,12.37856,4.53850,-0.91989,-0.08430,0.27191,-0.26975,6.89573,-7.15193,-50.63975
-0.99849,1.43104,-0.30885,0.06727,0.46854,-0.49307,0.60278,-2.27498,-0.51615,-7.96098,12.84440,5.10147,-0.92057,-0.05421,0.27698,-0.26998,-25.85103,26.29964,-57.54208
-1.00419,1.44795,-0.31187,-0.02855,0.61845,-0.43767,0.35061,-1.98343,-1.26557,-7.94120,12.83563,4.27694,-0.92245,-0.02456,0.28034,-0.26439,-12.34225,33.90944,-63.39304
-1.01277,1.47108,-0.31301,-0.14623,0.82847,-0.36645,-0.01336,-1.76383,-2.28533,-6.75621,13.61673,4.32568,-0.92202,0.02030,0.28705,-0.25898,-11.35074,16.68879,-66.24641
-1.02036,1.49603,-0.31413,-0.22679,1.02433,-0.30826,-0.33647,-1.54968,-3.09920,-4.80195,14.53432,3.91697,-0.91903,0.06494,0.29395,-0.25446,-12.30235,17.22519,-62.98913
-1.02685,1.52463,-0.31497,-0.27484,1.23392,-0.25800,-0.70592,-1.44625,-3.84170,-2.14689,15.45033,2.93741,-0.91326,0.11416,0.29893,-0.25211,-15.23046,14.67890,-57.20284
-1.03142,1.55681,-0.31577,-0.28529,1.45360,-0.21756,-1.13216,-1.45842,-4.50100,0.58875,15.98857,2.62252,-0.90440,0.16743,0.30029,-0.25268,-24.18687,2.95322,-51.38450
-1.03338,1.59256,-0.31679,-0.25502,1.67919,-0.18831,-1.51015,-1.36893,-5.07819,3.78139,16.39842,1.72182,-0.89125,0.22153,0.30393,-0.25342,-22.26476,8.87533,-46.51035
-1.03068,1.63391,-0.31845,-0.16136,1.94487,-0.17453,-1.84508,-1.19749,-5.64387,7.97308,16.83629,0.13998,-0.87330,0.27726,0.31009,-0.25361,-13.59976,13.33875,-39.64247
-1.02514,1.67450,-0.32118,-0.04587,2.14543,-0.17923,-2.06586,-1.09373,-5.99712,11.39107,16.68912,-1.01012,-0.85414,0.32895,0.31354,-0.25286,-11.05472,11.30139,-34.65791
-1.01293,1.72018,-0.32513,0.14200,2.37421,-0.20061,-2.32105,-1.02644,-6.30357,15.45523,16.02192,-2.18817,-0.83112,0.38169,0.31512,-0.25347,-12.84214,8.94598,-27.04518
-0.99460,1.76807,-0.33034,0.38029,2.58961,-0.23593,-2.57342,-0.98385,-6.57208,18.78798,14.88685,-2.94324,-0.80468,0.43431,0.31486,-0.25442,-13.78750,6.88846,-21.15340
-0.97311,1.81522,-0.33640,0.61253,2.74894,-0.27596,-2.75582,-1.00866,-6.64367,19.01985,9.51958,-4.22785,-0.77829,0.48211,0.31092,-0.25527,-13.25642,7.16691,-24.94026
-0.93960,1.86659,-0.34445,0.97098,2.93530,-0.33559,-2.99343,-1.06513,-6.84065,25.56607,12.84011,-2.54039,-0.74734,0.53277,0.30366,-0.25578,-12.53312,-18.36589,-0.07707
-0.89627,1.91986,-0.35269,1.41048,3.11695,-0.38862,-3.21913,-0.51897,-7.66750,28.66422,8.93772,-4.45962,-0.69424,0.59345,0.31725,-0.25536,8.55367,43.61679,-67.32458
-0.84948,1.97003,-0.36193,1.81655,3.21882,-0.44592,-3.38933,-0.32121,-8.19700,30.47249,6.06931,-3.70769,-0.64224,0.64917,0.32047,-0.25180,-9.05329,9.39383,-35.59066
-0.79849,2.01883,-0.37140,2.19348,3.27551,-0.49365,-3.29487,-0.03379,-8.77523,33.10493,3.57310,-3.82293,-0.58376,0.70161,0.32984,-0.24119,8.86994,7.09464,-46.17698
-0.73093,2.06577,-0.38258,2.73752,3.29373,-0.55664,-3.19454,0.28226,-9.71425,36.06778,-1.34989,-3.99241,-0.50916,0.75724,0.34233,-0.22396,14.31645,-1.54301,-58.98678
-0.65801,2.10805,-0.39371,3.25769,3.24102,-0.60714,-3.15815,0.54274,-10.68886,39.06133,-6.64351,-3.33081,-0.42347,0.80951,0.35187,-0.20385,5.86134,-0.72488,-69.81844
-0.58529,2.14709,-0.40430,3.65122,3.15109,-0.63765,-3.07319,0.73157,-11.36415,40.57930,-11.34482,-2.48979,-0.33560,0.85201,0.35836,-0.18176,6.12713,-5.36881,-71.80444
-0.47897,2.17049,-0.41834,4.43157,2.84869,-0.67849,-2.68663,1.30163,-12.99334,47.17417,-23.91193,-2.18368,-0.21007,0.88889,0.38011,-0.14581,29.12343,-8.11367,-91.07155
-0.37722,2.18584,-0.43255,4.99437,2.49763,-0.70827,-2.56972,1.69963,-14.17613,46.82076,-35.74862,-2.60022,-0.08295,0.91089,0.38819,-0.11271,12.73793,-8.65175,-105.13930
-0.25636,2.17064,-0.44845,5.71918,1.77636,-0.75245,-2.37304,2.21624,-15.66700,41.86417,-55.21107,-2.30717,0.06538,0.91375,0.39410,-0.07401,10.46529,2.16161,-104.33040
-0.14611,2.14333,-0.46106,6.17012,1.01696,-0.78456,-2.04170,2.26575,-16.58846,32.65903,-71.32658,-2.08693,0.19834,0.89786,0.39210,-0.02755,7.45578,-16.47181,-86.25404
-0.03755,2.08040,-0.47395,6.50272,-0.09376,-0.81485,-1.52709,1.77190,-17.30829,14.48503,-87.11543,-1.28702,0.31893,0.86474,0.38636,0.03508,-18.20487,-43.61478,-48.95017
0.05490,1.99085,-0.48601,6.52716,-1.36453,-0.82619,-1.38220,1.17105,-17.52726,-12.10689,-93.64915,-0.18225,0.42283,0.82288,0.36729,0.09578,-45.13617,-34.82315,-20.73058
0.11929,1.88460,-0.49606,6.14952,-2.61519,-0.80254,-1.27377,1.35820,-16.79679,-42.54288,-82.68818,2.07507,0.50522,0.78004,0.34833,0.12231,-5.07677,-3.07022,25.07183
0.15317,1.77566,-0.50332,5.41443,-3.65703,-0.74401,-0.60484,2.38053,-15.08624,-61.71712,-63.86848,4.70694,0.56482,0.74156,0.34671,0.10421,88.68701,-8.62179,94.61009
0.15840,1.66767,-0.50636,4.39580,-4.48215,-0.63505,1.07180,3.67921,-12.95639,-64.35950,-40.61194,8.11496,0.60938,0.69766,0.37301,0.05278,148.23100,-44.40952,110.03600
0.16117,1.57361,-0.50652,3.54026,-4.95275,-0.50663,3.26086,4.51006,-11.88284,-59.55035,-28.24314,9.57293,0.66269,0.62467,0.41305,0.00463,161.54360,-92.85872,37.19453
0.15694,1.48534,-0.50441,2.75640,-5.24389,-0.37230,5.33021,4.69238,-11.31608,-53.17113,-14.67967,10.52779,0.71016,0.53424,0.45724,-0.03445,132.85890,-99.11234,-27.15389
0.14758,1.40550,-0.50008,2.05451,-5.34371,-0.23134,5.81337,3.62787,-10.68962,-46.07343,-4.29997,12.30442,0.73713,0.46614,0.48821,-0.03194,33.53194,-103.08700,-4.13073
0.14007,1.33492,-0.49495,1.53271,-5.29039,-0.10741,3.53036,2.28061,-9.93129,-39.09410,5.63163,13.03524,0.75792,0.45279,0.46904,0.02329,-140.34430,-27.03547,47.98042
