posX, posY, posZ, velX, velY, velZ, angVelX, angVelY, angVelZ, accX, accY, accZ, rotX, rotY, rotZ, rotW, angAccX, angAccY, angAccZ
-0.13314,1.14007,-0.38191,-0.11282,0.19563,-0.06036,-0.49360,0.24890,0.41577,1.15642,-2.83466,0.39071,-0.38008,-0.84471,-0.22014,-0.30585,-1.77793,-0.52836,-10.72094
-0.13395,1.14062,-0.38237,-0.10152,0.16433,-0.05467,-0.46364,0.26098,0.31364,0.75921,-2.48837,0.61528,-0.38037,-0.84564,-0.21709,-0.30509,3.97327,1.36884,-10.05550
-0.13482,1.14037,-0.38258,-0.09328,0.12783,-0.04646,-0.54638,0.20659,0.20371,0.53943,-2.10766,0.62718,-0.37981,-0.84632,-0.21151,-0.30780,-5.08215,-3.44827,-6.46524
-0.13548,1.14026,-0.38255,-0.08369,0.10010,-0.03626,-0.55398,0.15420,0.11034,0.61110,-1.28243,0.44681,-0.37989,-0.84641,-0.20761,-0.31011,-2.69975,-4.55016,-6.77374
-0.13629,1.14085,-0.38266,-0.07865,0.08844,-0.03033,-0.50277,0.14862,0.07756,0.48298,-0.99407,0.53204,-0.37971,-0.84698,-0.20536,-0.31026,3.79894,-1.68143,-4.41287
-0.13690,1.14100,-0.38243,-0.07195,0.07332,-0.02064,-0.43213,0.12185,0.04542,0.48274,-0.87674,0.63218,-0.37990,-0.84701,-0.20426,-0.31068,4.42549,-1.49247,-1.99039
-0.13741,1.14151,-0.38224,-0.06481,0.06619,-0.01354,-0.33438,0.13971,0.02240,0.46643,-0.07801,0.32900,-0.38073,-0.84719,-0.20381,-0.30947,5.99442,-0.29063,-2.71092
-0.13814,1.14242,-0.38222,-0.06281,0.06634,-0.01027,-0.28548,0.15879,0.06138,0.02951,0.03898,0.38583,-0.37964,-0.84838,-0.20313,-0.30799,6.84817,2.45555,1.32443
-0.13912,1.14340,-0.38215,-0.06476,0.06743,-0.00693,-0.30455,0.12889,0.11863,-0.13663,0.13362,0.30465,-0.37675,-0.84988,-0.20163,-0.30841,-0.40663,-1.07145,4.53529
-0.14008,1.14462,-0.38194,-0.06584,0.07159,-0.00213,-0.30080,0.09587,0.18636,-0.05079,0.30865,0.33243,-0.37339,-0.85140,-0.20100,-0.30870,-0.32700,-1.71409,4.11633
-0.14107,1.14587,-0.38161,-0.06692,0.07515,0.00335,-0.28321,0.04433,0.21797,-0.09342,0.24057,0.39719,-0.37064,-0.85228,-0.20084,-0.30970,-0.10865,-3.59320,3.08544
-0.14199,1.14710,-0.38113,-0.06658,0.07778,0.00996,-0.19569,0.00995,0.22225,0.07133,0.26091,0.49613,-0.36934,-0.85242,-0.20258,-0.30972,5.00375,-3.30655,1.15200
-0.14281,1.14854,-0.38046,-0.06514,0.08284,0.01762,-0.05668,-0.00800,0.21031,0.02997,0.46168,0.48126,-0.36938,-0.85194,-0.20614,-0.30865,10.08636,-1.35964,-1.50042
-0.14384,1.15016,-0.37987,-0.06694,0.08955,0.02268,0.05150,-0.02976,0.22761,-0.17430,0.46613,0.33933,-0.36853,-0.85173,-0.21002,-0.30762,8.56534,-1.27722,0.49481
-0.14492,1.15178,-0.37934,-0.06914,0.09493,0.02595,0.12602,-0.04369,0.24542,-0.12096,0.24359,0.22514,-0.36741,-0.85171,-0.21352,-0.30662,6.01935,-1.00433,2.21131
-0.14594,1.15341,-0.37893,-0.07001,0.09917,0.02678,0.17818,-0.03817,0.25565,-0.08696,0.35885,-0.03666,-0.36647,-0.85184,-0.21653,-0.30527,4.33695,-0.38427,0.14097
-0.14707,1.15508,-0.37874,-0.07231,0.10306,0.02445,0.15289,-0.05074,0.28366,-0.19264,0.23488,-0.15176,-0.36406,-0.85256,-0.21794,-0.30513,0.60034,0.56646,1.98503
-0.14816,1.15671,-0.37874,-0.07338,0.10548,0.02009,0.05922,-0.07807,0.31054,0.04793,0.09902,-0.35417,-0.36050,-0.85373,-0.21736,-0.30651,-6.24640,-2.44558,2.62282
-0.14897,1.15843,-0.37910,-0.07028,0.10891,0.01115,0.01582,-0.06269,0.31761,0.08298,0.24808,-0.73709,-0.35806,-0.85482,-0.21709,-0.30651,-2.97937,0.20960,0.17102
-0.14997,1.16015,-0.37968,-0.07028,0.11147,0.00081,0.01105,-0.01518,0.34003,-0.01508,0.08643,-0.75857,-0.35574,-0.85627,-0.21751,-0.30487,-0.55319,3.30739,1.17089
-0.15086,1.16166,-0.38037,-0.06882,0.11049,-0.00910,0.00015,0.03323,0.33513,0.17320,-0.19079,-0.65431,-0.35409,-0.85760,-0.21736,-0.30316,-0.81828,3.55397,0.16103
-0.15155,1.16298,-0.38106,-0.06477,0.10726,-0.01740,-0.04048,0.06839,0.30887,0.32754,-0.33904,-0.38830,-0.35279,-0.85883,-0.21609,-0.30208,-1.30553,3.30080,-1.76479
-0.15218,1.16410,-0.38171,-0.06057,0.10168,-0.02344,-0.15526,0.05254,0.28475,0.30676,-0.49322,-0.29734,-0.35036,-0.86017,-0.21289,-0.30337,-7.21647,-0.83065,-1.62105
-0.15271,1.16517,-0.38233,-0.05588,0.09664,-0.02777,-0.26657,0.03292,0.26091,0.38785,-0.16619,-0.36157,-0.34779,-0.86151,-0.20909,-0.30517,-8.71952,-1.83433,-2.64932
-0.15326,1.16649,-0.38304,-0.05259,0.09621,-0.03269,-0.38131,0.00978,0.27617,0.16590,0.03497,-0.32787,-0.34389,-0.86333,-0.20499,-0.30722,-7.52230,-1.10732,0.25806
-0.15398,1.16771,-0.38393,-0.05231,0.09443,-0.03931,-0.55240,-0.05952,0.30579,0.02631,-0.18549,-0.42221,-0.33824,-0.86533,-0.19936,-0.31153,-10.90425,-4.25860,1.90216
-0.15459,1.16892,-0.38475,-0.05038,0.09285,-0.04337,-0.59984,-0.08292,0.30818,0.19679,-0.04129,-0.57329,-0.33432,-0.86679,-0.19567,-0.31405,-8.72411,-4.14000,1.31446
-0.15497,1.17009,-0.38542,-0.04589,0.09123,-0.04458,-0.43479,-0.02069,0.26632,0.23250,-0.06342,-0.05233,-0.33444,-0.86723,-0.19655,-0.31213,8.69730,3.12809,-2.45748
-0.15538,1.17143,-0.38593,-0.04256,0.09232,-0.04326,-0.24603,0.04466,0.23666,0.31168,0.33665,0.06943,-0.33523,-0.86748,-0.19905,-0.30899,14.60872,5.50720,-3.49931
-0.15591,1.17309,-0.38646,-0.04148,0.09766,-0.04250,-0.09535,0.08623,0.25410,-0.03396,0.38809,0.21618,-0.33479,-0.86807,-0.20224,-0.30573,14.02131,4.77015,-0.20404
-0.15679,1.17490,-0.38695,-0.04484,0.10369,-0.04210,-0.03398,0.07935,0.30293,-0.25650,0.45854,0.01449,-0.33234,-0.86903,-0.20447,-0.30419,4.95882,-0.19143,3.17026
-0.15774,1.17676,-0.38747,-0.04840,0.10899,-0.04196,0.03093,0.08451,0.36137,-0.23366,0.22773,0.01185,-0.32948,-0.87021,-0.20725,-0.30203,4.17060,-0.57215,4.56398
-0.15852,1.17834,-0.38798,-0.04936,0.10958,-0.04135,0.08805,0.08098,0.38200,0.02506,-0.17401,0.07325,-0.32741,-0.87096,-0.21003,-0.30021,5.11526,0.30515,3.12882
-0.15899,1.17951,-0.38839,-0.04500,0.10390,-0.04010,0.15666,0.09920,0.35038,0.40462,-0.50552,0.05391,-0.32721,-0.87119,-0.21274,-0.29783,4.23931,0.87582,-1.52511
-0.15921,1.18043,-0.38885,-0.03821,0.09566,-0.03947,0.15750,0.10889,0.29674,0.52586,-0.72177,0.15102,-0.32729,-0.87144,-0.21357,-0.29640,1.95307,1.87935,-3.57205
-0.15931,1.18098,-0.38938,-0.03124,0.08382,-0.03976,0.07241,0.08852,0.25525,0.35902,-0.79031,-0.07840,-0.32621,-0.87205,-0.21216,-0.29682,-5.25146,-1.58361,-3.02400
-0.15932,1.18068,-0.38998,-0.02166,0.05816,-0.04253,-0.00900,0.11350,0.15860,0.41551,-0.96394,-0.08831,-0.32670,-0.87254,-0.20951,-0.29672,-1.87135,1.66377,-3.03675
-0.15932,1.18095,-0.39055,-0.01525,0.04676,-0.04135,0.03422,0.14905,0.09454,0.55209,-0.92250,0.10170,-0.32786,-0.87269,-0.20970,-0.29486,1.98530,2.65259,-4.50511
-0.15912,1.18113,-0.39108,-0.00688,0.03477,-0.03715,0.11734,0.18900,0.01189,0.61148,-0.74900,0.39611,-0.33069,-0.87236,-0.21085,-0.29185,5.86072,3.48806,-6.38563
-0.15878,1.18130,-0.39143,0.00028,0.02724,-0.03185,0.16264,0.20556,-0.02749,0.50860,-0.33208,0.44740,-0.33311,-0.87209,-0.21204,-0.28904,4.28955,1.61076,-4.53384
-0.15857,1.18137,-0.39138,0.00424,0.02357,-0.02689,0.15963,0.18731,-0.02854,0.19653,-0.20329,0.36615,-0.33355,-0.87199,-0.21245,-0.28851,0.67583,-1.28886,-0.20837
-0.15849,1.18150,-0.39131,0.00616,0.02120,-0.02230,0.15527,0.16809,-0.01826,0.12336,-0.18554,0.31434,-0.33363,-0.87200,-0.21295,-0.28802,-0.36805,-1.63925,0.71368
-0.15839,1.18161,-0.39119,0.00804,0.01922,-0.01729,0.14852,0.14426,-0.01509,0.11734,-0.12913,0.39025,-0.33377,-0.87193,-0.21335,-0.28778,-0.52560,-1.54536,0.65033
-0.15832,1.18176,-0.39104,0.00950,0.01779,-0.01228,0.15420,0.12025,-0.01093,0.15478,-0.06254,0.38662,-0.33397,-0.87179,-0.21403,-0.28747,-0.37040,-1.73093,0.24917
-0.15810,1.18213,-0.39082,0.01223,0.01778,-0.00579,0.17280,0.10690,-0.00599,0.19031,-0.01952,0.39791,-0.33461,-0.87160,-0.21542,-0.28625,2.07001,-0.65348,0.13693
-0.15793,1.18228,-0.39064,0.01457,0.01733,-0.00185,0.15994,0.08745,-0.00883,0.19577,-0.06748,0.31920,-0.33479,-0.87148,-0.21574,-0.28617,-0.44644,-1.33155,0.02648
-0.15770,1.18255,-0.39039,0.01724,0.01700,0.00260,0.15502,0.08132,-0.02236,0.17073,0.01151,0.29617,-0.33547,-0.87128,-0.21629,-0.28556,-0.72950,-0.63680,-0.59648
-0.15750,1.18294,-0.39003,0.01868,0.01835,0.00781,0.14762,0.07296,-0.01319,0.05241,0.17486,0.33150,-0.33579,-0.87120,-0.21698,-0.28489,-0.30678,-0.52364,-0.02266
-0.15738,1.18326,-0.38974,0.01812,0.02057,0.01177,0.14426,0.05484,0.00465,-0.05503,0.21199,0.33917,-0.33571,-0.87116,-0.21767,-0.28460,-0.55459,-0.79631,1.34270
-0.15716,1.18369,-0.38937,0.01738,0.02380,0.01650,0.14755,0.02553,0.03048,-0.01736,0.27763,0.30335,-0.33544,-0.87105,-0.21888,-0.28433,-0.09598,-2.31316,2.12441
-0.15671,1.18452,-0.38868,0.01709,0.02767,0.02090,0.19069,0.00593,0.06119,-0.07128,0.19799,0.18119,-0.33515,-0.87072,-0.22204,-0.28322,2.13271,-1.71238,2.45596
-0.15629,1.18547,-0.38787,0.01642,0.03000,0.02403,0.27129,0.02085,0.07753,-0.05110,0.13941,0.12765,-0.33557,-0.87015,-0.22697,-0.28056,4.94037,0.55471,1.23933
-0.15615,1.18606,-0.38733,0.01577,0.03180,0.02628,0.37482,0.05652,0.07945,-0.07651,0.18637,0.07860,-0.33687,-0.86949,-0.23143,-0.27738,7.40645,2.21168,0.15181
-0.15612,1.18675,-0.38691,0.01358,0.03465,0.02640,0.44957,0.09256,0.09802,-0.16478,0.19891,0.01935,-0.33765,-0.86913,-0.23572,-0.27392,6.65472,3.01714,1.11831
-0.15612,1.18742,-0.38660,0.01104,0.03716,0.02535,0.46538,0.10077,0.11470,-0.16009,0.07086,-0.04927,-0.33777,-0.86894,-0.23897,-0.27155,1.89163,1.13642,1.87705
-0.15608,1.18800,-0.38637,0.00969,0.03787,0.02325,0.44566,0.10417,0.11307,-0.08102,-0.00882,-0.17946,-0.33799,-0.86881,-0.24112,-0.26980,-1.17680,0.05129,0.16517
-0.15600,1.18858,-0.38618,0.00917,0.03840,0.02104,0.43012,0.12165,0.09415,-0.07409,0.07977,-0.15495,-0.33888,-0.86860,-0.24292,-0.26774,-0.87570,0.82560,-1.01259
-0.15601,1.18930,-0.38600,0.00770,0.04042,0.01909,0.40361,0.12723,0.09546,-0.08381,0.16893,-0.07677,-0.33909,-0.86860,-0.24457,-0.26596,-1.23221,1.26853,-0.61090
-0.15608,1.19020,-0.38577,0.00627,0.04412,0.01765,0.33746,0.10150,0.11164,0.01818,0.25924,-0.07431,-0.33823,-0.86886,-0.24539,-0.26545,-3.46033,-1.18324,0.76529
-0.15601,1.19107,-0.38560,0.00673,0.04717,0.01601,0.27452,0.07359,0.12419,0.12631,0.33292,-0.20201,-0.33716,-0.86915,-0.24595,-0.26533,-5.57358,-2.66866,1.25571
-0.15573,1.19199,-0.38566,0.01135,0.05306,0.01191,0.19194,0.04626,0.12807,0.48542,0.39879,-0.35850,-0.33600,-0.86960,-0.24509,-0.26615,-5.72934,-2.25497,0.44963
-0.15497,1.19349,-0.38566,0.02255,0.06079,0.00753,0.19054,0.07308,0.09597,0.83596,0.52106,-0.34589,-0.33669,-0.86957,-0.24589,-0.26463,-1.00263,0.85490,-1.79092
-0.15379,1.19512,-0.38560,0.03608,0.06879,0.00565,0.22592,0.10200,0.04359,1.10051,0.62745,-0.00411,-0.33867,-0.86898,-0.24749,-0.26254,2.81611,2.98771,-3.35247
-0.15220,1.19674,-0.38549,0.05252,0.07841,0.00598,0.20416,0.07748,-0.01120,1.23880,0.76992,0.17176,-0.34022,-0.86822,-0.24784,-0.26271,-0.66222,-0.69622,-3.87190
-0.15032,1.19870,-0.38518,0.06970,0.09107,0.00931,0.19388,0.04542,-0.05577,1.29481,1.06160,0.30058,-0.34176,-0.86728,-0.24850,-0.26320,-1.54684,-2.33721,-3.92399
-0.14831,1.20094,-0.38474,0.08519,0.10504,0.01381,0.19709,0.01088,-0.08633,1.32656,1.31600,0.44454,-0.34319,-0.86620,-0.24965,-0.26382,-0.08720,-2.46140,-3.01038
-0.14590,1.20406,-0.38401,0.10449,0.12758,0.02064,0.16883,-0.06583,-0.09408,1.25128,1.48625,0.43904,-0.34345,-0.86510,-0.25065,-0.26609,-0.77882,-4.16662,-1.07989
-0.14338,1.20743,-0.38338,0.12194,0.14927,0.02468,0.09219,-0.13887,-0.10548,1.23604,1.62511,0.17005,-0.34325,-0.86431,-0.25014,-0.26939,-5.26382,-5.66610,-0.50761
-0.14049,1.21298,-0.38307,0.14305,0.20386,0.02188,0.03357,-0.15459,-0.04840,0.20276,2.26370,-0.45653,-0.34180,-0.86447,-0.24973,-0.27112,-1.15880,0.03932,2.93231
-0.13665,1.22088,-0.38282,0.14227,0.23533,0.01595,0.09276,-0.08237,0.03893,-0.24081,2.27380,-0.51693,-0.34057,-0.86470,-0.25238,-0.26946,3.79789,4.64547,5.45760
-0.13510,1.22626,-0.38302,0.13683,0.26513,0.00926,0.10253,-0.01802,0.14387,-0.47076,1.99519,-0.33788,-0.33794,-0.86619,-0.25372,-0.26672,2.06761,5.59834,7.42042
-0.13381,1.23178,-0.38319,0.12891,0.29043,0.00428,0.07275,0.00295,0.25897,-0.61695,1.56897,-0.26419,-0.33372,-0.86808,-0.25457,-0.26507,-2.25787,1.68961,8.43003
-0.13265,1.23721,-0.38326,0.12083,0.30955,0.00182,0.07200,0.03046,0.34994,-0.57840,1.23729,-0.21377,-0.32981,-0.86984,-0.25594,-0.26286,-1.35379,1.48717,6.76249
-0.13164,1.24254,-0.38326,0.11139,0.32373,0.00132,0.12321,0.07096,0.44808,-0.80568,0.77743,-0.00177,-0.32576,-0.87159,-0.25885,-0.25923,2.80320,3.02388,6.63669
-0.13079,1.24749,-0.38316,0.10131,0.32997,0.00256,0.18861,0.10508,0.52379,-0.86983,0.32482,0.14164,-0.32198,-0.87309,-0.26250,-0.25525,4.90754,2.78267,7.11089
-0.13019,1.25212,-0.38291,0.08999,0.33040,0.00567,0.25169,0.12976,0.59019,-0.78811,-0.35826,0.35464,-0.31805,-0.87449,-0.26659,-0.25110,5.14056,2.43567,5.35500
-0.12975,1.25596,-0.38247,0.07864,0.31908,0.01082,0.30026,0.11915,0.62371,-0.67636,-1.08345,0.32390,-0.31442,-0.87537,-0.27074,-0.24812,2.47312,-0.79670,2.27110
-0.12922,1.25914,-0.38193,0.07084,0.29965,0.01627,0.37920,0.13902,0.60055,-0.56630,-1.75673,0.37254,-0.31288,-0.87557,-0.27532,-0.24429,5.21212,1.31217,-0.40556
-0.12871,1.26144,-0.38133,0.06445,0.27160,0.02149,0.43746,0.15537,0.53990,-0.43003,-2.32522,0.40487,-0.31261,-0.87533,-0.27941,-0.24085,5.08070,1.72693,-3.83397
-0.12813,1.26296,-0.38073,0.06022,0.23816,0.02574,0.47436,0.16187,0.46473,-0.20874,-2.50203,0.25062,-0.31299,-0.87481,-0.28302,-0.23801,2.13410,0.78843,-5.49551
-0.12749,1.26422,-0.38011,0.05808,0.20773,0.02906,0.51949,0.18842,0.39074,-0.20965,-2.63198,0.27265,-0.31416,-0.87413,-0.28676,-0.23444,3.72647,1.83824,-5.72871
-0.12693,1.26460,-0.37941,0.05561,0.17122,0.03291,0.57035,0.21089,0.30481,-0.10950,-2.62072,0.27945,-0.31633,-0.87297,-0.29072,-0.23095,4.04294,1.92436,-6.60032
-0.12637,1.26420,-0.37873,0.05340,0.13027,0.03565,0.55561,0.19356,0.21499,-0.14109,-2.66972,0.21836,-0.31831,-0.87184,-0.29325,-0.22930,0.07930,0.14380,-5.52221
-0.12584,1.26360,-0.37815,0.05139,0.09410,0.03636,0.46508,0.15487,0.12857,-0.07059,-2.60812,0.06237,-0.31979,-0.87116,-0.29357,-0.22942,-5.34429,-1.96233,-5.90783
-0.12519,1.26265,-0.37769,0.05141,0.06050,0.03520,0.31766,0.08190,0.04003,0.05178,-2.31793,-0.16744,-0.32084,-0.87068,-0.29193,-0.23184,-9.31402,-4.75866,-6.31543
-0.12504,1.26144,-0.37775,0.05130,0.03528,0.03141,0.19571,0.03397,-0.03214,-0.09717,-1.92921,-0.49116,-0.32159,-0.87059,-0.28922,-0.23453,-11.37099,-5.43785,-6.40563
-0.12436,1.26044,-0.37752,0.04959,0.00860,0.02577,0.16987,0.05970,-0.12983,-0.09068,-1.32131,-0.46888,-0.32503,-0.86952,-0.28877,-0.23432,-2.82984,0.99160,-6.13443
-0.12347,1.25970,-0.37727,0.04869,-0.00533,0.02157,0.21760,0.12258,-0.19940,-0.06560,-0.55809,-0.31894,-0.32988,-0.86796,-0.28991,-0.23189,2.59026,4.00844,-6.19516
-0.12314,1.25953,-0.37714,0.04454,-0.00714,0.01855,0.28235,0.17730,-0.22163,-0.31580,0.37671,-0.02919,-0.33345,-0.86678,-0.29174,-0.22891,4.52699,3.91955,-2.02727
-0.12293,1.26010,-0.37686,0.03907,0.00223,0.01859,0.29972,0.18074,-0.19137,-0.38449,1.22854,0.17268,-0.33491,-0.86614,-0.29342,-0.22701,3.46780,1.41941,0.98599
-0.12281,1.26148,-0.37657,0.03360,0.02116,0.01884,0.24669,0.10033,-0.11318,-0.27813,1.88615,0.17145,-0.33330,-0.86618,-0.29449,-0.22787,-1.65119,-3.78195,5.28899
-0.12319,1.26376,-0.37676,0.03021,0.06700,0.01597,0.12814,-0.04757,-0.01014,-0.15432,3.38749,-0.59609,-0.32879,-0.86726,-0.29334,-0.23176,-8.42214,-9.35300,5.07328
-0.12241,1.26961,-0.37682,0.02827,0.12206,0.00705,0.16265,-0.05515,0.08270,-0.10098,4.65888,-0.97818,-0.32665,-0.86705,-0.29708,-0.23078,-0.08780,-1.98882,6.27096
-0.12201,1.27551,-0.37739,0.02856,0.18362,-0.00273,0.31519,0.00856,0.17313,0.04211,6.01088,-1.15029,-0.32540,-0.86679,-0.30278,-0.22610,7.76899,2.53120,8.02409
-0.12174,1.28582,-0.37831,0.02758,0.29678,-0.01636,0.77702,0.27522,0.28990,-0.64382,8.16536,-1.15150,-0.32756,-0.86497,-0.31642,-0.21076,27.17612,14.40506,7.67180
-0.12265,1.29878,-0.37949,0.00901,0.42759,-0.03101,1.22024,0.61176,0.48757,-1.60364,11.59190,-0.99934,-0.32862,-0.86388,-0.33116,-0.18989,25.14954,27.09888,2.54756
-0.12558,1.31570,-0.38110,-0.03610,0.58996,-0.04902,1.37581,0.75540,0.88798,-3.99978,11.99594,-0.65354,-0.31958,-0.86616,-0.34366,-0.17184,27.78533,14.42079,29.09530
-0.13103,1.33594,-0.38340,-0.10872,0.76678,-0.07366,0.93991,0.56468,1.45767,-5.78914,12.90973,-1.52096,-0.29599,-0.87514,-0.34480,-0.16624,-19.67881,-13.76304,37.35535
-0.13790,1.35731,-0.38602,-0.18616,0.92172,-0.09739,0.47560,0.36744,2.02277,-7.00182,13.00788,-2.24236,-0.26709,-0.88586,-0.34299,-0.16210,-37.28861,-26.61768,46.75250
-0.14868,1.38384,-0.38913,-0.30415,1.11938,-0.12344,0.31070,0.41014,2.73136,-8.18912,12.27800,-1.94440,-0.23336,-0.89684,-0.34594,-0.14676,-15.58960,-7.39201,45.51440
-0.16084,1.41017,-0.39164,-0.41917,1.27564,-0.13581,0.49332,0.65637,3.28593,-8.66735,10.46588,-0.56118,-0.20432,-0.90391,-0.35561,-0.12145,8.50578,18.02933,41.72257
-0.17406,1.43614,-0.39361,-0.52479,1.39340,-0.13765,0.64895,0.81558,3.70142,-9.11768,9.19901,0.30807,-0.17528,-0.90901,-0.36546,-0.09702,12.32829,18.70547,36.33749
-0.19082,1.46379,-0.39535,-0.65990,1.51080,-0.13544,0.63509,0.80006,4.16315,-10.07766,7.33614,0.58186,-0.13938,-0.91435,-0.37246,-0.07629,4.78171,4.82245,32.78024
-0.21035,1.49125,-0.39711,-0.80647,1.60064,-0.13427,0.45389,0.61064,4.57487,-10.93141,5.36520,-0.04815,-0.09878,-0.91965,-0.37504,-0.06191,-5.07261,-16.96935,31.52226
-0.23110,1.51770,-0.39909,-0.93907,1.65717,-0.13633,0.34932,0.56650,4.86648,-11.67338,3.98366,-0.55845,-0.06055,-0.92316,-0.37704,-0.04413,-5.95177,-13.97944,25.15457
-0.25940,1.54440,-0.40140,-1.15599,1.70716,-0.14311,0.32427,0.77082,5.29185,-13.11745,1.79396,-0.69924,-0.01946,-0.92513,-0.37882,-0.01600,-4.19152,7.03491,23.23805
-0.28992,1.56860,-0.40377,-1.36825,1.70950,-0.14970,0.29650,1.02380,5.72939,-13.42439,-1.58751,-0.12357,0.02325,-0.92482,-0.37933,0.01628,-4.78648,17.38186,28.91414
-0.31989,1.59047,-0.40601,-1.52941,1.67927,-0.15264,0.18769,1.08478,6.03694,-13.39885,-3.71236,0.02138,0.06643,-0.92289,-0.37680,0.04334,-7.96465,5.43859,25.53111
-0.35370,1.60902,-0.40818,-1.71241,1.60721,-0.15401,-0.00998,0.91500,6.38719,-12.42955,-6.85822,0.25670,0.11568,-0.91942,-0.37026,0.06473,-6.96577,-11.01919,27.50512
-0.38899,1.62416,-0.41017,-1.87726,1.49823,-0.15262,-0.21274,0.59063,6.62215,-11.26576,-8.95406,0.17972,0.16579,-0.91414,-0.36128,0.07955,-2.79481,-27.36938,19.41320
-0.42520,1.63568,-0.41176,-2.02280,1.36001,-0.14550,-0.29828,0.36587,6.85130,-9.79276,-10.98821,0.58370,0.21608,-0.90520,-0.35318,0.09582,1.54870,-20.34896,16.26592
-0.46260,1.64162,-0.41270,-2.15854,1.16514,-0.13104,-0.29442,0.22088,7.09478,-7.51688,-13.46467,0.89749,0.26697,-0.89228,-0.34591,0.11359,5.19294,-9.65636,16.34157
-0.49819,1.64661,-0.41356,-2.23655,0.99602,-0.11789,-0.26377,0.19403,7.26304,-5.64340,-15.10400,1.08099,0.31545,-0.87636,-0.33858,0.13356,3.37795,-1.32721,13.00365
-0.53362,1.64507,-0.41417,-2.29825,0.77037,-0.10389,-0.23390,0.07195,7.49949,-3.05381,-17.34484,1.04950,0.36702,-0.85671,-0.32944,0.15105,5.76557,-4.02075,17.20852
-0.56725,1.63865,-0.41471,-2.32246,0.51985,-0.09134,-0.19112,-0.09620,7.70121,-0.29096,-18.76652,0.91198,0.41859,-0.83397,-0.31902,0.16584,7.29523,-8.16341,14.07984
-0.59874,1.62977,-0.41545,-2.30879,0.28768,-0.08414,-0.13767,-0.29820,7.90385,2.81311,-20.07990,0.48033,0.47108,-0.80750,-0.30703,0.17823,13.40717,-10.62760,17.43148
-0.62540,1.61189,-0.41616,-2.22822,-0.02656,-0.07814,-0.13190,-0.47167,8.02878,7.56424,-19.63939,0.17417,0.52080,-0.77925,-0.29256,0.18960,5.41594,-8.83658,10.17185
-0.64906,1.59605,-0.41726,-2.12081,-0.24886,-0.07963,-0.11551,-0.67068,8.03792,10.70236,-17.73892,-0.28641,0.56679,-0.75027,-0.27723,0.19747,8.99200,-10.76607,3.40170
-0.66700,1.57657,-0.41874,-1.95267,-0.47466,-0.08622,-0.07616,-0.88731,7.88314,13.83830,-15.20071,-0.64311,0.60781,-0.72216,-0.26192,0.20113,10.51481,-11.74175,-7.43210
-0.67936,1.55586,-0.42081,-1.74048,-0.67346,-0.09994,0.10698,-1.23887,7.68402,17.03238,-13.39326,-0.95428,0.64775,-0.69315,-0.24790,0.19625,19.59744,-12.42553,-14.47864
-0.68358,1.53282,-0.42362,-1.44727,-0.86832,-0.12602,0.62712,-1.85494,7.53657,20.33747,-10.42242,-1.90688,0.69130,-0.65957,-0.23716,0.17558,45.68112,-15.89093,-5.80227
-0.68653,1.51337,-0.42691,-1.19567,-0.97146,-0.15175,1.01407,-2.23943,7.38857,21.90668,-7.00670,-2.89267,0.73100,-0.62436,-0.22603,0.15723,55.48112,-11.65215,-2.45216
-0.67823,1.49555,-0.43149,-0.83828,-1.02795,-0.18104,0.73705,-2.28179,6.79880,23.51248,-1.35848,-1.82429,0.75389,-0.60443,-0.20745,0.15259,3.90447,-13.42420,-28.35850
-0.66409,1.48316,-0.43570,-0.46470,-0.99307,-0.18656,-0.30312,-1.83844,5.76379,23.64928,5.14431,0.43903,0.75659,-0.60349,-0.18285,0.17304,-56.11330,0.11933,-67.56553
-0.65123,1.47575,-0.43790,-0.18618,-0.89484,-0.16710,-1.05017,-1.33049,4.55901,23.42079,11.25542,3.37858,0.75022,-0.60993,-0.16625,0.19369,-74.20602,5.38509,-95.00367
-0.63253,1.47677,-0.43737,0.12027,-0.69840,-0.12434,-1.22455,-0.92188,3.05408,21.31431,17.74102,4.22828,0.73413,-0.62717,-0.16407,0.20197,-27.49533,22.45891,-113.33160
-0.60909,1.48906,-0.43517,0.43866,-0.37450,-0.06663,-0.75898,-0.68056,1.09715,19.65768,23.29112,4.33593,0.70653,-0.65813,-0.17879,0.18898,29.46781,9.47329,-116.25120
-0.58981,1.50055,-0.43311,0.62851,-0.13315,-0.02344,-0.34108,-0.45675,-0.39124,19.57253,24.94405,4.57210,0.67850,-0.68614,-0.19506,0.17549,44.95889,12.39818,-134.45120
-0.55864,1.52623,-0.42800,0.94770,0.25745,0.05397,0.17884,-0.00012,-2.98720,21.47030,22.90680,4.79227,0.61177,-0.74116,-0.23052,0.15258,42.57212,21.99541,-162.16160
-0.52013,1.55123,-0.42158,1.31936,0.56831,0.13689,0.47917,0.43632,-5.36934,25.10476,15.79085,5.37784,0.53126,-0.79459,-0.26308,0.13110,23.18292,25.65960,-154.35480
-0.47991,1.56922,-0.41534,1.63805,0.71399,0.20012,0.78232,0.67401,-6.82835,27.84025,9.22358,5.45620,0.45877,-0.83282,-0.29022,0.10821,26.46569,17.91792,-131.59370
-0.42861,1.58446,-0.40745,2.04840,0.78861,0.27349,1.19623,0.84571,-8.24138,30.88303,2.13038,5.38763,0.37541,-0.86641,-0.31986,0.07805,28.12468,5.86906,-105.72870
-0.36505,1.59389,-0.39777,2.56095,0.76410,0.35917,1.71614,0.98626,-9.82426,33.66015,-5.50409,5.49857,0.27557,-0.89374,-0.35173,0.03970,28.12193,-0.37595,-99.17515
-0.30119,1.59723,-0.38821,2.97079,0.65623,0.42544,2.10339,1.09178,-11.06549,35.33836,-13.05581,5.57904,0.17223,-0.90947,-0.37841,0.00158,27.42151,-0.67622,-104.19830
-0.22987,1.59139,-0.37679,3.39750,0.45103,0.49161,2.49055,1.06714,-12.29424,35.67681,-20.10782,5.14305,0.05921,-0.91337,-0.40045,-0.04339,26.29692,0.39873,-106.07770
-0.14265,1.56823,-0.36319,3.96498,0.04004,0.57272,3.29957,0.64041,-13.70611,39.48010,-35.33962,5.44717,-0.06285,-0.89663,-0.42427,-0.10999,17.99519,-34.08029,-66.03737
-0.04663,1.52042,-0.35059,4.55926,-0.66456,0.63232,3.74509,0.09309,-16.50638,32.93165,-55.26629,-0.11478,-0.23321,-0.85310,-0.42348,-0.19621,0.98054,-26.45741,-191.33350
0.03910,1.46159,-0.34160,4.87989,-1.39504,0.63305,3.56168,0.43117,-18.32727,19.30995,-68.58000,-1.82391,-0.39229,-0.79076,-0.40105,-0.24487,22.06426,58.23507,-157.16200
0.11460,1.35563,-0.33680,4.97946,-2.66650,0.57053,3.46912,0.26982,-20.58589,-9.58774,-92.20988,-5.44137,-0.55278,-0.68730,-0.35798,-0.30642,29.59387,27.75006,-121.58220
0.15312,1.23253,-0.33837,4.50929,-3.93021,0.42772,2.26329,-0.50399,-22.58570,-58.66095,-80.91541,-12.34979,-0.68274,-0.56266,-0.26904,-0.38067,-38.56919,77.78351,-199.89160
0.13761,1.11396,-0.34451,3.34913,-4.85796,0.25058,0.80876,-0.61613,-21.54960,-99.24133,-41.66982,-12.73513,-0.74203,-0.48739,-0.19392,-0.41741,-19.61082,101.48970,21.07692
0.09055,1.03015,-0.35085,1.97682,-5.08578,0.10831,-0.38147,0.06095,-18.74722,-95.14863,7.08440,-8.38914,-0.76638,-0.46321,-0.13795,-0.42317,9.80088,101.55700,195.01150
0.03786,0.98174,-0.35307,0.80489,-4.74556,0.05636,-0.51747,0.27098,-15.86467,-64.79238,45.69076,-0.56293,-0.78207,-0.44156,-0.11419,-0.42468,31.74286,59.85110,160.44090
0.00505,0.96849,-0.34836,0.16966,-3.96625,0.11777,0.34231,-0.78642,-9.19829,-31.37748,57.47515,4.89347,-0.72493,-0.51044,-0.19775,-0.41812,-29.27615,-100.18640,426.29040
-0.01472,0.96388,-0.34233,-0.15235,-3.22667,0.18462,2.03761,-0.91932,-5.04569,-18.66362,50.80740,3.00400,-0.69923,-0.54417,-0.27368,-0.37425,53.72269,-46.61901,303.26140
-0.03115,0.95356,-0.33657,-0.35749,-2.72850,0.23092,2.77600,-1.27961,-2.50173,-18.88601,32.81876,5.63288,-0.67423,-0.56005,-0.33199,-0.34863,88.67857,-126.19040,286.20420
-0.05099,0.94259,-0.33123,-0.56788,-2.34798,0.26165,2.33779,-1.19677,-1.23090,-17.99525,20.75728,2.08492,-0.65647,-0.57457,-0.34881,-0.34242,-31.72698,-20.15168,114.44800
-0.07414,0.92595,-0.32615,-0.78260,-2.12015,0.28262,1.50660,-0.94261,-1.20119,-14.88738,12.35128,2.12307,-0.65713,-0.57432,-0.33798,-0.35229,-49.76941,22.90870,10.09042
-0.09925,0.90717,-0.32069,-0.98380,-1.96652,0.30499,-0.08342,-0.64972,-1.78812,-10.98873,7.30340,1.60037,-0.65994,-0.57102,-0.29807,-0.38675,-89.18927,29.13298,-38.63617
-0.12101,0.88522,-0.31577,-1.09697,-1.88873,0.31529,-1.40176,-0.39565,-2.35471,-8.19150,5.78209,0.43000,-0.66206,-0.56440,-0.25457,-0.42229,-104.99850,33.62244,-52.00327
-0.14341,0.86377,-0.31173,-1.19385,-1.81874,0.31047,-2.77891,0.01162,-2.99695,-5.75766,4.66854,-1.49691,-0.66251,-0.55662,-0.19549,-0.46156,-97.53807,38.55759,-53.56140
-0.16504,0.84273,-0.30960,-1.26183,-1.75676,0.27845,-3.58957,0.56873,-3.66603,-2.51632,4.44942,-3.77216,-0.66884,-0.54327,-0.13474,-0.48924,-56.43977,38.32194,-51.48351
-0.18511,0.82339,-0.30949,-1.29356,-1.68070,0.22252,-3.39116,1.08144,-4.00248,-1.13875,6.03082,-4.65829,-0.68332,-0.52858,-0.09324,-0.49495,10.70796,24.54245,-32.46518
-0.20434,0.80640,-0.31028,-1.30715,-1.58331,0.16394,-2.73783,1.36050,-3.97347,0.45341,8.21009,-4.62278,-0.69879,-0.51617,-0.06845,-0.49048,42.87499,10.50487,-12.57922
-0.22204,0.79161,-0.31109,-1.29714,-1.47585,0.11774,-1.97278,1.41029,-3.69852,2.15766,9.79848,-3.81969,-0.71279,-0.50642,-0.05630,-0.48198,62.31129,-4.34916,8.90932
-0.23745,0.78273,-0.31283,-1.25498,-1.30449,0.06704,-1.02754,1.28920,-3.11382,3.72007,11.35426,-2.60708,-0.72534,-0.50207,-0.05990,-0.46713,62.58755,-16.33539,30.74214
-0.25174,0.77396,-0.31362,-1.20536,-1.16587,0.04107,-0.39962,1.04800,-2.63455,4.91422,11.69741,-1.72423,-0.73475,-0.49665,-0.06452,-0.45752,52.95891,-24.80544,36.69983
-0.26408,0.76751,-0.31403,-1.13877,-1.02627,0.02574,0.13666,0.74024,-2.20603,6.45512,11.74753,-0.74216,-0.74335,-0.49069,-0.07402,-0.44854,45.93661,-33.40227,34.58329
-0.27309,0.76494,-0.31432,-1.03941,-0.86213,0.01522,0.40594,0.47397,-1.75296,7.58878,11.59854,-0.04544,-0.74734,-0.48799,-0.08325,-0.44320,27.33688,-28.74430,32.24235
-0.27865,0.76573,-0.31490,-0.90914,-0.67996,0.00254,0.24485,0.48293,-1.34263,8.61039,11.15399,-0.68435,-0.74542,-0.49146,-0.08045,-0.44310,-6.63181,-2.10846,27.00647
-0.28290,0.76691,-0.31591,-0.78435,-0.52656,-0.01449,-0.01952,0.69055,-1.02187,9.13945,10.99255,-1.32783,-0.74218,-0.49815,-0.06987,-0.44287,-16.01796,12.63902,23.43832
-0.28525,0.77012,-0.31754,-0.65788,-0.37520,-0.03694,-0.34473,1.00126,-0.69712,9.20208,10.64486,-1.69072,-0.73617,-0.50905,-0.05459,-0.44264,-20.03434,23.85301,24.17722
-0.28569,0.77471,-0.31945,-0.52985,-0.23390,-0.05810,-0.54990,1.20421,-0.38658,9.47267,9.91407,-1.73645,-0.72969,-0.52030,-0.04194,-0.44168,-17.15265,21.51111,23.41309
-0.28427,0.78062,-0.32120,-0.40044,-0.10242,-0.07303,-0.60800,1.18395,-0.07943,9.34569,9.14349,-0.99837,-0.72336,-0.52986,-0.03683,-0.44119,-2.60944,1.97136,22.53812
-0.28106,0.78775,-0.32296,-0.27160,0.02019,-0.08521,-0.69141,1.08005,0.21960,9.49682,8.57676,-1.02290,-0.71520,-0.53940,-0.03410,-0.44314,-4.55734,-4.29861,21.34749
-0.27576,0.79616,-0.32507,-0.13989,0.13689,-0.09936,-0.67095,0.89441,0.54327,9.53975,8.28822,-1.35815,-0.70658,-0.54926,-0.03679,-0.44465,1.30555,-11.28257,23.20295
-0.26472,0.80978,-0.32863,0.06002,0.31484,-0.13548,-0.58374,0.65451,1.11665,8.63259,7.98948,-2.11387,-0.69337,-0.56452,-0.04711,-0.44535,5.41825,-9.91624,26.92474
-0.25910,0.82231,-0.33341,0.11005,0.36200,-0.14873,-0.55197,0.60780,1.27905,8.23182,7.85642,-2.38123,-0.67810,-0.58323,-0.04799,-0.44466,6.29781,-7.33353,27.20411
-0.24483,0.84014,-0.34003,0.26964,0.52236,-0.20718,-0.22873,0.42998,1.83304,6.25802,6.94924,-3.08301,-0.66383,-0.60257,-0.06847,-0.43766,16.80256,-5.15848,24.68602
-0.23399,0.85616,-0.34683,0.36539,0.64116,-0.26135,0.15516,0.33753,2.19824,4.41415,6.45219,-2.95425,-0.65355,-0.61890,-0.08738,-0.42686,23.73240,-2.49601,20.25953
-0.22503,0.87124,-0.35349,0.41881,0.72639,-0.30341,0.36507,0.37363,2.44507,3.23910,5.80377,-2.85561,-0.64241,-0.63546,-0.10035,-0.41644,16.16509,3.78824,17.95936
-0.21615,0.88736,-0.36081,0.46070,0.81086,-0.34748,0.53983,0.47518,2.65039,1.76219,4.88207,-2.46730,-0.63098,-0.65270,-0.11173,-0.40419,11.71044,7.58306,13.80630
-0.20866,0.90198,-0.36741,0.47498,0.85666,-0.37204,0.59089,0.58151,2.72101,0.91275,4.41710,-2.22003,-0.62003,-0.66815,-0.11916,-0.39363,6.43180,9.43153,10.05923
-0.20145,0.91858,-0.37497,0.48219,0.92039,-0.40497,0.53565,0.79449,2.78988,-0.16498,3.52375,-1.55773,-0.60741,-0.68572,-0.12159,-0.38217,-3.03309,12.31378,5.39194
-0.19515,0.93482,-0.38212,0.47459,0.96802,-0.42719,0.29961,1.02566,2.81945,-0.88578,2.40317,-1.02252,-0.59259,-0.70375,-0.11802,-0.37370,-16.23909,11.94801,3.49813
-0.18930,0.94973,-0.38865,0.46335,0.98796,-0.43607,0.09853,1.14588,2.80952,-1.65403,1.61619,-0.63782,-0.57797,-0.71980,-0.11500,-0.36690,-19.50580,8.79982,2.49664
-0.18566,0.96506,-0.39528,0.42266,1.00865,-0.44393,-0.37801,1.30340,2.72404,-2.54743,0.75803,-0.26431,-0.56062,-0.73592,-0.10188,-0.36571,-30.39318,4.36050,-3.07035
-0.18181,0.97945,-0.40143,0.39323,1.01307,-0.44364,-0.60441,1.34125,2.67221,-2.42157,0.03562,-0.02320,-0.54467,-0.75019,-0.09474,-0.36275,-23.25483,-0.32376,-1.24252
-0.17804,0.99330,-0.40736,0.36972,1.00983,-0.44054,-0.70173,1.33314,2.62974,-2.35605,-0.59278,0.23907,-0.52967,-0.76326,-0.09031,-0.35880,-14.70552,-2.32797,-2.95820
-0.17639,1.00560,-0.41273,0.32058,0.98444,-0.42979,-0.76011,1.26057,2.50644,-2.80060,-1.96587,0.59581,-0.51691,-0.77351,-0.08653,-0.35636,-2.98474,-4.54949,-4.97717
-0.17466,1.01694,-0.41791,0.28063,0.95059,-0.41833,-0.68788,1.17962,2.30430,-3.19067,-2.69172,0.75073,-0.50835,-0.78117,-0.08490,-0.35233,1.78978,-5.51683,-12.19119
-0.17368,1.02739,-0.42262,0.23865,0.91135,-0.40251,-0.47318,1.09134,2.06712,-2.89410,-2.88151,1.22883,-0.50391,-0.78660,-0.08684,-0.34612,13.40458,-4.75030,-18.41558
-0.17331,1.03671,-0.42662,0.19523,0.86339,-0.37893,-0.27781,0.98189,1.86139,-2.50397,-3.23866,1.83472,-0.49992,-0.79125,-0.09002,-0.34043,14.23132,-4.86260,-14.49070
-0.17262,1.04594,-0.43048,0.16525,0.82411,-0.35851,-0.24012,0.89087,1.71535,-2.60369,-3.38445,1.87601,-0.49382,-0.79647,-0.09038,-0.33707,5.65629,-6.86081,-12.21429
-0.17299,1.05407,-0.43367,0.12691,0.77764,-0.33300,-0.22457,0.79307,1.54060,-2.85578,-3.27724,1.92501,-0.48913,-0.80029,-0.09011,-0.33492,1.75573,-7.49022,-12.85515
-0.17425,1.06129,-0.43618,0.08350,0.72611,-0.30198,-0.23684,0.69303,1.41218,-2.44869,-3.33211,2.08727,-0.48364,-0.80418,-0.08968,-0.33368,-0.08145,-6.50261,-8.41322
-0.17526,1.06807,-0.43845,0.05168,0.67817,-0.27371,-0.30399,0.59675,1.31014,-2.19831,-3.58379,2.11644,-0.47732,-0.80806,-0.08801,-0.33385,-3.63912,-7.21664,-6.70967
-0.17656,1.07399,-0.44033,0.02197,0.62823,-0.24548,-0.37897,0.50818,1.19578,-2.13674,-3.59779,2.01953,-0.47161,-0.81128,-0.08554,-0.33481,-4.85490,-7.13203,-7.59955
-0.17846,1.07864,-0.44173,-0.01160,0.57005,-0.21478,-0.50736,0.43062,1.08703,-2.11719,-3.74031,1.99559,-0.46549,-0.81433,-0.08117,-0.33704,-6.38069,-5.43844,-6.04736
-0.18019,1.08345,-0.44327,-0.03559,0.52587,-0.19295,-0.62151,0.38522,1.00062,-1.91695,-3.56861,1.69776,-0.45925,-0.81752,-0.07610,-0.33904,-10.93206,-5.42388,-7.00031
-0.18246,1.08740,-0.44434,-0.06185,0.47839,-0.16914,-0.69771,0.34481,0.92727,-1.87935,-3.30926,1.67292,-0.45333,-0.82046,-0.07138,-0.34094,-6.29628,-3.57014,-5.62254
-0.18531,1.09036,-0.44493,-0.09169,0.42567,-0.14226,-0.76634,0.29257,0.87921,-1.76468,-3.30908,1.63278,-0.44686,-0.82336,-0.06687,-0.34340,-5.09479,-3.45152,-2.76381
-0.18767,1.09394,-0.44571,-0.10784,0.39288,-0.12440,-0.71843,0.25308,0.84192,-1.54551,-3.26122,1.64814,-0.44163,-0.82600,-0.06519,-0.34415,-0.48835,-4.09056,-3.02799
-0.19065,1.09563,-0.44535,-0.12954,0.34057,-0.09410,-0.52218,0.17645,0.75506,-1.26445,-3.33556,1.89716,-0.43989,-0.82684,-0.06807,-0.34380,11.87349,-4.09483,-5.08952
-0.19350,1.09657,-0.44456,-0.14594,0.28693,-0.06237,-0.25263,0.08422,0.65590,-0.83145,-3.39731,1.96543,-0.44011,-0.82667,-0.07407,-0.34268,16.12440,-4.82073,-6.34737
-0.19617,1.09685,-0.44340,-0.15636,0.23262,-0.03116,0.04566,-0.00849,0.53307,-0.59232,-3.47076,1.98216,-0.44232,-0.82545,-0.08205,-0.34095,19.58340,-4.97080,-7.47953
-0.19866,1.09716,-0.44243,-0.16232,0.19020,-0.00960,0.18579,-0.08209,0.44867,-0.42368,-3.67007,1.88722,-0.44308,-0.82461,-0.08760,-0.34064,15.42663,-5.24962,-6.86510
-0.20104,1.09613,-0.44111,-0.16572,0.13781,0.01234,0.26280,-0.15765,0.32853,-0.13756,-3.79388,1.47377,-0.44489,-0.82281,-0.09193,-0.34148,7.03037,-5.09905,-7.92563
-0.20319,1.09449,-0.43988,-0.16480,0.08698,0.02830,0.27701,-0.19204,0.19071,0.12795,-3.51379,1.07363,-0.44747,-0.82076,-0.09408,-0.34245,3.49072,-2.80595,-10.47582
-0.20531,1.09235,-0.43887,-0.16424,0.03964,0.03818,0.13518,-0.21319,0.10374,0.03163,-3.31407,0.73287,-0.44770,-0.81957,-0.09217,-0.34550,-6.65570,-1.73685,-7.44555
-0.20741,1.09011,-0.43806,-0.16353,0.00100,0.04279,-0.04898,-0.22136,0.04314,0.07257,-3.15636,0.23285,-0.44680,-0.81882,-0.08809,-0.34948,-15.43621,-1.29572,-4.86807
-0.20933,1.08710,-0.43742,-0.15995,-0.04033,0.04402,-0.18268,-0.19230,-0.05210,0.30792,-2.73692,-0.19685,-0.44747,-0.81769,-0.08314,-0.35246,-11.73044,1.23193,-6.91513
-0.21093,1.08352,-0.43712,-0.15478,-0.08074,0.04119,-0.25090,-0.13104,-0.15740,0.27057,-2.31896,-0.27134,-0.44955,-0.81645,-0.07843,-0.35379,-4.47516,3.96234,-6.94154
-0.21261,1.08044,-0.43684,-0.15063,-0.10664,0.03811,-0.25969,-0.08451,-0.22499,0.39302,-2.01021,-0.32020,-0.45167,-0.81530,-0.07521,-0.35444,-2.92313,3.57772,-5.70860
-0.21407,1.07706,-0.43653,-0.14319,-0.13208,0.03568,-0.21404,-0.04359,-0.30559,0.61664,-1.60262,-0.17399,-0.45523,-0.81362,-0.07310,-0.35419,2.59295,3.21584,-5.68668
-0.21526,1.07378,-0.43623,-0.13410,-0.15091,0.03356,-0.20814,-0.01900,-0.35993,0.68047,-1.11500,-0.00892,-0.45813,-0.81205,-0.07043,-0.35459,2.54838,1.88729,-5.15589
-0.21631,1.07066,-0.43597,-0.12472,-0.16359,0.03135,-0.28280,-0.01876,-0.37465,0.72531,-0.73973,-0.10990,-0.45914,-0.81090,-0.06612,-0.35673,-4.45222,0.05335,-1.28228
-0.21712,1.06765,-0.43572,-0.11361,-0.17228,0.02938,-0.33331,-0.02525,-0.39270,0.80695,-0.52075,-0.18278,-0.46040,-0.80952,-0.06206,-0.35896,-4.89471,-0.06351,-1.28053
-0.21721,1.06426,-0.43570,-0.09928,-0.17962,0.02664,-0.36954,-0.02185,-0.42471,0.80077,-0.34092,-0.12154,-0.46221,-0.80795,-0.05781,-0.36088,-1.72451,-0.02621,-1.94230
-0.21738,1.06109,-0.43566,-0.08781,-0.18336,0.02422,-0.42215,-0.02401,-0.43991,0.76102,-0.13738,-0.14920,-0.46342,-0.80651,-0.05314,-0.36326,-3.69757,-0.03606,-1.34889
-0.21772,1.05835,-0.43550,-0.07691,-0.18389,0.02236,-0.44054,-0.02131,-0.45834,0.76821,0.07770,-0.19478,-0.46508,-0.80496,-0.04892,-0.36518,-2.51941,0.29087,-1.20460
-0.21802,1.05579,-0.43534,-0.06792,-0.18226,0.02104,-0.41516,-0.01776,-0.48454,0.65598,0.22503,-0.15032,-0.46756,-0.80313,-0.04569,-0.36644,0.98894,-0.01172,-1.65953
-0.21815,1.05351,-0.43517,-0.05863,-0.17662,0.02015,-0.32966,-0.00572,-0.53029,0.56784,0.61621,-0.05358,-0.47160,-0.80088,-0.04384,-0.36641,5.29510,0.53888,-3.29497
-0.21811,1.05161,-0.43492,-0.05033,-0.16428,0.02130,-0.26240,-0.02973,-0.53418,0.55104,0.95687,0.23014,-0.47467,-0.79873,-0.04289,-0.36725,4.82170,-0.90892,-0.60619
