posX, posY, posZ, velX, velY, velZ, angVelX, angVelY, angVelZ, accX, accY, accZ, rotX, rotY, rotZ, rotW, angAccX, angAccY, angAccZ
-0.29887,0.92235,-0.50408,-0.00909,-0.10945,-0.14105,0.29508,-0.34182,-0.40717,0.35517,0.73540,0.20497,-0.56300,-0.74874,-0.00288,-0.34986,-2.38490,-0.65159,3.61363
-0.29867,0.92188,-0.50585,-0.00351,-0.09532,-0.13957,0.24015,-0.30120,-0.30780,0.42634,0.96168,-0.00782,-0.56269,-0.74866,-0.00377,-0.35054,-3.65891,2.06010,6.04256
-0.29843,0.92139,-0.50772,0.00134,-0.08411,-0.13959,0.20386,-0.25785,-0.21907,0.41353,0.87311,-0.05402,-0.56219,-0.74891,-0.00475,-0.35078,-3.20533,3.26978,6.86709
-0.29809,0.92099,-0.50965,0.00625,-0.07356,-0.14006,0.17849,-0.21030,-0.15852,0.18003,0.67680,-0.11354,-0.56192,-0.74919,-0.00543,-0.35062,-2.70478,3.57892,6.11490
-0.29780,0.92058,-0.51155,0.00959,-0.06524,-0.14024,0.19967,-0.16024,-0.13459,0.26029,0.52603,0.01073,-0.56281,-0.74912,-0.00670,-0.34932,1.75538,3.25291,1.73000
-0.29745,0.92007,-0.51338,0.01305,-0.06006,-0.13929,0.19466,-0.11716,-0.10710,0.37195,0.30267,0.18491,-0.56323,-0.74926,-0.00741,-0.34833,0.77951,3.70963,1.45914
-0.29689,0.91947,-0.51503,0.01841,-0.05698,-0.13562,0.16943,-0.08028,-0.12251,0.11548,0.18210,0.21576,-0.56429,-0.74874,-0.00702,-0.34773,-2.81198,2.34635,0.42303
-0.29646,0.91894,-0.51650,0.02078,-0.05299,-0.12977,0.24963,-0.07246,-0.18029,0.22698,0.42039,0.43329,-0.56778,-0.74700,-0.00914,-0.34574,4.62820,1.04269,-4.17292
-0.29577,0.91893,-0.51755,0.02682,-0.04180,-0.11852,0.24470,-0.05574,-0.18626,0.37583,0.66177,0.79080,-0.56955,-0.74612,-0.00993,-0.34471,0.20691,0.63380,-0.35315
-0.29516,0.91894,-0.51867,0.03044,-0.03264,-0.11074,0.15265,-0.03984,-0.16449,0.31075,0.88110,0.65273,-0.56957,-0.74582,-0.00870,-0.34535,-7.24955,1.03884,1.08137
-0.29479,0.91961,-0.51856,0.03474,-0.01861,-0.10150,0.04978,-0.01581,-0.12263,0.35851,1.11434,0.66384,-0.56807,-0.74652,-0.00673,-0.34635,-7.74135,2.25933,3.09433
-0.29469,0.92029,-0.51786,0.03951,-0.00264,-0.09097,-0.02713,-0.00179,-0.05406,0.37592,1.17363,0.73508,-0.56640,-0.74749,-0.00589,-0.34701,-6.24629,1.30512,4.69987
-0.29410,0.92078,-0.51836,0.04393,0.01267,-0.07942,-0.04521,-0.01486,0.00862,0.17841,1.03062,0.82464,-0.56560,-0.74789,-0.00595,-0.34744,-2.35162,-0.13602,4.89635
-0.29335,0.92141,-0.51902,0.04647,0.02575,-0.06622,0.01460,-0.05034,0.02193,0.13834,0.92626,0.86517,-0.56559,-0.74781,-0.00696,-0.34761,1.79001,-2.34293,1.71660
-0.29172,0.92279,-0.52044,0.04914,0.03620,-0.05388,0.13038,-0.09004,0.00525,0.26555,0.85326,1.07794,-0.56682,-0.74708,-0.01048,-0.34710,9.13153,-2.86909,-1.00832
-0.29008,0.92471,-0.52063,0.05434,0.04948,-0.03597,0.20024,-0.13691,0.02558,0.44046,0.80011,1.29208,-0.56769,-0.74646,-0.01540,-0.34681,6.13382,-3.24034,0.60938
-0.28901,0.92609,-0.52016,0.05910,0.05905,-0.02193,0.16327,-0.16250,0.08262,0.43180,0.74489,1.28738,-0.56619,-0.74700,-0.01729,-0.34804,-0.91694,-2.55906,3.83328
-0.28782,0.92762,-0.51931,0.06468,0.06888,-0.00514,0.12715,-0.20219,0.14958,0.33668,0.68245,1.07203,-0.56395,-0.74774,-0.01958,-0.34994,-4.62414,-2.64636,5.47577
-0.28659,0.92929,-0.51821,0.06988,0.07762,0.01115,0.18433,-0.24904,0.18105,0.38510,0.58260,1.04850,-0.56327,-0.74783,-0.02407,-0.35056,2.74342,-3.04668,2.50772
-0.28527,0.93096,-0.51697,0.07519,0.08469,0.02626,0.24846,-0.28404,0.20799,0.33593,0.45082,1.05126,-0.56277,-0.74795,-0.02909,-0.35072,5.44760,-2.57621,2.35306
-0.28397,0.93264,-0.51570,0.07905,0.09110,0.03889,0.28176,-0.29836,0.24153,0.22493,0.44941,0.81571,-0.56175,-0.74846,-0.03351,-0.35088,2.45847,-1.60775,2.15829
-0.28266,0.93435,-0.51443,0.08216,0.09693,0.04913,0.31845,-0.29291,0.27537,0.21006,0.36710,0.63606,-0.56068,-0.74927,-0.03796,-0.35042,2.11152,-0.20380,2.50778
-0.28134,0.93600,-0.51320,0.08467,0.10067,0.05668,0.36480,-0.28272,0.29303,0.14715,0.25580,0.58813,-0.56003,-0.74996,-0.04265,-0.34944,3.25680,1.20913,1.94833
-0.28008,0.93758,-0.51163,0.08622,0.10244,0.06798,0.40909,-0.24999,0.29829,0.03587,-0.05660,0.68943,-0.55971,-0.75076,-0.04697,-0.34769,2.92193,2.02983,0.79858
-0.27883,0.93894,-0.51010,0.08726,0.10071,0.07639,0.42928,-0.23805,0.29085,0.10411,-0.21762,0.73733,-0.55949,-0.75115,-0.05099,-0.34662,1.54709,1.40765,-0.75725
-0.27752,0.94011,-0.50816,0.08894,0.09636,0.08927,0.46365,-0.22378,0.26685,0.07978,-0.32343,0.86705,-0.55994,-0.75122,-0.05516,-0.34510,2.13485,1.12660,-1.43028
-0.27624,0.94122,-0.50611,0.08994,0.09213,0.10141,0.47763,-0.21682,0.24082,0.06003,-0.30014,0.88920,-0.56040,-0.75112,-0.05901,-0.34395,1.37813,0.68541,-1.95740
-0.27498,0.94236,-0.50400,0.09025,0.08943,0.11177,0.48373,-0.20329,0.22596,0.02185,-0.16953,0.84911,-0.56067,-0.75120,-0.06265,-0.34267,0.93330,0.95475,-1.86483
-0.27378,0.94361,-0.50158,0.08961,0.08881,0.12444,0.49488,-0.17253,0.22557,-0.05168,0.03702,0.77303,-0.56076,-0.75170,-0.06621,-0.34075,0.98121,1.71335,-0.23625
-0.27263,0.94489,-0.49924,0.08803,0.08968,0.13347,0.49879,-0.14526,0.23647,-0.18585,0.07841,0.78412,-0.56049,-0.75245,-0.06974,-0.33883,0.50895,1.74072,1.17607
-0.27159,0.94618,-0.49680,0.08521,0.09047,0.14213,0.48188,-0.11336,0.25039,-0.27655,0.04588,0.73780,-0.55985,-0.75347,-0.07258,-0.33701,-0.96902,2.30179,0.77706
-0.27073,0.94742,-0.49401,0.08033,0.09028,0.15386,0.46229,-0.06621,0.25687,-0.38973,-0.12429,0.78011,-0.55930,-0.75468,-0.07480,-0.33474,-1.40574,3.24924,0.85811
-0.26994,0.94852,-0.49109,0.07581,0.08764,0.16534,0.44826,-0.03152,0.21539,-0.37491,-0.21934,0.87708,-0.55996,-0.75495,-0.07657,-0.33262,-1.48288,2.65231,-1.66087
-0.26916,0.94958,-0.48798,0.07208,0.08511,0.17713,0.43254,-0.00548,0.18025,-0.24484,-0.20241,1.15120,-0.56064,-0.75516,-0.07821,-0.33061,-0.43719,2.78451,-3.14702
-0.26837,0.95064,-0.48409,0.06919,0.08304,0.19751,0.38280,-0.00315,0.15286,-0.08000,-0.04480,1.44831,-0.56086,-0.75525,-0.07925,-0.32979,-3.09068,0.92425,-2.28089
-0.26748,0.95189,-0.47986,0.06823,0.08380,0.21887,0.35300,-0.02481,0.15052,-0.05330,0.11527,1.58309,-0.56060,-0.75541,-0.08122,-0.32938,-2.76402,-1.30590,-0.52546
-0.26661,0.95318,-0.47540,0.06714,0.08522,0.23908,0.33510,-0.05675,0.15200,-0.07752,0.12623,1.80611,-0.56028,-0.75544,-0.08368,-0.32922,-0.89525,-2.03234,-0.18094
-0.26567,0.95460,-0.46992,0.06724,0.08831,0.26984,0.36063,-0.13513,0.15184,0.13310,0.29336,1.98466,-0.56030,-0.75471,-0.08817,-0.32969,0.33856,-4.39557,-0.45357
-0.26458,0.95615,-0.46385,0.06954,0.09303,0.30441,0.41449,-0.24053,0.16009,0.20461,0.36237,2.31220,-0.56034,-0.75357,-0.09438,-0.33053,3.55242,-6.02026,-0.00846
-0.26346,0.95782,-0.45775,0.07186,0.09859,0.33226,0.41412,-0.32972,0.18575,0.28585,0.55651,2.53516,-0.55940,-0.75280,-0.09983,-0.33226,2.58914,-7.30441,0.74525
-0.26222,0.95984,-0.45076,0.07534,0.10777,0.36638,0.33654,-0.44131,0.25207,0.30795,0.67369,2.56790,-0.55622,-0.75266,-0.10465,-0.33641,-4.04823,-8.01741,3.84034
-0.26093,0.96200,-0.44335,0.07915,0.11693,0.39995,0.21683,-0.55000,0.31818,0.26952,0.61883,2.37399,-0.55190,-0.75270,-0.10846,-0.34217,-8.46371,-8.12797,4.82830
-0.25950,0.96416,-0.43561,0.08414,0.12434,0.43166,0.12717,-0.64511,0.36895,0.57807,0.41647,2.04231,-0.54760,-0.75256,-0.11250,-0.34803,-8.77685,-7.23380,3.55712
-0.25793,0.96624,-0.42758,0.09013,0.12907,0.46082,0.12253,-0.73247,0.37129,0.29331,0.44100,1.88803,-0.54500,-0.75128,-0.11805,-0.35301,-1.50158,-6.19817,0.63408
-0.25660,0.96862,-0.41905,0.09211,0.13693,0.49184,0.24686,-0.81500,0.39995,0.00197,0.57875,1.86633,-0.54309,-0.74985,-0.12741,-0.35572,7.11023,-4.70633,1.94088
-0.25541,0.97100,-0.41075,0.09132,0.14338,0.51355,0.34733,-0.88216,0.42006,-0.06941,0.45342,1.76037,-0.54125,-0.74826,-0.13685,-0.35837,9.72627,-5.41100,2.49911
-0.25414,0.97336,-0.40230,0.09173,0.14834,0.53209,0.39727,-0.93531,0.38909,-0.00370,0.27294,1.06131,-0.54021,-0.74582,-0.14503,-0.36179,4.85978,-5.08965,-0.61819
-0.25283,0.97576,-0.39427,0.09294,0.15323,0.54128,0.37909,-0.94403,0.32858,0.11412,0.37588,0.34630,-0.53958,-0.74332,-0.15062,-0.36557,0.39671,-0.88193,-4.50282
-0.25156,0.97834,-0.38668,0.09325,0.15984,0.54272,0.35369,-0.93393,0.31859,0.09294,0.74449,-0.07193,-0.53787,-0.74179,-0.15594,-0.36895,-3.64710,1.07814,-2.62020
-0.25036,0.98150,-0.37923,0.09221,0.17358,0.54098,0.43067,-0.91184,0.37080,-0.06015,0.96839,-0.28155,-0.53579,-0.74102,-0.16425,-0.36992,3.79911,0.75006,2.80881
-0.24919,0.98472,-0.37192,0.09098,0.18553,0.53801,0.52486,-0.88245,0.42557,-0.07454,1.07127,-0.31365,-0.53381,-0.74043,-0.17335,-0.36981,6.95411,2.44894,5.11962
-0.24801,0.98820,-0.36480,0.09030,0.19853,0.53323,0.61674,-0.84844,0.48121,-0.04577,1.07738,-0.47904,-0.53174,-0.74006,-0.18290,-0.36893,7.83487,2.47623,5.27986
-0.24683,0.99211,-0.35818,0.08957,0.21491,0.52164,0.63887,-0.78411,0.55553,-0.07319,0.93933,-0.76817,-0.52845,-0.74096,-0.19085,-0.36783,2.83679,3.86481,4.67249
-0.24587,0.99595,-0.35212,0.08605,0.22773,0.50424,0.51375,-0.70218,0.62742,-0.33807,0.60681,-1.17563,-0.52327,-0.74324,-0.19468,-0.36862,-7.92877,4.34718,4.70107
-0.24486,0.99936,-0.34581,0.08371,0.23146,0.49462,0.45026,-0.65344,0.64874,-0.30060,0.37462,-1.25366,-0.51932,-0.74446,-0.19918,-0.36934,-9.50425,4.60553,3.57992
-0.24399,1.00296,-0.34054,0.08092,0.23598,0.47174,0.40412,-0.53758,0.65628,-0.04605,0.12757,-1.18755,-0.51611,-0.74652,-0.20219,-0.36806,-2.33474,6.02446,0.59243
-0.24306,1.00637,-0.33503,0.07974,0.23686,0.45640,0.44796,-0.46573,0.66029,-0.05812,0.09350,-1.18339,-0.51385,-0.74763,-0.20775,-0.36586,1.68027,5.20593,0.14833
-0.24219,1.00980,-0.32975,0.07749,0.23821,0.44098,0.54702,-0.39414,0.68035,-0.18713,0.12885,-1.13243,-0.51204,-0.74873,-0.21487,-0.36200,6.18999,5.54415,1.48097
-0.24141,1.01332,-0.32482,0.07424,0.24032,0.42270,0.64114,-0.31684,0.71690,-0.15616,0.11455,-1.15351,-0.51000,-0.75025,-0.22229,-0.35723,6.05134,4.99285,2.11333
-0.24061,1.01678,-0.31997,0.07153,0.24136,0.40738,0.64836,-0.26323,0.75068,-0.27284,-0.00775,-1.21478,-0.50695,-0.75217,-0.22823,-0.35378,3.27802,4.60329,3.27469
-0.23998,1.02018,-0.31565,0.06669,0.24169,0.38760,0.55651,-0.21135,0.77903,-0.40159,0.01044,-1.36388,-0.50275,-0.75492,-0.23151,-0.35176,-4.95307,3.51157,2.22676
-0.23952,1.02361,-0.31159,0.06035,0.24206,0.36785,0.44218,-0.16825,0.81534,-0.44174,0.02014,-1.37395,-0.49764,-0.75825,-0.23384,-0.35032,-9.04016,2.91737,2.54151
-0.23916,1.02686,-0.30774,0.05399,0.23979,0.34898,0.35343,-0.14305,0.84379,-0.39061,-0.32714,-1.12427,-0.49251,-0.76140,-0.23640,-0.34903,-6.39161,1.11569,2.23915
-0.23872,1.02982,-0.30370,0.04940,0.23397,0.33681,0.32692,-0.14087,0.83486,-0.43872,-0.57609,-1.06478,-0.48855,-0.76346,-0.23998,-0.34765,-4.06161,0.72326,0.09471
-0.23845,1.03246,-0.29994,0.04348,0.22497,0.32341,0.35994,-0.12336,0.81604,-0.41295,-0.64988,-1.05112,-0.48569,-0.76504,-0.24449,-0.34505,0.71125,0.78810,-1.70357
-0.23823,1.03488,-0.29631,0.03806,0.21452,0.31056,0.42518,-0.10296,0.79535,-0.38991,-0.86341,-0.83963,-0.48346,-0.76625,-0.24988,-0.34159,5.17329,1.93068,-0.97583
-0.23808,1.03699,-0.29282,0.03251,0.20158,0.29846,0.47502,-0.09269,0.76506,-0.42813,-0.98856,-0.87962,-0.48151,-0.76713,-0.25514,-0.33846,3.45671,0.58551,-1.97627
-0.23802,1.03882,-0.28944,0.02688,0.18714,0.28673,0.54582,-0.07362,0.73102,-0.42020,-1.11380,-0.82402,-0.48024,-0.76769,-0.26091,-0.33458,4.40787,1.77945,-2.01757
-0.23801,1.04024,-0.28614,0.02176,0.16972,0.27637,0.61288,-0.05179,0.68020,-0.35339,-1.34319,-0.69374,-0.47975,-0.76781,-0.26656,-0.33053,4.87449,1.81949,-3.05703
-0.23798,1.04113,-0.28302,0.01766,0.14774,0.26550,0.67308,-0.03612,0.60460,-0.15296,-1.37961,-0.63605,-0.48022,-0.76724,-0.27199,-0.32672,3.85021,1.50174,-5.06086
-0.23788,1.04192,-0.27992,0.01550,0.12837,0.25652,0.69235,-0.03577,0.54893,-0.13133,-1.47241,-0.57485,-0.48012,-0.76684,-0.27694,-0.32365,2.42376,0.96704,-4.12338
-0.23772,1.04272,-0.27677,0.01465,0.11381,0.24996,0.67817,-0.03809,0.50071,-0.06546,-1.51019,-0.64633,-0.47977,-0.76657,-0.28112,-0.32119,-0.38451,-0.21393,-3.76775
-0.23739,1.04249,-0.27406,0.01609,0.08748,0.23785,0.65435,-0.03619,0.40728,0.15073,-1.37537,-0.78925,-0.48074,-0.76556,-0.28426,-0.31938,-2.33728,-0.33896,-5.17136
-0.23671,1.04182,-0.27178,0.02233,0.05769,0.21906,0.64125,0.02228,0.28618,0.33153,-1.23218,-0.80394,-0.48320,-0.76441,-0.28649,-0.31642,-0.09801,3.14218,-4.59501
-0.23589,1.04290,-0.26612,0.02496,0.05070,0.21322,0.58579,0.04530,0.23869,0.41305,-1.31777,-0.79671,-0.48399,-0.76388,-0.29185,-0.31156,-1.91949,3.58735,-5.54756
-0.23478,1.04203,-0.26440,0.03480,0.02981,0.19610,0.25249,0.12139,0.05057,0.66727,-1.56636,-0.90429,-0.48641,-0.76476,-0.28181,-0.31485,-17.76705,5.01472,-9.90837
-0.23391,1.04153,-0.26289,0.04110,0.01859,0.18677,-0.02961,0.15842,-0.06627,0.79579,-1.55538,-0.93175,-0.48718,-0.76604,-0.27220,-0.31899,-26.69126,4.77545,-13.22771
-0.23201,1.04013,-0.26123,0.05621,-0.00279,0.16806,-0.84981,0.18423,-0.30063,0.97337,-0.83312,-0.76013,-0.48454,-0.77062,-0.24201,-0.33585,-46.54739,2.64819,-13.51694
-0.22991,1.03980,-0.25902,0.07325,-0.00666,0.16594,-1.32563,0.13300,-0.33397,1.38885,0.72171,-0.04062,-0.47856,-0.77455,-0.22197,-0.34898,-30.70373,-2.46053,-2.56159
-0.22735,1.04078,-0.25575,0.09351,0.00741,0.17804,-1.21521,0.07068,-0.22928,1.74358,1.79192,0.71389,-0.47514,-0.77604,-0.21902,-0.35218,-0.91617,-3.44768,5.75894
-0.22412,1.04339,-0.25151,0.11927,0.04150,0.20146,-0.59886,-0.02499,0.01851,1.71733,2.88456,1.24355,-0.47354,-0.77544,-0.23400,-0.34598,33.60466,-5.15268,14.13119
-0.22103,1.04656,-0.24717,0.13833,0.07638,0.22152,0.04380,-0.11850,0.26824,1.65400,3.10377,1.62661,-0.47206,-0.77395,-0.25413,-0.33703,51.55516,-5.91697,20.88183
-0.21736,1.05104,-0.24228,0.16113,0.12177,0.24488,0.81738,-0.22527,0.54906,1.58695,3.52581,1.58986,-0.47082,-0.77043,-0.28319,-0.32335,54.58420,-7.00451,20.70128
-0.21163,1.06027,-0.23557,0.21301,0.23500,0.29259,2.15833,-0.41551,1.02920,1.73418,3.82968,1.21486,-0.46881,-0.76174,-0.33277,-0.29873,34.85295,-5.21423,11.62178
-0.20375,1.07145,-0.22644,0.24011,0.30099,0.30576,2.53656,-0.39097,1.25247,1.65774,4.27256,0.75818,-0.46253,-0.75532,-0.37452,-0.27438,27.06799,0.31496,14.95644
-0.19879,1.08028,-0.22204,0.26350,0.36682,0.30710,2.56456,-0.31735,1.42957,1.62168,5.05785,-0.07948,-0.45591,-0.75493,-0.39287,-0.26052,6.45556,2.13376,13.44089
-0.19365,1.09098,-0.21833,0.28478,0.44649,0.29844,2.42893,-0.17654,1.65494,1.24566,6.04527,-0.78592,-0.44633,-0.75837,-0.40636,-0.24604,-7.25608,5.31603,15.67072
-0.18847,1.10375,-0.21510,0.30214,0.53968,0.28454,2.20734,-0.03268,1.92860,1.14332,7.20306,-1.08081,-0.43335,-0.76472,-0.41709,-0.23120,-17.35654,4.78948,20.85172
-0.18336,1.11891,-0.21196,0.31518,0.64800,0.27239,2.10364,0.13304,2.27667,0.77000,8.70286,-0.91455,-0.41794,-0.77193,-0.42956,-0.21196,-14.02265,5.29954,23.38856
-0.17859,1.13651,-0.20807,0.32099,0.76966,0.27374,2.31150,0.32620,2.75725,0.33614,9.19661,0.61094,-0.39977,-0.77739,-0.44974,-0.18325,7.30019,9.73247,35.05324
-0.17380,1.15617,-0.20273,0.32569,0.89617,0.29539,2.62087,0.45670,3.22439,0.32722,9.14908,2.20375,-0.37942,-0.78008,-0.47400,-0.15111,22.02451,9.47853,35.36657
-0.16917,1.17769,-0.19629,0.32749,1.02320,0.32842,2.79033,0.51418,3.61972,-0.09396,8.66313,2.81113,-0.35662,-0.78232,-0.49621,-0.12075,17.28318,4.28798,31.07781
-0.16486,1.19948,-0.18960,0.32460,1.12831,0.35805,2.72533,0.49245,3.85217,-0.57856,8.56974,2.56004,-0.33333,-0.78526,-0.51281,-0.09640,1.74958,-5.15509,22.59472
-0.16155,1.22523,-0.18193,0.30750,1.26759,0.39556,2.61916,0.46175,4.13917,-1.77488,8.81421,2.26882,-0.30614,-0.78905,-0.52782,-0.07131,-5.22036,-8.26449,16.44084
-0.15913,1.25025,-0.17427,0.28180,1.37028,0.42592,2.63638,0.51189,4.34153,-2.77337,8.66905,2.58160,-0.28113,-0.78989,-0.54332,-0.04299,-1.98467,-2.63503,17.93081
-0.15804,1.27681,-0.16567,0.24326,1.47046,0.46199,2.77306,0.64308,4.55544,-3.95342,8.39619,3.16532,-0.25599,-0.78779,-0.56016,-0.00912,6.42042,6.33549,18.04240
-0.16057,1.30767,-0.15468,0.16131,1.61305,0.52522,2.89030,0.85974,4.86739,-5.25939,7.40282,3.75066,-0.22826,-0.78517,-0.57486,0.03064,6.25248,12.54826,20.35448
-0.16420,1.33745,-0.14424,0.07763,1.71707,0.56993,2.59869,0.74445,5.00087,-6.43712,6.81831,3.43343,-0.19790,-0.78709,-0.58159,0.05554,-10.95042,-6.10711,12.25976
-0.16968,1.36743,-0.13390,-0.01427,1.80061,0.60347,2.19566,0.38027,5.12267,-8.49595,6.86604,2.74137,-0.16143,-0.79116,-0.58560,0.07121,-20.84676,-37.33591,2.65473
-0.18050,1.39945,-0.12285,-0.16306,1.89628,0.64054,1.79078,-0.02878,5.40554,-9.94463,5.19520,1.85578,-0.11704,-0.79660,-0.58674,0.08640,-13.39453,-38.23537,13.13145
-0.19244,1.43014,-0.11217,-0.29992,1.95609,0.66633,1.56624,-0.21712,5.62447,-10.20871,3.62525,1.65189,-0.07576,-0.79841,-0.58775,0.10655,-10.16932,-25.93591,13.09198
-0.20744,1.46041,-0.10073,-0.45439,1.99687,0.69740,1.51183,-0.21064,5.87867,-9.63899,1.85066,1.85436,-0.03506,-0.79605,-0.58924,0.13367,-3.86269,-5.64857,16.51151
-0.22143,1.48922,-0.08952,-0.56482,2.01140,0.71908,1.53467,-0.07691,6.02046,-9.49238,0.74977,1.45276,0.00131,-0.79015,-0.59074,0.16337,-1.40974,5.88464,13.71294
-0.23828,1.51716,-0.07802,-0.69275,2.01143,0.74086,1.63715,0.30656,6.21091,-9.21280,-0.70403,1.51150,0.03442,-0.77986,-0.59131,0.20246,-5.88373,24.95907,17.79491
-0.25916,1.54294,-0.06645,-0.85607,1.97721,0.75852,1.66832,0.48867,6.38572,-8.57036,-3.38872,0.43324,0.07051,-0.76858,-0.58972,0.23781,-1.42740,9.52150,12.29692
-0.27761,1.56767,-0.05578,-0.95202,1.93584,0.76003,1.62443,0.48444,6.35085,-7.43906,-3.34852,0.09812,0.10432,-0.75804,-0.58684,0.26479,-3.64717,1.29396,2.60158
-0.29794,1.59111,-0.04559,-1.05486,1.88536,0.75459,1.49217,0.62159,6.38718,-7.06497,-4.20174,-0.86422,0.13616,-0.74694,-0.57960,0.29598,-6.63705,4.25363,0.32144
-0.31819,1.61391,-0.03586,-1.13362,1.83489,0.74296,1.27087,0.49141,6.20524,-5.62598,-4.80532,-0.78557,0.16627,-0.73951,-0.57027,0.31665,-18.13961,-6.42694,-2.90811
-0.34077,1.63338,-0.02703,-1.22963,1.74665,0.72116,1.13199,-0.01665,5.75646,-5.98030,-6.05005,-1.33587,0.19629,-0.73537,-0.56407,0.32020,0.82892,-29.71922,-32.34953
-0.36356,1.65099,-0.01863,-1.31139,1.64944,0.69755,1.21862,-0.44817,5.55360,-5.87338,-7.39427,-2.15947,0.23215,-0.72560,-0.56016,0.32531,17.73499,-26.91854,-20.99192
-0.38795,1.66544,-0.01189,-1.40009,1.52332,0.65290,1.27084,-0.69340,5.43504,-5.67050,-8.49002,-3.66663,0.26692,-0.71414,-0.55450,0.33362,11.64892,-13.17983,-10.51907
-0.41226,1.67843,-0.00648,-1.47114,1.40097,0.59745,1.20606,-0.87905,5.41526,-4.77950,-9.15141,-4.27781,0.30183,-0.70325,-0.54420,0.34378,0.69795,-13.20912,-3.00506
-0.43616,1.69032,-0.00149,-1.52138,1.29005,0.54874,1.14137,-0.84106,5.54192,-4.31992,-9.41368,-4.34501,0.33597,-0.68860,-0.53193,0.36057,-0.11033,-9.10794,2.47147
-0.46067,1.69831,0.00180,-1.56682,1.14286,0.48496,0.82039,-0.49585,5.75873,-1.86541,-9.33855,-4.05189,0.36372,-0.67336,-0.51284,0.38896,-25.96078,12.74356,16.25381
-0.48422,1.70546,0.00467,-1.58722,1.01148,0.42785,0.55238,-0.35693,5.78157,-0.44162,-9.70018,-4.02831,0.38949,-0.66002,-0.49372,0.41099,-26.99596,4.79378,4.91829
-0.50680,1.71121,0.00690,-1.59065,0.88950,0.37393,0.53385,-0.45644,5.68959,0.70937,-10.25549,-4.45110,0.41801,-0.64571,-0.47832,0.42372,-7.33346,-4.86192,-4.72235
-0.52823,1.71342,0.00712,-1.57614,0.74399,0.30344,0.70779,-0.73251,5.49472,1.97970,-10.17840,-5.30822,0.44924,-0.63104,-0.46643,0.42710,16.49035,-11.51154,-13.02936
-0.54791,1.71392,0.00548,-1.53978,0.60595,0.22243,0.92576,-1.07297,5.20810,3.58173,-9.42430,-6.10753,0.48010,-0.61781,-0.45620,0.42390,24.92192,-14.86551,-17.78350
-0.56604,1.71466,0.00317,-1.48961,0.49992,0.14862,1.02931,-1.29902,4.93783,4.87478,-8.32607,-6.36465,0.50787,-0.60555,-0.44477,0.42137,21.43524,-13.89657,-22.28115
-0.58062,1.71321,-0.00166,-1.39963,0.38261,0.05228,0.97849,-1.48852,4.58190,6.23275,-6.78752,-5.96519,0.53065,-0.59779,-0.43179,0.41787,6.56965,-11.62390,-23.78096
-0.59247,1.71184,-0.00696,-1.28641,0.28706,-0.03434,0.74072,-1.47764,4.29786,7.78843,-5.41581,-5.17688,0.54786,-0.59089,-0.41635,0.42113,-10.44392,-3.60129,-19.01460
-0.60373,1.71176,-0.01120,-1.18921,0.22905,-0.08815,0.48657,-1.39137,4.10253,8.28122,-4.41862,-4.01295,0.56309,-0.58315,-0.40001,0.42762,-19.01224,0.24600,-19.45956
-0.61212,1.71129,-0.01577,-1.07066,0.17799,-0.13682,0.19156,-1.26324,3.86398,8.92872,-2.78427,-3.13745,0.57411,-0.57724,-0.38370,0.43585,-23.35155,4.07746,-16.52967
-0.61853,1.71150,-0.02045,-0.94790,0.14731,-0.17753,0.07839,-1.25191,3.44274,9.28279,-1.25964,-2.46277,0.58342,-0.57483,-0.37206,0.43676,-10.44549,0.11761,-27.16477
-0.62176,1.71273,-0.02535,-0.80288,0.13732,-0.21375,0.17074,-1.27076,2.73163,9.34036,0.33189,-1.77000,0.58849,-0.57724,-0.36948,0.42891,6.55330,-0.07460,-41.33784
-0.62307,1.71526,-0.02977,-0.65590,0.14709,-0.23716,0.35127,-1.22509,1.95072,9.20028,0.72113,-1.29309,0.59044,-0.58120,-0.37304,0.41765,17.60825,4.12194,-49.00069
-0.62460,1.71797,-0.03379,-0.54305,0.15722,-0.24943,0.34953,-1.09842,1.48207,9.40375,0.59508,-1.16037,0.59187,-0.58315,-0.37308,0.41283,6.88091,10.66236,-42.70257
-0.62419,1.72066,-0.03783,-0.42804,0.16466,-0.25833,0.20329,-0.95302,1.14453,9.55399,0.29486,-0.67849,0.59100,-0.58608,-0.37068,0.41210,-6.60780,10.74368,-33.33645
-0.61893,1.72318,-0.04197,-0.26562,0.16764,-0.26706,0.01325,-0.69737,0.81076,10.72589,0.12585,-0.48366,0.58590,-0.58937,-0.37033,0.41500,-14.65840,15.28580,-21.92370
-0.61225,1.72548,-0.04617,-0.11354,0.16718,-0.27493,0.02135,-0.47982,0.52601,11.07116,0.16371,-0.32076,0.58267,-0.59057,-0.37368,0.41482,-2.44560,15.06139,-20.38998
-0.60305,1.72803,-0.05047,0.04423,0.17037,-0.28232,0.14084,-0.21256,0.24505,11.67866,0.49485,-0.64504,0.57874,-0.58999,-0.38195,0.41362,6.87684,18.69556,-19.57833
-0.59257,1.73097,-0.05508,0.18642,0.17828,-0.29202,0.18402,0.02045,0.05078,11.99193,0.68428,-1.18032,0.57427,-0.58917,-0.38934,0.41414,8.05297,19.96716,-18.67498
-0.57702,1.73450,-0.06082,0.37305,0.19327,-0.31630,0.11166,0.01908,0.14960,12.68847,1.41252,-2.11506,0.57612,-0.58740,-0.38710,0.41618,-0.03709,-7.46878,12.06377
-0.55855,1.73936,-0.06718,0.56729,0.22479,-0.34471,-0.25946,0.60987,-0.28611,14.17718,2.64375,-2.57858,0.55478,-0.59132,-0.39746,0.42963,-28.05875,47.93652,-34.38091
-0.53797,1.74524,-0.07478,0.75251,0.26455,-0.38507,-0.30856,0.80845,-0.62436,13.47572,3.08745,-3.13546,0.54070,-0.59548,-0.40718,0.43272,-7.81087,12.97943,-22.78640
-0.51599,1.75183,-0.08313,0.91692,0.30558,-0.42694,-0.48628,0.96138,-0.86870,14.18346,3.59208,-4.16874,0.52492,-0.60092,-0.41362,0.43849,-7.04196,11.60857,-21.49246
-0.48702,1.76127,-0.09318,1.15562,0.37531,-0.49583,-1.02619,1.20283,-1.18515,16.08161,4.38298,-5.31005,0.49856,-0.61176,-0.41556,0.45222,-31.69064,16.57783,-18.71158
-0.45559,1.77171,-0.10409,1.38988,0.44327,-0.57208,-1.51888,1.37361,-1.48255,18.40533,5.18978,-6.20557,0.47033,-0.62383,-0.41587,0.46550,-39.34519,16.02184,-16.34521
-0.42340,1.78223,-0.11579,1.57631,0.49846,-0.63599,-1.71270,1.43542,-1.82374,20.21642,6.19803,-6.65184,0.44315,-0.63596,-0.42029,0.47174,-30.11732,10.71157,-23.86050
-0.37800,1.79772,-0.13171,1.90530,0.61419,-0.73652,-1.81992,1.54710,-2.83461,22.61927,8.68529,-5.53425,0.39872,-0.65789,-0.43693,0.46614,-12.10938,-10.02388,-48.08499
-0.32480,1.81733,-0.14810,2.28853,0.76747,-0.82102,-2.08528,2.27781,-4.58175,25.62007,9.57109,-5.41452,0.31858,-0.68160,-0.47149,0.46003,-19.07757,32.77738,-108.86440
-0.27029,1.83536,-0.16498,2.61120,0.86776,-0.89631,-2.47126,3.00374,-6.00566,28.32528,6.01322,-7.88581,0.22947,-0.69947,-0.50076,0.45533,-29.99362,45.22162,-122.72920
-0.20096,1.85061,-0.18857,3.08431,0.90886,-1.05566,-3.23006,4.05782,-7.68309,30.69015,-1.78166,-12.56556,0.10911,-0.71210,-0.52647,0.45149,-41.56979,63.96155,-109.40800
-0.12837,1.85754,-0.21764,3.51699,0.82138,-1.26440,-3.83636,5.00347,-9.12680,31.47548,-11.21859,-17.44752,-0.01621,-0.71242,-0.54560,0.44105,-38.22229,69.52308,-104.78570
-0.05089,1.85333,-0.25433,3.92807,0.58952,-1.53984,-4.16301,5.54263,-10.62831,27.59037,-21.32807,-20.76993,-0.14429,-0.70374,-0.56163,0.41050,-38.57732,43.90962,-107.56860
0.02762,1.83455,-0.29822,4.27361,0.19452,-1.86476,-4.33440,5.70284,-12.25103,22.84337,-36.70638,-26.36819,-0.27310,-0.68491,-0.57315,0.35750,-37.56634,0.88415,-96.31168
0.10284,1.79606,-0.35120,4.50277,-0.40698,-2.25571,-5.04952,5.52774,-14.05844,10.14912,-51.30431,-29.89146,-0.41117,-0.66065,-0.56218,0.28007,-77.92943,18.83148,-111.62720
0.16569,1.73698,-0.41060,4.49996,-1.18332,-2.65650,-6.50789,4.62297,-15.32070,-10.28365,-61.28324,-26.69863,-0.53358,-0.64535,-0.51596,0.18056,-134.85160,48.01197,-56.12256
0.16586,1.60934,-0.47438,3.42442,-2.98999,-3.05895,-9.89549,2.26060,-14.20858,-57.16100,-50.57472,3.06037,-0.59946,-0.68315,-0.41199,0.06503,-106.12940,70.24239,87.41774
0.21270,1.49176,-0.55138,2.71424,-3.48976,-2.93702,-10.41280,1.59992,-12.49163,-60.42883,-29.68720,16.60573,-0.70030,-0.64860,-0.29057,-0.06686,-39.79733,106.39740,127.06900
0.19480,1.42461,-0.57062,1.91342,-3.75172,-2.62222,-9.17570,1.70153,-10.25921,-55.46635,-5.26116,26.58632,-0.71310,-0.64728,-0.25863,-0.07500,68.45210,56.48358,136.18070
0.17310,1.37064,-0.57938,1.22050,-3.77544,-2.22296,-6.23919,2.83386,-8.81515,-43.75274,6.82380,29.91819,-0.74456,-0.61269,-0.26335,-0.02975,220.71990,-12.58956,61.86234
0.15861,1.33092,-0.58148,0.77246,-3.58516,-1.80801,-1.52006,2.67849,-6.62859,-23.41757,13.90658,27.69300,-0.73729,-0.57824,-0.34543,0.05208,327.72390,-160.72830,38.55153
0.14817,1.29383,-0.58245,0.46812,-3.40116,-1.46071,0.37194,1.96202,-5.82600,-21.60445,10.08697,24.99008,-0.74010,-0.54389,-0.38868,0.07323,155.72350,-101.64610,53.59173
0.13523,1.25768,-0.58105,0.19035,-3.24184,-1.15023,0.56109,1.01180,-4.62731,-17.23129,7.95256,20.66162,-0.73101,-0.54292,-0.40787,0.06706,31.06368,-87.28500,78.77604
0.12205,1.22258,-0.57762,-0.03892,-3.09410,-0.86787,-1.18754,0.11031,-3.39201,-13.17503,7.93843,16.74321,-0.72054,-0.57460,-0.38762,0.02012,-108.04460,-27.49809,74.77019
0.10942,1.18757,-0.57487,-0.21667,-2.97425,-0.65025,-3.26254,-0.49577,-2.14811,-12.41903,8.48544,14.79285,-0.70410,-0.61752,-0.34864,-0.03697,-154.58990,-2.22244,90.02587
0.09525,1.15364,-0.57089,-0.38080,-2.86463,-0.45973,-4.81918,-0.89123,-1.14932,-11.89301,9.15440,12.07075,-0.68342,-0.65546,-0.30824,-0.09109,-139.98270,5.40679,77.23322
0.08062,1.11951,-0.56775,-0.51566,-2.77931,-0.32175,-5.01220,-0.99056,-0.69556,-11.75584,8.71347,9.85488,-0.67164,-0.67227,-0.28662,-0.12165,-61.11589,5.75187,48.67844
0.06274,1.08664,-0.56287,-0.66825,-2.69594,-0.18881,-4.14942,-0.89659,-0.61183,-11.15841,6.13105,8.23906,-0.67078,-0.67245,-0.28545,-0.12801,44.65575,7.24225,17.36435
0.04481,1.05311,-0.55885,-0.78974,-2.64044,-0.09598,-3.17095,-0.73771,-0.78848,-9.77915,4.01048,7.23562,-0.67782,-0.66356,-0.28956,-0.12807,84.91361,4.05141,-10.27462
0.02365,1.02051,-0.55288,-0.93185,-2.58048,0.00617,-2.21111,-0.53791,-1.04712,-8.57314,3.07635,6.24396,-0.68905,-0.65000,-0.29575,-0.12349,66.34219,4.99451,-15.94239
0.00241,0.98765,-0.54712,-1.04915,-2.53607,0.08603,-1.80060,-0.33112,-1.26058,-8.26962,2.76907,5.92258,-0.69937,-0.64011,-0.29178,-0.12654,39.15859,8.84012,-14.93048
-0.01914,0.95511,-0.54100,-1.14685,-2.49772,0.15447,-1.77220,-0.14501,-1.41277,-8.33837,2.72952,6.30665,-0.70829,-0.63358,-0.28005,-0.13593,16.14231,11.44896,-16.40029
-0.04509,0.92433,-0.53170,-1.28664,-2.43996,0.25446,-2.49679,0.07205,-1.48258,-8.88791,3.35672,7.24800,-0.71303,-0.63530,-0.24913,-0.16099,-32.21247,16.65373,-9.37773
-0.07132,0.89494,-0.52125,-1.40462,-2.37424,0.35211,-3.62565,0.15184,-1.42328,-7.43472,5.30061,7.25482,-0.70939,-0.64315,-0.20761,-0.20003,-77.08398,17.40378,0.65081
-0.09738,0.86780,-0.50919,-1.49660,-2.28972,0.45323,-4.60272,0.12861,-1.35020,-5.44950,7.19147,6.79148,-0.70121,-0.64965,-0.16595,-0.24231,-77.80678,9.22438,4.60774
-0.12231,0.84312,-0.49609,-1.55469,-2.18696,0.54848,-4.98535,0.06486,-1.38167,-3.19129,8.83859,5.69554,-0.69574,-0.64924,-0.13403,-0.27654,-43.08165,0.88678,1.92947
-0.14659,0.82133,-0.48273,-1.59352,-2.06445,0.62847,-4.66917,-0.01317,-1.49775,-3.08585,10.04326,4.45456,-0.69696,-0.64215,-0.11701,-0.29699,9.21646,-9.42896,-4.83761
-0.17333,0.80481,-0.46905,-1.66115,-1.88578,0.69861,-3.72510,0.03105,-1.71427,-4.47764,10.13481,3.10009,-0.70808,-0.62937,-0.11226,-0.29985,55.13162,-9.00407,-11.81475
-0.19988,0.78658,-0.45732,-1.71116,-1.76624,0.72792,-3.26071,0.14123,-1.87645,-3.83339,9.55717,2.54696,-0.71636,-0.61860,-0.09875,-0.30725,47.70161,-1.21132,-13.33879
-0.22625,0.77108,-0.44542,-1.74782,-1.63392,0.75361,-3.17518,0.28279,-2.06423,-1.20381,8.93825,2.14787,-0.72300,-0.60753,-0.07709,-0.31974,19.40954,3.84645,-16.39269
-0.25015,0.75884,-0.43358,-1.74143,-1.47917,0.77387,-3.38560,0.40276,-2.13229,2.28924,10.35216,0.56932,-0.72412,-0.59909,-0.04941,-0.33809,-16.42530,9.85106,-7.89683
-0.27220,0.74678,-0.42240,-1.70802,-1.35246,0.77965,-3.28452,0.45077,-2.11936,3.49386,11.34842,-0.17631,-0.72604,-0.59073,-0.02920,-0.35078,-0.49137,4.98791,-2.11542
-0.29275,0.73928,-0.41175,-1.66119,-1.18762,0.77675,-2.88691,0.47043,-1.98306,3.39501,12.53617,-0.89488,-0.72894,-0.58462,-0.01762,-0.35575,23.53123,-1.48463,6.55395
-0.31242,0.73645,-0.40228,-1.61112,-0.98616,0.75725,-2.42843,0.64198,-1.69959,3.13251,12.30902,-1.14414,-0.73049,-0.58426,-0.00727,-0.35352,35.60971,6.43009,14.87508
-0.33190,0.73219,-0.39300,-1.56653,-0.84650,0.73806,-2.49858,0.92673,-1.53904,4.27847,10.70036,-0.56426,-0.72793,-0.58422,0.01661,-0.35852,15.43484,20.64347,11.18320
-0.34946,0.72897,-0.38387,-1.50556,-0.72438,0.72164,-3.04257,1.27741,-1.42039,5.84413,9.50363,-0.96325,-0.71829,-0.58512,0.05429,-0.37248,-29.54626,33.50022,7.56974
-0.36243,0.72897,-0.37578,-1.39117,-0.58086,0.69383,-3.73613,1.77390,-1.30407,9.55507,8.44986,-2.66364,-0.70300,-0.58745,0.10290,-0.38744,-44.81215,48.75709,-3.05042
-0.37265,0.72901,-0.36837,-1.25763,-0.46299,0.66042,-3.99752,1.68897,-1.10728,9.89786,8.76525,-4.01604,-0.68876,-0.58630,0.13144,-0.40569,-30.56164,-4.74994,21.01259
-0.38077,0.73109,-0.36338,-1.12199,-0.33969,0.59907,-3.62697,1.63235,-0.85492,9.67962,9.09454,-5.84490,-0.68090,-0.58883,0.14707,-0.40991,18.59525,-0.94283,14.79117
-0.38864,0.73400,-0.36017,-1.01196,-0.23108,0.52602,-3.02810,1.55681,-0.57643,8.93359,9.02786,-7.02896,-0.67608,-0.59407,0.15431,-0.40766,44.20524,-3.37641,18.36755
-0.39428,0.73911,-0.35976,-0.89274,-0.11466,0.42855,-2.36037,1.62375,-0.27947,8.33861,7.58266,-6.52435,-0.67213,-0.60361,0.15933,-0.39813,57.22420,2.33604,15.28973
-0.39872,0.74416,-0.36040,-0.78056,-0.02194,0.33586,-2.01475,1.87623,-0.05109,7.71936,5.86065,-5.76230,-0.66426,-0.61449,0.17329,-0.38875,32.70642,17.60913,11.16306
-0.40125,0.74938,-0.36167,-0.66237,0.05595,0.25214,-1.95326,2.18077,0.07839,7.15105,4.18479,-4.55551,-0.65320,-0.62398,0.19493,-0.38207,5.42366,23.21775,6.01476
-0.40339,0.75354,-0.36165,-0.55973,0.10410,0.20222,-1.90660,2.24148,0.08784,7.37126,2.94746,-2.76075,-0.64464,-0.62867,0.21357,-0.37895,5.10184,12.57852,-0.48232
-0.40279,0.75784,-0.36082,-0.43688,0.14547,0.17367,-1.96198,1.93275,0.06802,8.08482,2.37899,-1.35325,-0.63739,-0.62764,0.22615,-0.38557,-4.11406,-18.61645,0.07859
-0.40107,0.76220,-0.35932,-0.32172,0.18008,0.16002,-1.92281,1.46688,0.12258,8.34416,2.56242,-1.22189,-0.63118,-0.62595,0.23132,-0.39534,0.03675,-28.85617,7.34161
-0.39777,0.76743,-0.35807,-0.20674,0.22009,0.14501,-1.68822,0.87484,0.21768,8.26828,3.03186,-1.61142,-0.62823,-0.62390,0.22678,-0.40577,13.97262,-39.34048,9.95148
-0.39295,0.77370,-0.35777,-0.09314,0.26759,0.11925,-1.27205,0.27690,0.38083,8.16432,3.71347,-2.57169,-0.62758,-0.62352,0.21348,-0.41448,27.49525,-41.83799,12.78782
-0.38701,0.78146,-0.35897,0.01248,0.32766,0.07735,-0.70757,-0.23633,0.64857,7.24013,4.70437,-3.56690,-0.62744,-0.62696,0.19249,-0.41976,39.91115,-36.93675,19.40000
-0.37628,0.79493,-0.36550,0.18136,0.47454,-0.04815,0.28695,-0.55789,1.49273,4.86619,5.40496,-4.79396,-0.62102,-0.64551,0.15618,-0.41624,32.73556,-4.22463,33.30015
-0.36719,0.81289,-0.37154,0.23953,0.54430,-0.11633,0.63867,-0.46211,1.90074,3.48014,4.66207,-4.54911,-0.60531,-0.66731,0.12882,-0.41437,24.81294,7.63595,32.12002
-0.36092,0.82436,-0.37718,0.28127,0.60087,-0.17429,0.91628,-0.35101,2.18704,2.27634,3.73177,-3.57362,-0.59512,-0.68324,0.11058,-0.40840,19.99248,9.76625,24.43419
-0.35512,0.83582,-0.38268,0.30810,0.64585,-0.21873,1.09756,-0.25293,2.35764,1.34250,3.00311,-2.57397,-0.58535,-0.69747,0.09409,-0.40254,13.61494,8.18296,15.11486
-0.34981,0.84725,-0.38798,0.32173,0.68140,-0.25047,1.09838,-0.12762,2.48133,0.47394,2.20407,-1.63436,-0.57353,-0.71108,0.08195,-0.39839,1.35274,8.32429,9.98391
-0.34507,0.85814,-0.39270,0.32423,0.70076,-0.26718,1.01168,-0.05512,2.55904,-0.09044,1.17287,-0.92508,-0.56083,-0.72335,0.07148,-0.39640,-5.39114,6.06507,9.04087
-0.34045,0.86863,-0.39736,0.32408,0.70995,-0.27914,0.72702,0.06418,2.52012,-0.48592,0.07488,-0.52184,-0.54732,-0.73362,0.06868,-0.39690,-17.93816,5.11049,-1.10102
-0.33634,0.87833,-0.40184,0.31648,0.70593,-0.28672,0.61501,0.11448,2.38130,-0.78753,-0.57290,-0.71284,-0.53807,-0.74150,0.06376,-0.39573,-12.21286,1.74884,-7.89520
-0.33237,0.88772,-0.40641,0.30878,0.69764,-0.29396,0.63440,0.12917,2.23640,-0.74906,-0.75227,-0.94900,-0.53111,-0.74863,0.05630,-0.39281,-2.70931,2.74057,-11.21821
-0.32897,0.89675,-0.41158,0.29456,0.68660,-0.30897,0.81592,0.16053,2.03631,-1.10353,-0.64759,-1.17662,-0.52840,-0.75476,0.04634,-0.38599,10.19406,3.62895,-13.00201
-0.32585,0.90596,-0.41706,0.27921,0.68012,-0.32495,0.95318,0.23609,1.91949,-1.36564,-0.48475,-1.35650,-0.52434,-0.76208,0.03686,-0.37807,11.67295,7.00335,-10.82299
-0.32314,0.91527,-0.42292,0.26133,0.67587,-0.34243,1.09447,0.34154,1.83840,-1.55459,-0.31007,-1.47800,-0.52023,-0.77011,0.02715,-0.36818,9.85460,10.06004,-7.01805
-0.32134,0.92448,-0.42936,0.23422,0.67147,-0.36510,1.26156,0.50356,1.76547,-1.79373,-0.35659,-1.25920,-0.51675,-0.77880,0.01756,-0.35514,9.57604,11.31096,-4.36558
