posX, posY, posZ, velX, velY, velZ, angVelX, angVelY, angVelZ, accX, accY, accZ, rotX, rotY, rotZ, rotW, angAccX, angAccY, angAccZ
-0.24843,1.11063,-0.37311,0.01335,0.20883,-0.28184,0.28968,0.03086,0.12283,0.60547,-1.88934,-0.75764,0.42479,0.83428,0.17266,0.30612,-8.44939,-1.73719,-3.12425
-0.24744,1.11186,-0.37792,0.02431,0.18660,-0.29357,0.20638,0.05689,0.11769,1.03155,-1.25313,-1.04261,0.42410,0.83509,0.17154,0.30552,-8.99309,0.85480,-0.92180
-0.24564,1.11325,-0.38297,0.04519,0.17011,-0.30672,0.23880,0.09832,0.13298,1.73439,-0.75678,-0.86845,0.42406,0.83580,0.17323,0.30267,0.66489,3.02723,0.76882
-0.24302,1.11497,-0.38789,0.07397,0.16153,-0.31559,0.37836,0.12716,0.12494,2.36298,-0.36799,-0.58555,0.42576,0.83545,0.17809,0.29838,8.28443,2.34961,0.09531
-0.23940,1.11706,-0.39274,0.11140,0.15999,-0.32134,0.51656,0.09472,0.12684,3.07888,0.09728,-0.20195,0.42719,0.83442,0.18470,0.29518,11.42714,-0.65838,-0.23220
-0.23459,1.11969,-0.39762,0.15835,0.16628,-0.32705,0.57998,0.01063,0.11005,3.69872,0.89982,-0.43845,0.42827,0.83277,0.19062,0.29450,6.04770,-5.86713,-0.70874
-0.22869,1.12345,-0.40291,0.21150,0.18770,-0.33754,0.51301,-0.08638,0.12275,3.89949,2.14033,-0.80972,0.42723,0.83195,0.19387,0.29625,-1.08334,-6.29910,-0.29547
-0.22219,1.12902,-0.40890,0.26232,0.23095,-0.35559,0.48391,-0.13577,0.13844,3.34631,4.40838,-2.04983,0.42633,0.83135,0.19728,0.29695,-8.47524,-6.15870,0.41758
-0.21575,1.13767,-0.41553,0.30199,0.30972,-0.37958,0.93621,0.00797,0.21386,2.34585,7.17880,-2.44507,0.42959,0.83021,0.21230,0.28484,22.27795,5.75326,3.85001
-0.20993,1.14972,-0.42272,0.32483,0.42153,-0.40660,1.48287,0.23136,0.40801,1.26137,9.02197,-1.61163,0.43144,0.83025,0.23255,0.26544,43.69510,16.86350,11.78584
-0.20494,1.16373,-0.43005,0.33126,0.53691,-0.42979,1.62644,0.36104,0.72013,0.35093,10.03274,-1.25050,0.42524,0.83400,0.24666,0.25054,25.69021,12.34908,21.96937
-0.20070,1.18276,-0.43831,0.32369,0.70408,-0.46084,1.24292,0.40706,1.29446,-0.96226,10.78772,-1.55589,0.40417,0.84574,0.25026,0.24236,-16.97502,-0.36530,36.08945
-0.19732,1.20151,-0.44665,0.30577,0.83440,-0.48688,0.75124,0.40730,1.80777,-1.92563,10.78711,-2.29420,0.37921,0.85895,0.24895,0.23756,-37.51931,-8.03938,41.33858
-0.19501,1.22298,-0.45569,0.27662,0.97406,-0.51680,0.37586,0.48442,2.29304,-2.48355,9.39623,-2.42841,0.35201,0.87318,0.24716,0.22926,-34.45148,-4.18054,40.42558
-0.19342,1.24527,-0.46460,0.24225,1.10183,-0.53896,0.36327,0.66638,2.58613,-2.36874,6.99812,-1.05668,0.33141,0.88398,0.25125,0.21358,-4.56944,9.70770,21.19680
-0.19190,1.26611,-0.47257,0.21319,1.18534,-0.54369,0.47757,0.77868,2.69889,-2.02099,5.24806,0.19469,0.31545,0.89131,0.25850,0.19809,6.49995,10.78341,9.91969
-0.19073,1.28717,-0.47962,0.18477,1.25483,-0.53452,0.53784,0.78661,2.77624,-1.64461,3.51031,1.04813,0.29886,0.89759,0.26574,0.18546,5.86013,2.99349,5.04510
-0.18902,1.30659,-0.48630,0.16551,1.29466,-0.51970,0.50039,0.72417,2.80189,-1.23173,2.19868,1.42763,0.28204,0.90333,0.27089,0.17628,0.27973,-3.44812,2.64487
-0.18718,1.32533,-0.49245,0.15154,1.31605,-0.50009,0.36275,0.58239,2.78724,-0.91224,1.00818,1.70610,0.26465,0.90872,0.27348,0.17143,-7.21615,-10.82369,-0.50677
-0.18550,1.34378,-0.49780,0.14148,1.32235,-0.47401,0.29691,0.43393,2.71228,-0.68840,0.01241,1.91371,0.24904,0.91271,0.27716,0.16769,-5.27333,-12.39163,-4.24242
-0.18369,1.36136,-0.50245,0.13631,1.31514,-0.44324,0.37442,0.34361,2.57916,-0.35425,-0.88021,2.21913,0.23680,0.91486,0.28389,0.16238,4.23791,-6.92408,-8.05873
-0.18176,1.37865,-0.50706,0.13465,1.30454,-0.41972,0.47484,0.31172,2.45358,-0.17205,-1.18421,2.37077,0.22591,0.91645,0.29130,0.15567,8.94293,-2.77245,-12.36923
-0.17977,1.39497,-0.51029,0.13373,1.28167,-0.38157,0.62378,0.27645,2.25385,0.00646,-1.69669,2.46388,0.21854,0.91630,0.30046,0.14953,10.29065,0.21014,-12.49451
-0.17736,1.41028,-0.51352,0.13469,1.25480,-0.34909,0.68033,0.23252,2.06732,-0.08463,-1.99831,2.38147,0.21134,0.91640,0.30752,0.14482,5.21851,-1.61659,-12.93603
-0.17518,1.42527,-0.51637,0.13189,1.22832,-0.31752,0.75699,0.24950,1.89922,-0.47512,-1.65710,2.18739,0.20543,0.91622,0.31493,0.13842,4.78061,1.08259,-13.43564
-0.17373,1.44049,-0.51879,0.12121,1.20750,-0.28726,0.76576,0.24753,1.79364,-1.00391,-1.14527,2.42775,0.19811,0.91659,0.32099,0.13260,2.85590,3.05001,-8.99871
-0.17281,1.45589,-0.52082,0.10235,1.19704,-0.25688,0.61325,0.07676,1.78338,-1.51941,-0.22402,2.41601,0.18574,0.91820,0.32369,0.13279,-7.29799,-9.63275,-2.81254
-0.17258,1.47210,-0.52242,0.07708,1.19840,-0.22584,0.47006,-0.12157,1.82950,-2.19394,0.49448,2.11143,0.17063,0.91993,0.32633,0.13460,-10.17786,-17.61283,2.39537
-0.17361,1.48915,-0.52338,0.04426,1.20666,-0.19396,0.49785,-0.14418,1.86197,-2.86686,0.91523,1.88461,0.15781,0.92061,0.33229,0.13099,-2.15197,-7.66039,2.44557
-0.17552,1.50662,-0.52377,0.00480,1.21966,-0.15998,0.72898,0.09408,1.86881,-3.16233,1.12384,2.48349,0.14952,0.91987,0.34300,0.11762,12.15842,15.85812,1.25632
-0.17841,1.52433,-0.52334,-0.04063,1.23318,-0.12126,0.94312,0.27312,1.88467,-3.34008,0.91185,3.16501,0.14094,0.91837,0.35481,0.10415,15.27356,19.19211,1.60411
-0.18316,1.54262,-0.52146,-0.10426,1.25206,-0.06830,1.04803,0.27751,1.89256,-3.73700,1.14373,3.14480,0.13055,0.91672,0.36525,0.09577,6.38552,1.49395,0.75913
-0.18766,1.56100,-0.52003,-0.15105,1.26829,-0.03244,1.04746,0.21771,1.91347,-3.99877,1.57096,3.15550,0.11857,0.91570,0.37331,0.08983,1.93498,-2.86998,0.71567
-0.19303,1.58012,-0.51798,-0.19921,1.29000,0.00404,0.99850,0.10451,1.94557,-4.04424,2.04887,3.27195,0.10496,0.91489,0.38019,0.08607,-1.45711,-7.70477,2.41673
-0.20070,1.60060,-0.51446,-0.26983,1.32645,0.05358,0.89715,-0.11867,2.01370,-4.89856,2.61129,3.01015,0.08811,0.91430,0.38577,0.08644,-4.35571,-16.28849,2.59427
-0.20937,1.62170,-0.51071,-0.34149,1.36430,0.09738,0.89986,-0.12716,2.12144,-5.64514,2.88762,2.99670,0.07189,0.91315,0.39313,0.08023,-1.57280,-5.68127,6.52850
-0.21964,1.64338,-0.50611,-0.42181,1.40275,0.14447,0.96886,-0.03286,2.26254,-5.92403,2.85257,3.59742,0.05544,0.91123,0.40216,0.06965,3.14193,6.41597,9.61867
-0.23039,1.66516,-0.50095,-0.49164,1.43637,0.18949,1.06791,0.01844,2.38456,-5.73577,2.94579,3.90996,0.03856,0.90819,0.41252,0.05949,5.74094,5.60882,11.50473
-0.24340,1.68847,-0.49378,-0.57966,1.48411,0.25407,1.24244,0.05509,2.50471,-5.50202,2.93043,4.19676,0.02109,0.90327,0.42577,0.04879,10.00186,4.12065,8.54898
-0.25681,1.71196,-0.48619,-0.65627,1.52367,0.31230,1.41348,0.10059,2.57109,-5.59854,2.65637,4.15931,0.00481,0.89735,0.43966,0.03794,11.93264,4.09460,5.90516
-0.27172,1.73560,-0.47801,-0.73864,1.55774,0.36669,1.55067,0.14610,2.61343,-6.42921,2.15648,3.60284,-0.01091,0.89088,0.45330,0.02703,10.68789,5.25315,2.68897
-0.28887,1.75915,-0.46977,-0.83674,1.58409,0.41118,1.58975,0.19757,2.74324,-7.58805,1.55719,2.90380,-0.02955,0.88494,0.46455,0.01445,4.38735,3.63339,7.62969
-0.30842,1.78240,-0.46141,-0.94879,1.59947,0.44819,1.54521,0.23972,2.95681,-8.43067,0.63596,2.48079,-0.05184,0.87941,0.47324,0.00026,-2.51394,0.80145,14.21596
-0.32894,1.80492,-0.45308,-1.05124,1.60207,0.47713,1.46435,0.27405,3.16699,-8.67076,-0.22415,2.47101,-0.07540,0.87384,0.48011,-0.01464,-5.26224,-0.26057,17.72987
-0.35317,1.82640,-0.44344,-1.18598,1.59002,0.51921,1.37446,0.28060,3.41936,-8.22843,-1.48888,2.85554,-0.10183,0.86765,0.48569,-0.03028,-6.13665,-2.54346,16.86633
-0.37660,1.84696,-0.43375,-1.28199,1.56634,0.55319,1.33530,0.26446,3.55175,-7.88436,-2.56177,2.84843,-0.12628,0.86029,0.49194,-0.04421,-2.67965,-2.96347,12.31022
-0.40308,1.86534,-0.42260,-1.40078,1.51654,0.60028,1.28632,0.26025,3.66284,-6.97576,-3.82445,3.04553,-0.15058,0.85248,0.49716,-0.05856,-2.94620,-0.82012,8.52961
-0.43004,1.88185,-0.41110,-1.50668,1.44928,0.64456,1.23183,0.15041,3.69090,-6.33621,-4.86937,2.54893,-0.17444,0.84460,0.50150,-0.06870,-0.83087,-6.94524,1.59893
-0.45698,1.89715,-0.39974,-1.59228,1.37616,0.67852,1.15165,0.09546,3.70545,-6.02807,-5.72319,2.27285,-0.19747,0.83675,0.50447,-0.07979,-4.06761,-6.97927,0.53211
-0.48475,1.91051,-0.38799,-1.67236,1.28993,0.71091,1.06934,0.08679,3.74327,-5.53508,-6.68491,2.25945,-0.22044,0.82842,0.50654,-0.09242,-5.01427,-2.61307,2.23023
-0.51246,1.92274,-0.37601,-1.73535,1.20712,0.74023,1.02840,0.10878,3.77315,-5.05752,-7.22889,2.62634,-0.24273,0.81903,0.50901,-0.10575,-5.57241,-0.96362,2.96517
-0.54207,1.93113,-0.36279,-1.81222,1.08434,0.78119,1.06499,0.11300,3.79753,-4.73538,-8.23997,2.39974,-0.26524,0.80772,0.51306,-0.11834,1.90992,1.00374,1.14273
-0.57179,1.93802,-0.34969,-1.87674,0.96345,0.81271,1.08565,0.16738,3.86661,-4.57428,-9.10534,2.04901,-0.28801,0.79533,0.51653,-0.13305,1.23400,2.04606,3.91614
-0.60206,1.94243,-0.33655,-1.93744,0.83178,0.83904,1.09069,0.19342,3.96758,-4.07663,-9.89063,1.69105,-0.31195,0.78199,0.51889,-0.14806,-0.32468,3.69246,7.44818
-0.63288,1.94426,-0.32351,-1.99123,0.68862,0.85735,1.08850,0.11276,4.06860,-3.43706,-10.59883,1.19135,-0.33798,0.76805,0.51971,-0.16052,1.01800,-4.10064,6.87740
-0.66407,1.94238,-0.31035,-2.04049,0.51887,0.87413,1.13035,-0.07250,4.15092,-2.54029,-10.84103,1.00012,-0.36584,0.75304,0.52005,-0.16922,4.77235,-9.69787,4.67222
-0.69424,1.94074,-0.29756,-2.06676,0.38776,0.88314,1.19976,-0.23948,4.19810,-1.78313,-11.20965,0.59900,-0.39330,0.73696,0.52064,-0.17648,9.55939,-12.65594,2.58663
-0.72435,1.93533,-0.28451,-2.08299,0.23050,0.89224,1.29909,-0.33281,4.25717,-0.69092,-11.31006,0.52008,-0.42064,0.71876,0.52193,-0.18449,8.63847,-8.26846,3.73505
-0.75344,1.92624,-0.27154,-2.08201,0.04978,0.89858,1.38787,-0.27226,4.36191,0.67932,-11.37893,-0.09130,-0.44652,0.69820,0.52390,-0.19666,5.13992,3.80705,6.68553
-0.78139,1.91784,-0.25924,-2.06735,-0.08411,0.89542,1.43603,-0.19559,4.44242,1.70445,-11.08249,-0.57641,-0.47113,0.67711,0.52503,-0.20954,2.00209,6.35791,7.79915
-0.80776,1.90635,-0.24795,-2.03605,-0.23444,0.87963,1.43328,-0.10437,4.54325,2.51878,-10.63473,-1.75131,-0.49540,0.65501,0.52471,-0.22409,0.49186,6.25485,7.04064
-0.83241,1.89213,-0.23812,-1.98652,-0.39703,0.84600,1.27504,-0.02470,4.67395,3.50108,-10.02913,-2.41338,-0.51909,0.63413,0.51973,-0.24147,-10.85444,2.21548,8.42379
-0.85633,1.87763,-0.22880,-1.93306,-0.53176,0.81048,1.13069,-0.02080,4.79303,4.24615,-9.35965,-2.51982,-0.54320,0.61285,0.51278,-0.25769,-10.64002,-2.17094,8.88212
-0.87884,1.86191,-0.21992,-1.86854,-0.65589,0.77609,1.08315,-0.06820,4.84864,5.12263,-8.49065,-2.02114,-0.56716,0.59049,0.50623,-0.27091,-5.38631,-5.68278,5.59866
-0.89964,1.84527,-0.21118,-1.79273,-0.76856,0.74677,1.17920,-0.10632,4.80628,5.78038,-7.67437,-1.95278,-0.58953,0.56667,0.50282,-0.28021,6.07231,-1.20271,-1.51486
-0.91835,1.82761,-0.20294,-1.69769,-0.88113,0.71448,1.29663,-0.07024,4.71658,6.29108,-6.79899,-2.38892,-0.60934,0.54215,0.50135,-0.28884,8.71796,3.52291,-5.54183
-0.93727,1.81108,-0.19478,-1.62254,-0.95506,0.68613,1.23657,0.02608,4.68616,6.47692,-6.17536,-2.96561,-0.62704,0.51832,0.49701,-0.30191,-2.22691,7.39005,-3.57450
-0.95405,1.79333,-0.18796,-1.53167,-1.03154,0.64426,1.06832,0.09991,4.68328,6.88108,-5.28393,-3.37201,-0.64342,0.49570,0.48954,-0.31725,-13.11827,2.46104,0.59859
-0.96876,1.77414,-0.18253,-1.43522,-1.09965,0.59274,0.94165,0.10418,4.63049,7.07866,-4.41420,-3.85097,-0.65919,0.47397,0.48134,-0.33034,-10.51492,-1.44330,-2.39887
-0.98202,1.75432,-0.17831,-1.33833,-1.15749,0.53427,0.89367,0.03050,4.53500,6.77842,-3.63361,-4.22854,-0.67529,0.45268,0.47282,-0.33986,-3.18888,-4.89083,-7.03521
-0.99486,1.73490,-0.17461,-1.25710,-1.19938,0.48104,0.88959,-0.06726,4.43562,6.75650,-3.13318,-4.48735,-0.69137,0.43145,0.46396,-0.34727,0.88151,-7.35407,-8.00254
-1.00564,1.71514,-0.17263,-1.16210,-1.24078,0.41451,0.96508,-0.19831,4.32051,6.83440,-2.57233,-4.82405,-0.70795,0.41007,0.45535,-0.35114,6.00070,-7.13111,-8.59660
-1.01514,1.69529,-0.17192,-1.06736,-1.27287,0.34333,1.11179,-0.34248,4.18555,6.77970,-1.82780,-5.24206,-0.72496,0.38825,0.44737,-0.35149,12.62055,-5.45813,-9.89944
-1.02411,1.67608,-0.17176,-0.98557,-1.29065,0.27929,1.18436,-0.45721,4.08173,6.82758,-1.02796,-5.53837,-0.74098,0.36694,0.43816,-0.35257,11.41790,-5.59786,-9.51130
-1.03009,1.65778,-0.17386,-0.87642,-1.29529,0.19474,1.18023,-0.61279,3.97283,6.84106,0.40666,-5.24864,-0.75647,0.34789,0.42636,-0.35347,3.51683,-9.09632,-7.27090
-1.03585,1.64064,-0.17603,-0.78335,-1.28147,0.12436,1.12596,-0.73764,3.84989,6.66909,1.51831,-5.06123,-0.77046,0.33022,0.41387,-0.35504,0.25796,-8.22044,-8.81234
-1.04123,1.62440,-0.17835,-0.70507,-1.25875,0.06701,1.08332,-0.85037,3.72296,6.58453,2.33325,-4.48665,-0.78374,0.31345,0.40110,-0.35584,-2.45897,-10.18451,-10.94207
-1.04379,1.60991,-0.18242,-0.60269,-1.21614,-0.00366,1.16080,-0.91806,3.49825,6.36627,3.06231,-4.32645,-0.79607,0.29781,0.39186,-0.35217,6.62694,-2.01280,-14.04742
-1.04606,1.59616,-0.18658,-0.51452,-1.16981,-0.06261,1.19104,-0.98625,3.33210,6.33127,3.57155,-4.21834,-0.80807,0.28219,0.38134,-0.34924,4.74286,-2.02030,-12.66280
-1.04712,1.58364,-0.19140,-0.42707,-1.11553,-0.11918,1.22903,-1.03783,3.18747,6.19445,4.30071,-3.95763,-0.81962,0.26661,0.37094,-0.34575,3.29994,-2.44113,-10.33795
-1.04713,1.57281,-0.19677,-0.34217,-1.04845,-0.17238,1.26040,-1.07359,3.01906,6.01109,5.39481,-3.70901,-0.83023,0.25235,0.36121,-0.34141,4.83425,-0.76778,-11.45180
-1.04555,1.56459,-0.20295,-0.24997,-0.95505,-0.22718,1.19099,-1.11159,2.82303,5.66974,6.31200,-3.56256,-0.83914,0.24105,0.35080,-0.33863,-1.34020,-1.25675,-12.79229
-1.04441,1.55678,-0.20895,-0.18288,-0.87527,-0.26831,1.03262,-1.21513,2.71130,5.60283,6.96246,-3.73006,-0.84788,0.23073,0.33660,-0.33848,-7.83360,-5.92002,-11.45638
-1.04161,1.55181,-0.21600,-0.10669,-0.77237,-0.31580,0.79440,-1.41634,2.60944,5.39808,7.82191,-3.30078,-0.85630,0.22368,0.31788,-0.34009,-13.34298,-16.52103,-9.64548
-1.03801,1.54898,-0.22360,-0.03405,-0.65863,-0.36146,0.63937,-1.60257,2.46057,5.17417,8.73285,-3.09691,-0.86450,0.21820,0.29939,-0.33969,-10.11320,-15.60893,-10.93282
-1.03304,1.54977,-0.23215,0.04468,-0.51420,-0.41226,0.61313,-1.75592,2.21752,4.88541,9.65731,-3.01917,-0.87256,0.21498,0.28316,-0.33502,0.23881,-9.78813,-15.37009
-1.02801,1.55216,-0.24076,0.10936,-0.37406,-0.45457,0.67088,-1.86465,1.93505,4.52463,10.66674,-2.96213,-0.88041,0.21308,0.26902,-0.32727,7.33075,-5.93671,-18.19201
-1.02296,1.55599,-0.24939,0.16022,-0.24314,-0.48762,0.69514,-1.99408,1.61861,4.31741,11.47452,-2.72223,-0.88750,0.21470,0.25434,-0.31868,7.88675,-7.36993,-23.50505
-1.01722,1.56255,-0.25828,0.20945,-0.10342,-0.51696,0.73772,-2.11504,1.26587,4.05521,12.08088,-2.14000,-0.89392,0.21959,0.24040,-0.30804,7.39719,-8.64882,-27.87543
-1.00991,1.57503,-0.26742,0.27109,0.09203,-0.54397,0.83095,-2.19230,0.74736,3.86685,12.72728,-1.13163,-0.89870,0.23089,0.23016,-0.29334,10.72711,-3.79676,-30.75257
-1.00244,1.58894,-0.27585,0.32366,0.27165,-0.55617,0.98434,-2.20844,0.26702,3.61296,13.00730,-0.60157,-0.90292,0.24269,0.22254,-0.27625,13.37570,3.09765,-32.64918
-0.99406,1.60716,-0.28377,0.37945,0.47984,-0.55798,1.22758,-2.38256,-0.19958,3.96157,14.13475,0.65967,-0.90854,0.25709,0.21113,-0.25274,31.63118,-16.86522,-22.80096
-0.98485,1.62765,-0.28956,0.43707,0.68209,-0.52880,0.87190,-2.07382,-0.85985,4.12429,14.66440,2.73118,-0.90269,0.28083,0.21178,-0.24787,-10.92387,16.82348,-44.43755
-0.97501,1.65083,-0.29425,0.49179,0.88177,-0.48977,0.70000,-1.89763,-1.41119,3.73689,14.32156,3.09478,-0.89732,0.30499,0.21127,-0.23910,-9.27602,21.15187,-43.16534
-0.96449,1.67702,-0.29762,0.54516,1.08419,-0.43905,0.39893,-1.74776,-2.00253,4.13967,14.75595,3.82149,-0.88818,0.33475,0.21063,-0.23390,-8.56176,14.22822,-41.66016
-0.95290,1.70633,-0.29950,0.60360,1.29133,-0.37727,-0.08645,-1.64719,-2.66538,4.64958,15.16810,4.76746,-0.87364,0.37210,0.20823,-0.23437,-25.86797,11.89391,-50.09297
-0.93824,1.74088,-0.29936,0.69711,1.53707,-0.29774,-0.58520,-1.33103,-3.36477,7.08333,15.68450,5.23518,-0.85301,0.41252,0.21241,-0.23891,-22.87708,22.37413,-49.73777
-0.91409,1.78815,-0.29562,0.93771,1.96295,-0.16833,-1.28873,-0.59109,-4.41586,11.22913,17.62768,4.90282,-0.81972,0.46118,0.22802,-0.25176,-17.80210,31.45757,-42.49302
-0.87485,1.86249,-0.29537,1.13247,2.25447,-0.09580,-1.63244,-0.04514,-5.29064,13.78657,18.95363,3.85440,-0.76449,0.53764,0.24581,-0.25704,-6.58276,34.22398,-56.25387
-0.84599,1.91087,-0.29333,1.32811,2.50685,-0.04548,-2.25882,0.39760,-5.87157,16.18960,17.89619,3.00514,-0.72037,0.58345,0.25625,-0.27385,-24.95201,32.24202,-54.57858
-0.81133,1.96141,-0.29143,1.56717,2.73723,-0.00834,-2.82455,0.85714,-6.77655,24.70459,20.54746,3.04088,-0.66213,0.63652,0.26979,-0.28921,-34.10987,41.81879,-51.09395
-0.76458,2.01778,-0.28977,1.93012,3.00239,0.01698,-3.32938,1.33990,-8.16969,27.44562,16.96341,0.92566,-0.58128,0.69991,0.28806,-0.29878,-27.80682,27.77143,-116.69580
-0.70823,2.07430,-0.28951,2.35699,3.21309,0.01689,-3.45879,1.91865,-9.24201,33.69826,13.82621,-0.26754,-0.49624,0.75114,0.31260,-0.30302,-10.93611,30.28345,-81.84120
-0.64036,2.12937,-0.29140,2.86535,3.36121,-0.01452,-3.16091,2.42454,-10.55286,40.13681,7.50532,-3.59591,-0.39814,0.79830,0.34602,-0.29064,19.89653,2.67317,-97.59413
-0.55459,2.17916,-0.29686,3.54340,3.40227,-0.09494,-2.81858,2.71394,-12.25552,45.91925,-3.42764,-6.37145,-0.27892,0.84269,0.37831,-0.26260,2.48523,-15.31099,-109.46430
-0.46033,2.21766,-0.30377,4.22302,3.25325,-0.19631,-2.38072,2.66146,-13.92250,52.84184,-18.93842,-8.38556,-0.15021,0.87533,0.40454,-0.21812,-9.86646,-23.86634,-115.18790
-0.34671,2.23223,-0.31538,5.05310,2.76385,-0.34971,-1.56630,1.70355,-15.98844,50.91726,-43.59570,-9.97212,-0.01128,0.89604,0.42392,-0.13145,-40.12630,-69.90701,-126.42610
-0.23452,2.22032,-0.32885,5.69635,1.98662,-0.48563,-1.05875,0.37338,-17.20248,40.04778,-67.39231,-8.95716,0.11019,0.89775,0.42488,-0.03716,-70.74561,-76.57352,-93.37375
-0.12768,2.17804,-0.34249,6.11864,0.91467,-0.59151,-0.93642,-1.18343,-17.67249,19.28174,-85.00699,-6.22444,0.21212,0.88587,0.40797,0.06160,-97.46968,-60.00369,-45.38730
-0.03604,2.11021,-0.35395,6.21973,-0.31835,-0.64120,-1.33855,-2.01526,-17.39750,-6.44325,-89.29534,-2.28518,0.29930,0.86569,0.37707,0.13717,-90.26788,-8.10239,0.86390
0.03547,2.02614,-0.36253,5.98808,-1.53088,-0.63452,-1.63726,-1.68386,-16.61021,-28.54292,-82.51585,1.14429,0.37929,0.83836,0.34933,0.17681,-7.70756,34.63268,44.49165
0.08401,1.93618,-0.36927,5.46309,-2.57480,-0.60035,-1.49005,-0.81353,-15.26972,-45.80925,-65.42908,2.65753,0.44421,0.81007,0.33275,0.18907,51.22440,38.36353,77.46512
0.12033,1.85418,-0.37597,4.86826,-3.26550,-0.57345,-1.04505,-0.09604,-13.76998,-52.63587,-49.68002,1.29336,0.49571,0.78188,0.32519,0.19283,71.38589,16.06944,117.38930
0.13808,1.77023,-0.38371,4.13127,-3.83139,-0.56940,-0.16762,1.08327,-12.15766,-53.61879,-32.52098,-1.24471,0.54278,0.75384,0.32959,0.16877,98.19394,7.33229,116.63800
0.14626,1.69283,-0.39215,3.40602,-4.18680,-0.57670,1.87860,2.74696,-11.14911,-52.53825,-18.29100,-1.80839,0.60604,0.70072,0.35909,0.11294,170.25550,-21.74103,59.69997
0.15211,1.62400,-0.40118,2.80095,-4.33736,-0.59066,3.64341,3.72822,-10.37448,-48.26575,-8.22225,0.76768,0.66241,0.63724,0.38915,0.06085,214.36040,-51.75867,11.23389
0.13998,1.56288,-0.41053,2.06097,-4.34379,-0.60691,3.09485,3.28473,-9.10765,-41.12825,2.78058,1.68035,0.68527,0.61482,0.38592,0.05891,10.59013,-41.16666,64.88515
0.13487,1.51168,-0.41878,1.56759,-4.20654,-0.60381,0.11333,2.32102,-7.25240,-27.94283,13.02558,2.04070,0.67861,0.64727,0.33110,0.10447,-170.53430,12.41280,132.52760
0.13516,1.46891,-0.42436,1.25226,-3.97277,-0.56085,-3.01112,1.79018,-3.73296,-23.85528,10.23450,6.35091,0.61965,0.72839,0.26021,0.13332,-177.97280,88.19423,321.44610
0.13225,1.42299,-0.42411,0.95393,-3.83444,-0.44114,-5.26009,1.04935,-2.27300,-20.75456,10.91319,8.76340,0.58248,0.76764,0.19171,0.18626,-206.72410,16.78417,116.89250
0.12849,1.37622,-0.41954,0.70561,-3.73912,-0.28326,-5.51466,0.54978,-1.60981,-16.40450,6.82511,10.47995,0.56472,0.78040,0.16061,0.21510,-55.83369,11.57422,83.05211
0.12495,1.32828,-0.41179,0.51006,-3.67652,-0.11164,-3.98192,-0.10996,-1.97441,-13.92879,6.07921,10.53515,0.57922,0.76177,0.17784,0.22931,68.26834,-65.89940,1.19213
0.11958,1.28201,-0.40223,0.32740,-3.60374,0.05093,-1.28519,-0.56285,-2.53317,-13.38015,5.94821,10.89674,0.61121,0.72556,0.23161,0.21529,175.38150,-70.03713,-28.22708
0.11170,1.23765,-0.39162,0.14578,-3.51958,0.19559,0.67938,-1.13163,-2.86925,-12.34302,4.94917,11.50228,0.63553,0.68756,0.28418,0.20641,167.71670,-68.54243,-19.88762
0.10156,1.19509,-0.38085,-0.03217,-3.42299,0.31244,0.81148,-1.83980,-2.83475,-12.68576,6.38960,8.62985,0.64081,0.66567,0.30637,0.22888,33.41728,-60.51868,-3.41327
0.08843,1.15558,-0.37143,-0.21786,-3.30329,0.38543,-0.36052,-2.28116,-2.47618,-13.95618,8.80089,4.38392,0.63096,0.66370,0.29639,0.27120,-72.68600,-25.82533,9.85333
0.07196,1.11933,-0.36457,-0.41434,-3.16235,0.40642,-1.90184,-2.31088,-2.02908,-14.62484,10.79978,-0.98048,0.61420,0.67225,0.26569,0.31662,-120.42030,8.68219,13.80319
0.05322,1.08501,-0.36142,-0.60303,-3.01907,0.36837,-2.81421,-1.84829,-1.74289,-13.03451,10.73308,-5.57821,0.60473,0.67949,0.23218,0.34451,-80.95148,36.98692,5.82560
0.03401,1.05211,-0.36201,-0.76006,-2.88560,0.28392,-2.80127,-1.09575,-1.70496,-10.74456,10.25491,-8.12303,0.60972,0.68036,0.20737,0.34978,-14.03536,53.99680,-2.03718
0.01395,1.02126,-0.36478,-0.89813,-2.75067,0.18551,-1.86729,-0.27162,-1.76602,-9.32659,10.35724,-7.35221,0.62843,0.67467,0.19977,0.33165,61.87547,48.28988,-12.59891
-0.00575,0.99161,-0.36703,-1.00074,-2.62492,0.11618,-0.93830,0.24243,-1.81209,-7.51893,11.43941,-4.68517,0.64760,0.66595,0.19940,0.31202,85.37689,42.90389,-9.33759
-0.02777,0.96888,-0.36862,-1.11622,-2.42637,0.07118,-0.01668,0.56674,-1.70357,-6.33522,12.67536,-0.14434,0.66424,0.65781,0.20668,0.28873,72.83673,14.39633,2.74411
-0.04799,0.94641,-0.36761,-1.18348,-2.26539,0.07186,-0.20242,0.66732,-1.54503,-4.57750,12.85994,2.36186,0.66820,0.65706,0.19585,0.28883,18.14067,9.21400,9.61408
-0.06825,0.92830,-0.36527,-1.23581,-2.07460,0.09060,-1.35746,0.78847,-1.25911,-2.69334,13.36189,1.93705,0.65768,0.66770,0.16119,0.30928,-68.44807,15.59467,21.53673
-0.08728,0.91408,-0.36271,-1.26108,-1.86496,0.10813,-2.46074,0.99807,-0.92902,-0.63152,13.32366,-0.28334,0.64211,0.68135,0.12028,0.33013,-79.05496,23.21128,24.34061
-0.10488,0.90158,-0.36091,-1.26200,-1.66779,0.11153,-2.43031,1.11773,-0.72970,0.11272,12.84317,-1.31221,0.63782,0.68710,0.10158,0.33281,-11.75709,12.68760,13.51496
-0.12245,0.88812,-0.35919,-1.26038,-1.52361,0.11365,-1.56204,1.03287,-0.70048,0.16611,12.43407,-0.33296,0.64555,0.68425,0.10559,0.32237,50.58374,-2.77523,2.34903
-0.13994,0.87822,-0.35653,-1.25719,-1.35967,0.12843,-0.61070,0.81608,-0.72422,0.48925,11.23622,2.54291,0.65673,0.67734,0.11936,0.30930,81.76517,-19.75726,-5.09275
-0.15665,0.87053,-0.35264,-1.24402,-1.19768,0.15788,-0.56233,0.59250,-0.70619,1.55735,11.18236,3.43615,0.65878,0.67404,0.11790,0.31271,21.75512,-17.40719,-1.63577
-0.17243,0.86345,-0.34854,-1.22122,-1.06047,0.18459,-1.06629,0.45930,-0.61293,2.57839,11.15041,2.38920,0.65277,0.67550,0.10309,0.32705,-30.23558,-11.42535,8.20459
-0.18208,0.86743,-0.34552,-1.10650,-0.77408,0.18790,-1.96347,0.51012,-0.23991,5.95111,11.14011,-2.18693,0.63485,0.68593,0.07649,0.34728,-31.88795,6.89857,15.89274
-0.20914,0.85243,-0.34141,-1.05777,-0.68842,0.17324,-1.90270,0.56123,-0.11438,6.29348,10.88089,-2.65201,0.62576,0.69165,0.05393,0.35656,-9.25842,9.00276,15.29128
-0.20898,0.86700,-0.34424,-0.84197,-0.33778,0.09673,-0.73624,0.52556,0.31006,5.40277,8.85105,-1.76112,0.62572,0.69963,0.07443,0.33684,37.69638,-2.01903,9.49346
-0.22673,0.86687,-0.34310,-0.76167,-0.20655,0.07513,-0.47270,0.48343,0.41349,4.92136,7.44590,-0.16931,0.62044,0.70657,0.07301,0.33238,25.21167,-1.45078,6.41205
