posX, posY, posZ, velX, velY, velZ, angVelX, angVelY, angVelZ, accX, accY, accZ, rotX, rotY, rotZ, rotW, angAccX, angAccY, angAccZ
-0.32789,1.20419,-0.37464,-0.16261,0.29193,-0.01057,0.71661,0.22313,0.75158,-0.19501,0.33788,-0.73474,-0.29816,-0.92389,-0.11482,-0.21060,-3.96401,-4.18751,8.37787
-0.33036,1.20843,-0.37557,-0.16578,0.29514,-0.02189,0.69976,0.24286,0.85034,-0.32825,0.10787,-1.02597,-0.29132,-0.92636,-0.12004,-0.20634,-2.74370,-1.06241,8.53015
-0.33284,1.21249,-0.37660,-0.16840,0.29583,-0.03244,0.74068,0.29468,0.88987,-0.23509,0.02283,-0.94995,-0.28624,-0.92841,-0.12627,-0.20044,1.47946,3.33143,4.33305
-0.33523,1.21645,-0.37794,-0.16900,0.29498,-0.04527,0.80815,0.35387,0.91789,0.16367,-0.18214,-0.71190,-0.28154,-0.93031,-0.13343,-0.19353,4.55930,4.53941,2.36274
-0.33719,1.22034,-0.37929,-0.16314,0.29244,-0.05582,0.83883,0.38164,0.87925,0.51478,-0.21509,-0.75996,-0.27850,-0.93150,-0.13963,-0.18773,2.25621,2.32180,-1.32543
-0.33892,1.22433,-0.38075,-0.15533,0.29183,-0.06566,0.87566,0.41742,0.80724,0.64512,0.12896,-0.93724,-0.27695,-0.93225,-0.14578,-0.18155,2.31714,2.31306,-4.84968
-0.34039,1.22870,-0.38272,-0.14567,0.29718,-0.08102,0.88903,0.46400,0.74710,0.58223,0.50691,-0.86997,-0.27551,-0.93307,-0.15123,-0.17493,1.39018,4.13654,-4.47769
-0.34206,1.23326,-0.38461,-0.14061,0.30365,-0.09188,0.84545,0.45045,0.74432,0.44749,0.64421,-0.80396,-0.27198,-0.93422,-0.15577,-0.17029,-2.27784,0.35153,-1.39368
-0.34364,1.23812,-0.38670,-0.13529,0.31355,-0.10363,0.77343,0.41614,0.76843,0.44506,0.76901,-0.81710,-0.26723,-0.93562,-0.15944,-0.16670,-4.92340,-2.84130,1.29280
-0.34507,1.24317,-0.38891,-0.12891,0.32372,-0.11449,0.70765,0.38249,0.78377,0.46099,0.73540,-0.80610,-0.26247,-0.93696,-0.16288,-0.16339,-5.05132,-3.10336,1.68211
-0.34630,1.24828,-0.39129,-0.12082,0.33295,-0.12583,0.67651,0.36514,0.79883,0.55201,0.38814,-0.71455,-0.25781,-0.93820,-0.16693,-0.15952,-1.79452,-1.14603,0.69236
-0.34742,1.25318,-0.39375,-0.11304,0.33772,-0.13602,0.69040,0.38984,0.78737,0.42321,0.46086,-0.93742,-0.25433,-0.93919,-0.17167,-0.15419,-0.74528,0.20848,-0.52513
-0.34874,1.25820,-0.39633,-0.10976,0.34281,-0.14565,0.74452,0.46501,0.80022,0.16017,0.35993,-0.79801,-0.25068,-0.94034,-0.17744,-0.14644,3.57760,5.55944,-0.16800
-0.35016,1.26305,-0.39920,-0.10835,0.34456,-0.15762,0.77597,0.52969,0.84329,0.16141,-0.09453,-0.66173,-0.24589,-0.94175,-0.18299,-0.13842,2.15430,4.62337,2.88914
-0.35138,1.26753,-0.40207,-0.10430,0.34097,-0.16726,0.78056,0.56715,0.85351,0.39961,-0.44676,-0.64858,-0.24165,-0.94292,-0.18783,-0.13124,0.08297,2.30223,1.63472
-0.35240,1.27183,-0.40483,-0.09835,0.33534,-0.17309,0.77717,0.59203,0.82533,0.72042,-0.74168,-0.46276,-0.23855,-0.94373,-0.19229,-0.12444,0.51295,3.26697,-1.19002
-0.35264,1.27543,-0.40778,-0.08254,0.32114,-0.18053,0.70093,0.53914,0.76262,1.26548,-1.02358,-0.28483,-0.23600,-0.94432,-0.19477,-0.12097,-3.78880,-2.29001,-3.59259
-0.35254,1.27905,-0.41074,-0.06504,0.30985,-0.18662,0.60744,0.45555,0.67547,1.13205,-0.58813,-0.51893,-0.23427,-0.94462,-0.19634,-0.11945,-7.05722,-6.65996,-6.44208
-0.35259,1.28281,-0.41383,-0.05317,0.30242,-0.19323,0.54529,0.41727,0.62052,0.62731,-0.48906,-0.50975,-0.23226,-0.94507,-0.19817,-0.11673,-5.03042,-3.36683,-4.52500
-0.35285,1.28650,-0.41701,-0.04668,0.29576,-0.19997,0.47638,0.37825,0.58960,0.40123,-0.36877,-0.47068,-0.22966,-0.94572,-0.19949,-0.11437,-4.27220,-2.80669,-2.58011
-0.35314,1.29024,-0.42046,-0.04231,0.29182,-0.20910,0.38228,0.33781,0.60046,0.17739,-0.13544,-0.61228,-0.22569,-0.94685,-0.19978,-0.11235,-5.77330,-2.95035,0.11005
-0.35361,1.29406,-0.42395,-0.04118,0.28920,-0.21688,0.31743,0.29942,0.64323,0.07216,-0.17998,-0.52057,-0.22055,-0.94814,-0.20062,-0.11019,-5.32106,-3.75053,2.99737
-0.35400,1.29794,-0.42730,-0.03852,0.28744,-0.22158,0.30373,0.28581,0.66647,0.31881,-0.11491,-0.42532,-0.21603,-0.94912,-0.20250,-0.10725,-2.49407,-2.24866,2.71885
-0.35396,1.30169,-0.43075,-0.03030,0.28430,-0.22681,0.32191,0.28321,0.64964,0.58381,-0.25984,-0.35538,-0.21283,-0.94963,-0.20514,-0.10404,1.19725,-0.59082,-0.25551
-0.35380,1.30553,-0.43432,-0.02194,0.28282,-0.23270,0.31753,0.29652,0.60193,0.51113,0.03037,-0.43667,-0.21083,-0.95006,-0.20689,-0.10068,0.14844,1.40575,-3.70664
-0.35385,1.30958,-0.43809,-0.01854,0.28527,-0.24003,0.28221,0.30461,0.60508,0.08653,0.38947,-0.49792,-0.20734,-0.95098,-0.20778,-0.09734,-1.77005,0.96815,-0.92391
-0.35433,1.31400,-0.44201,-0.02225,0.29295,-0.24821,0.22196,0.27369,0.68416,-0.39274,0.70523,-0.52158,-0.20099,-0.95249,-0.20821,-0.09495,-3.50351,-2.17846,4.49838
-0.35497,1.31866,-0.44582,-0.02712,0.30161,-0.25307,0.21585,0.27552,0.74009,-0.57360,1.09363,-0.57323,-0.19513,-0.95372,-0.20972,-0.09143,-3.32173,-2.13090,5.25224
-0.35591,1.32399,-0.44972,-0.03487,0.31794,-0.25829,0.23793,0.32167,0.80791,-0.61034,1.37231,-0.34148,-0.18883,-0.95502,-0.21186,-0.08602,0.95088,2.69018,5.60803
-0.35711,1.33012,-0.45349,-0.04491,0.34306,-0.26078,0.29267,0.36901,0.89169,-0.60122,1.76667,0.05061,-0.18184,-0.95616,-0.21523,-0.07974,3.18277,3.72504,4.62189
-0.35837,1.33659,-0.45700,-0.05403,0.36762,-0.25891,0.33957,0.35993,1.00501,-0.59255,1.86920,0.22326,-0.17291,-0.95734,-0.21914,-0.07470,2.85889,-0.38491,7.78751
-0.35964,1.34356,-0.46027,-0.06135,0.39445,-0.25420,0.41560,0.36415,1.10902,-0.47900,2.08204,0.36761,-0.16372,-0.95820,-0.22428,-0.06893,5.59179,0.18731,7.44025
-0.36091,1.35104,-0.46336,-0.06737,0.42337,-0.24809,0.52405,0.36901,1.22407,-0.33408,2.10378,0.45252,-0.15360,-0.95871,-0.23102,-0.06255,7.51539,1.09164,7.83547
-0.36205,1.35939,-0.46632,-0.07010,0.45907,-0.24075,0.65704,0.40448,1.33501,-0.07423,2.44252,0.46711,-0.14315,-0.95884,-0.23903,-0.05472,7.91016,2.03415,7.03752
-0.36306,1.36818,-0.46908,-0.07038,0.49453,-0.23217,0.78822,0.48394,1.42282,-0.03586,2.63275,0.73874,-0.13321,-0.95864,-0.24744,-0.04513,9.14273,5.97869,5.89979
-0.36416,1.37745,-0.47146,-0.07198,0.52989,-0.21975,0.90423,0.56127,1.53362,-0.16651,2.45560,1.08029,-0.12205,-0.95826,-0.25620,-0.03468,8.93813,6.41083,7.64302
-0.36550,1.38720,-0.47346,-0.07685,0.56442,-0.20413,0.98831,0.64262,1.65736,-0.49567,2.48398,1.25447,-0.10978,-0.95781,-0.26458,-0.02331,5.93814,6.05114,8.15884
-0.36719,1.39727,-0.47501,-0.08579,0.59697,-0.18515,1.04406,0.65357,1.82636,-0.56760,2.28430,1.62313,-0.09474,-0.95729,-0.27286,-0.01314,3.89393,2.45329,11.52496
-0.36877,1.40718,-0.47641,-0.09116,0.61998,-0.16847,1.09554,0.61863,1.93361,-0.45744,2.36777,1.80625,-0.08008,-0.95621,-0.28148,-0.00464,5.19277,-2.60830,11.92523
-0.37032,1.41865,-0.47663,-0.09435,0.65931,-0.13871,1.22673,0.53977,2.06087,0.03548,2.38746,1.86291,-0.06348,-0.95390,-0.29333,0.00299,9.25874,-3.84232,7.94619
-0.37148,1.43016,-0.47678,-0.09101,0.69157,-0.11397,1.34893,0.49595,2.08634,0.33669,2.22560,1.60615,-0.04967,-0.95088,-0.30538,0.01053,8.98257,-4.26486,2.85382
-0.37237,1.44148,-0.47715,-0.08499,0.71483,-0.09764,1.44695,0.52247,2.05434,0.68013,2.29075,1.51810,-0.03825,-0.94740,-0.31715,0.01965,9.74818,1.61860,-0.79585
-0.37245,1.45453,-0.47659,-0.06852,0.75668,-0.07168,1.59621,0.61181,1.90665,0.90964,2.20147,1.30151,-0.03163,-0.94260,-0.33105,0.03013,7.10426,6.83157,-7.71131
-0.37275,1.46708,-0.47631,-0.05736,0.78436,-0.05478,1.71453,0.73526,1.78469,0.70441,1.84144,1.03231,-0.02553,-0.93748,-0.34454,0.04206,7.58023,9.42928,-8.24647
-0.37301,1.47999,-0.47595,-0.04778,0.81262,-0.04001,1.78520,0.86930,1.66251,0.47619,1.65611,0.86557,-0.02060,-0.93225,-0.35705,0.05477,2.96172,11.14143,-7.06603
-0.37369,1.49258,-0.47592,-0.04700,0.82982,-0.03212,1.78603,0.88692,1.63257,-0.10210,1.25622,0.68393,-0.01247,-0.92750,-0.36789,0.06510,1.34749,5.29395,-4.08810
-0.37509,1.50517,-0.47587,-0.05596,0.84337,-0.02623,1.75823,0.82175,1.67996,-0.91247,0.76130,0.33242,-0.00112,-0.92300,-0.37772,0.07348,-1.04962,-4.44064,1.38438
-0.37716,1.51738,-0.47596,-0.07269,0.84932,-0.02353,1.70885,0.75270,1.77995,-1.26844,0.07644,0.05864,0.01244,-0.91859,-0.38641,0.08198,-1.83036,-5.85085,6.06902
-0.37991,1.52921,-0.47646,-0.09658,0.84754,-0.02723,1.58620,0.60387,1.92748,-1.20795,-0.41036,-0.38148,0.02907,-0.91508,-0.39239,0.08837,-4.78751,-8.99645,7.80816
-0.38216,1.54069,-0.47715,-0.10881,0.84231,-0.03252,1.49953,0.49337,2.00345,-1.13741,-0.73258,-0.60456,0.04429,-0.91119,-0.39854,0.09451,-6.21182,-12.43225,7.36953
-0.38469,1.55160,-0.47823,-0.12254,0.83033,-0.04184,1.36640,0.36021,2.08511,-0.83274,-1.06762,-0.72091,0.06074,-0.90805,-0.40234,0.09939,-7.75599,-11.98812,5.73299
-0.38704,1.56184,-0.47944,-0.13137,0.81132,-0.05180,1.24194,0.22881,2.12808,-0.34739,-1.39703,-0.65368,0.07666,-0.90502,-0.40547,0.10326,-6.80904,-10.31721,2.73411
-0.38900,1.57177,-0.48071,-0.13273,0.79081,-0.06067,1.14988,0.13447,2.12080,0.10518,-1.59587,-0.71642,0.09114,-0.90167,-0.40894,0.10705,-5.10811,-8.30798,0.14349
-0.39047,1.58130,-0.48231,-0.12685,0.76888,-0.07255,1.02048,0.05474,2.02788,0.53049,-1.31070,-0.80718,0.10277,-0.89920,-0.41091,0.10971,-7.03839,-5.34232,-5.44197
-0.39163,1.59101,-0.48392,-0.11779,0.75434,-0.08196,0.90750,0.03461,1.88570,0.58638,-0.83576,-0.65382,0.11171,-0.89687,-0.41283,0.11282,-7.94259,-4.24186,-9.46001
-0.39286,1.60112,-0.48533,-0.11195,0.74821,-0.08609,0.84089,0.09280,1.75815,0.32602,-0.45390,-0.46814,0.11915,-0.89397,-0.41558,0.11799,-7.88150,1.28798,-11.48113
-0.39426,1.61105,-0.48688,-0.10977,0.74115,-0.09151,0.70377,0.28354,1.60326,-0.21568,-0.55799,-0.40576,0.12247,-0.89193,-0.41627,0.12718,-9.17232,11.34614,-9.72463
-0.39627,1.62073,-0.48851,-0.11679,0.73220,-0.09725,0.52392,0.39626,1.53100,-0.64687,-0.65681,-0.26449,0.12768,-0.89071,-0.41451,0.13610,-13.09585,10.24773,-5.53474
-0.39894,1.63025,-0.49021,-0.13180,0.72222,-0.10271,0.34848,0.26756,1.51051,-1.10154,-0.71751,-0.08471,0.13700,-0.89055,-0.41093,0.13893,-12.56111,-4.95644,-1.58012
-0.40226,1.63951,-0.49174,-0.15340,0.71067,-0.10430,0.23252,-0.02975,1.51969,-1.73295,-0.75973,0.20177,0.14988,-0.89066,-0.40716,0.13590,-8.03326,-20.72998,-0.58312
-0.40622,1.64858,-0.49277,-0.17997,0.69922,-0.09850,0.18335,-0.31086,1.56686,-2.07948,-0.66558,0.60237,0.16477,-0.88999,-0.40422,0.13183,-2.06244,-22.01043,2.03157
-0.41039,1.65782,-0.49341,-0.20372,0.69184,-0.08833,0.17869,-0.47552,1.60488,-2.04762,-0.52144,0.94153,0.17905,-0.88838,-0.40245,0.12943,0.49788,-16.33337,3.61911
-0.41547,1.66692,-0.49319,-0.23652,0.68467,-0.06686,0.19758,-0.61439,1.64663,-1.79406,-0.20109,1.38142,0.19385,-0.88623,-0.40114,0.12687,1.44354,-8.25542,2.73265
-0.42027,1.67635,-0.49257,-0.25973,0.68409,-0.04328,0.26549,-0.63666,1.65711,-1.70844,0.13739,1.89037,0.20678,-0.88302,-0.40189,0.12650,4.16675,-2.79004,1.21177
-0.42493,1.68602,-0.49176,-0.27523,0.68633,-0.02247,0.33733,-0.60242,1.65854,-1.61146,0.37276,2.17174,0.21889,-0.87921,-0.40351,0.12751,5.89414,1.59412,0.67231
-0.43067,1.69623,-0.48888,-0.30296,0.69584,0.02390,0.52288,-0.37709,1.62357,-1.93170,0.68167,2.76456,0.22769,-0.87294,-0.41036,0.13316,8.87781,11.30623,-1.27187
-0.43646,1.70644,-0.48597,-0.32616,0.70391,0.06164,0.64070,-0.06741,1.62761,-2.25343,0.72458,3.27513,0.23541,-0.86617,-0.41688,0.14333,7.14131,22.89190,-0.01074
-0.44317,1.71686,-0.48171,-0.35747,0.71235,0.11054,0.78773,0.32671,1.65282,-2.34944,0.53970,3.66124,0.24184,-0.85740,-0.42591,0.15806,6.53942,30.01470,3.02774
-0.45062,1.72712,-0.47666,-0.39248,0.71710,0.16015,0.94760,0.61479,1.70806,-2.52274,0.20612,3.60024,0.24974,-0.84743,-0.43577,0.17201,8.52295,24.35127,4.38981
-0.45877,1.73713,-0.47114,-0.43004,0.71657,0.20624,1.09106,0.78164,1.79914,-2.63388,-0.33162,3.17874,0.25999,-0.83670,-0.44531,0.18448,9.54360,15.26890,6.69415
-0.46746,1.74661,-0.46547,-0.46817,0.70902,0.24571,1.15466,0.81511,1.92066,-2.61952,-0.70333,2.72156,0.27279,-0.82655,-0.45212,0.19491,5.96716,5.71167,8.12098
-0.47696,1.75578,-0.45913,-0.51034,0.69854,0.28667,1.22078,0.69509,2.05161,-2.42853,-0.70772,2.65899,0.28868,-0.81646,-0.45775,0.20131,4.80136,-6.58645,8.23923
-0.48611,1.76494,-0.45288,-0.53877,0.68967,0.31792,1.29294,0.57982,2.12748,-2.26811,-0.78285,2.58787,0.30414,-0.80610,-0.46377,0.20644,8.21593,-9.76688,5.11329
-0.49542,1.77391,-0.44614,-0.56334,0.68042,0.34959,1.35838,0.51794,2.18206,-1.92132,-0.85776,2.53244,0.31897,-0.79515,-0.47010,0.21213,7.75583,-6.76867,4.06043
-0.50502,1.78242,-0.43843,-0.58643,0.66902,0.38663,1.38940,0.52628,2.20926,-1.52118,-0.75727,2.55046,0.33217,-0.78403,-0.47626,0.21940,3.18111,-0.47370,2.33688
-0.51477,1.79085,-0.42995,-0.60753,0.65910,0.42766,1.40795,0.52978,2.21291,-1.11118,-0.59492,2.49305,0.34471,-0.77299,-0.48212,0.22633,0.92928,0.69903,1.28823
-0.52434,1.79941,-0.42159,-0.62257,0.65085,0.46071,1.38337,0.52870,2.19733,-1.07033,-0.59421,2.25734,0.35645,-0.76257,-0.48687,0.23319,-0.47719,0.61966,-1.24017
-0.53418,1.80779,-0.41268,-0.63905,0.64161,0.49597,1.32903,0.50828,2.17331,-0.89180,-0.67908,2.17307,0.36784,-0.75283,-0.49040,0.23968,-3.31443,-0.78747,-0.96321
-0.54393,1.81596,-0.40374,-0.65128,0.63125,0.52534,1.29477,0.45976,2.11034,-0.78769,-0.84279,2.08086,0.37855,-0.74355,-0.49406,0.24442,-2.31709,-3.55375,-3.80677
-0.55392,1.82386,-0.39422,-0.66482,0.61797,0.55805,1.26689,0.39793,1.98570,-0.93443,-0.84671,2.12346,0.38771,-0.73517,-0.49798,0.24742,-1.55600,-3.22719,-7.18045
-0.56423,1.83157,-0.38450,-0.68122,0.60476,0.58809,1.26564,0.35467,1.86556,-1.52722,-1.07439,2.19876,0.39633,-0.72656,-0.50256,0.24994,-0.15520,-2.27956,-9.49710
-0.57511,1.83889,-0.37466,-0.70264,0.58894,0.61330,1.28012,0.27927,1.80911,-2.09075,-1.52617,2.16130,0.40656,-0.71742,-0.50661,0.25173,1.08762,-3.38944,-6.96214
-0.58728,1.84505,-0.36398,-0.73974,0.55761,0.64737,1.33146,0.14285,1.80472,-2.69051,-2.24335,2.36395,0.41932,-0.70750,-0.51018,0.25167,3.41751,-8.09243,-2.21627
-0.59988,1.85047,-0.35310,-0.77730,0.52110,0.67960,1.44983,0.03461,1.82266,-2.82468,-2.97283,2.46099,0.43306,-0.69572,-0.51523,0.25094,8.59499,-7.10834,0.57006
-0.61268,1.85513,-0.34198,-0.80937,0.48170,0.70771,1.56877,0.01582,1.83132,-2.86724,-3.65163,2.29230,0.44563,-0.68279,-0.52162,0.25125,10.68618,-3.65151,-0.02939
-0.62670,1.85767,-0.32997,-0.85143,0.41838,0.74165,1.64324,0.11825,1.89216,-2.69087,-4.44570,1.78657,0.45726,-0.66812,-0.52847,0.25545,5.17824,5.61468,3.91182
-0.64077,1.85922,-0.31848,-0.88654,0.35258,0.76189,1.63388,0.24484,1.99991,-2.59852,-5.15531,1.00587,0.46867,-0.65322,-0.53358,0.26258,-1.02521,8.84436,7.38225
-0.65500,1.85982,-0.30762,-0.91637,0.28748,0.76810,1.57481,0.28374,2.16149,-2.53585,-5.84714,0.13001,0.48222,-0.63829,-0.53573,0.27026,-3.74218,4.18440,11.63581
-0.67009,1.85802,-0.29721,-0.95017,0.20243,0.76400,1.53672,0.20950,2.41230,-2.29257,-6.26713,-0.47069,0.50029,-0.62169,-0.53502,0.27744,-3.30083,-5.35148,17.06113
-0.68533,1.85486,-0.28734,-0.97997,0.11489,0.75335,1.58801,0.06240,2.63726,-1.80491,-6.25463,-0.78147,0.52080,-0.60347,-0.53413,0.28161,3.79828,-11.29615,16.65266
-0.70042,1.85061,-0.27772,-1.00168,0.02938,0.74163,1.64064,-0.03358,2.78594,-1.30097,-6.16206,-0.96115,0.53998,-0.58494,-0.53374,0.28529,7.57304,-9.27321,10.48248
-0.71560,1.84600,-0.26827,-1.01680,-0.05148,0.72983,1.59312,-0.02955,2.92388,-0.81267,-5.96203,-1.13457,0.55700,-0.56655,-0.53221,0.29247,0.04964,-2.31107,9.30490
-0.73069,1.83980,-0.25926,-1.02748,-0.14075,0.71383,1.43715,-0.02364,3.05981,-0.28655,-5.69995,-1.09556,0.57298,-0.54956,-0.52765,0.30210,-10.35849,-2.30800,9.51909
-0.74519,1.83276,-0.25051,-1.02958,-0.21950,0.69680,1.38000,-0.04680,3.12117,0.24253,-5.72569,-1.19572,0.58867,-0.53213,-0.52421,0.30905,-6.08087,-2.93367,5.59748
-0.75921,1.82409,-0.24181,-1.02374,-0.30072,0.67787,1.41752,-0.05429,3.14222,0.64542,-5.79580,-1.53608,0.60410,-0.51317,-0.52258,0.31405,2.18935,-1.44762,1.43443
-0.77257,1.81371,-0.23391,-1.00992,-0.39150,0.65080,1.42261,-0.04493,3.17439,1.17791,-5.56357,-2.08960,0.61887,-0.49391,-0.52033,0.31985,0.63942,1.31235,2.46033
-0.78554,1.80397,-0.22649,-0.99384,-0.45556,0.62514,1.39250,-0.05740,3.20168,1.52488,-5.21624,-2.34915,0.63329,-0.47519,-0.51674,0.32575,-1.62310,-1.03128,1.79364
-0.79785,1.79290,-0.22003,-0.97067,-0.52544,0.59133,1.36987,-0.10373,3.24590,1.81703,-4.84427,-2.49234,0.64839,-0.45598,-0.51184,0.33119,-1.66705,-3.50654,2.51496
-0.80947,1.78118,-0.21428,-0.94243,-0.59076,0.55452,1.38172,-0.15846,3.27075,2.34037,-4.51875,-2.73641,0.66349,-0.43637,-0.50686,0.33535,1.04093,-4.27751,2.45633
-0.82030,1.76890,-0.20923,-0.90880,-0.65122,0.51505,1.40715,-0.20128,3.27029,2.51008,-4.19392,-2.90987,0.67796,-0.41667,-0.50207,0.33864,2.41489,-2.59977,-0.58439
-0.83058,1.75601,-0.20471,-0.87310,-0.70751,0.47557,1.39459,-0.21807,3.27330,2.52062,-3.94153,-2.87649,0.69151,-0.39696,-0.49675,0.34275,0.89781,-2.04579,-0.44628
-0.84067,1.74308,-0.20034,-0.84307,-0.75231,0.44269,1.31081,-0.22296,3.30293,2.43911,-3.67983,-2.87331,0.70406,-0.37767,-0.48983,0.34890,-4.50567,-1.16834,1.42996
-0.84966,1.72888,-0.19732,-0.80330,-0.80708,0.39697,1.18173,-0.27875,3.32913,2.65843,-3.29141,-2.92464,0.71639,-0.35980,-0.48050,0.35559,-8.11945,-5.16333,1.75964
-0.85868,1.71497,-0.19434,-0.77134,-0.84551,0.35959,1.19390,-0.32820,3.30097,2.87478,-3.05690,-3.06181,0.72902,-0.34083,-0.47305,0.35860,-2.31579,-4.88454,-1.07615
-0.86366,1.69805,-0.19590,-0.67749,-0.92775,0.25264,1.57666,-0.34274,3.14570,3.29692,-2.29927,-4.11485,0.74311,-0.31847,-0.47189,0.35169,14.76701,4.97195,-5.40156
-0.87933,1.67045,-0.19263,-0.63028,-0.95370,0.19713,1.48181,-0.39447,3.17649,3.38014,-1.66433,-4.58067,0.76626,-0.27825,-0.45674,0.35611,-0.07861,-0.94558,-0.60649
-0.88473,1.65621,-0.19398,-0.58047,-0.96762,0.13671,1.21676,-0.57763,3.25737,3.75085,-0.44602,-4.53445,0.77794,-0.26198,-0.44090,0.36302,-15.92091,-15.75005,4.37023
-0.88882,1.64304,-0.19698,-0.52118,-0.96316,0.06330,1.07751,-0.78708,3.20129,3.92515,1.22807,-4.38355,0.78969,-0.24817,-0.42552,0.36571,-9.60764,-16.77821,-2.29967
-0.89313,1.63085,-0.19992,-0.47684,-0.94429,0.00627,1.17844,-0.86525,3.04698,3.78551,2.20291,-4.61821,0.80111,-0.23259,-0.41581,0.36225,5.52728,-6.64991,-10.86971
-0.89637,1.62020,-0.20440,-0.42700,-0.90733,-0.06092,1.37973,-0.94120,2.80125,3.47456,3.20624,-4.84695,0.81274,-0.21853,-0.40841,0.35343,16.01457,-0.04722,-16.02719
-0.89920,1.61106,-0.20959,-0.38148,-0.85630,-0.12454,1.47442,-1.07230,2.54376,3.22623,4.06348,-4.65725,0.82388,-0.20799,-0.39909,0.34452,13.59892,-4.01055,-18.04333
-0.90141,1.60345,-0.21535,-0.33582,-0.79232,-0.18350,1.40760,-1.24745,2.29976,3.38502,5.09091,-4.27499,0.83393,-0.20147,-0.38679,0.33818,1.20153,-10.40008,-18.53912
-0.90279,1.59768,-0.22175,-0.28745,-0.71507,-0.23994,1.23894,-1.42552,2.06359,3.58555,5.95469,-4.18703,0.84264,-0.19830,-0.37286,0.33409,-6.65905,-11.87683,-19.60594
-0.90321,1.59378,-0.22905,-0.23492,-0.62641,-0.29812,1.05557,-1.65723,1.86134,3.92309,6.81998,-4.24283,0.85152,-0.19727,-0.35603,0.33051,-10.68326,-16.11961,-17.89214
-0.89990,1.59788,-0.24028,-0.12791,-0.41554,-0.41284,1.04160,-1.99359,1.32467,3.81639,8.39770,-3.74959,0.86091,-0.20466,-0.33991,0.31846,5.32177,-8.62916,-20.75481
-0.89994,1.59442,-0.25525,-0.07647,-0.29705,-0.46370,1.16451,-2.06823,0.97061,3.72200,8.75131,-3.40284,0.87795,-0.20197,-0.31581,0.29779,11.69461,-3.20054,-24.27879
-0.89727,1.59885,-0.26483,-0.02181,-0.17168,-0.50908,1.30527,-2.13356,0.62415,4.15523,9.41211,-3.06736,0.88593,-0.20669,-0.30576,0.28093,13.85588,-2.09114,-23.77935
-0.89342,1.60570,-0.27452,0.03904,-0.03672,-0.54695,1.42942,-2.20493,0.31375,4.60955,9.98996,-2.40051,0.89352,-0.21250,-0.29539,0.26308,13.58357,-2.42386,-21.94966
-0.88816,1.61509,-0.28393,0.10792,0.10786,-0.57309,1.50661,-2.25958,0.04489,5.17933,10.80901,-1.44974,0.90026,-0.21919,-0.28489,0.24563,9.35599,-2.55958,-18.94592
-0.88227,1.62577,-0.29280,0.17098,0.23965,-0.58564,1.56063,-2.29664,-0.17863,5.31638,11.20775,-0.76149,0.90634,-0.22622,-0.27440,0.22822,7.34786,-0.45589,-18.18675
-0.87412,1.64175,-0.30126,0.25377,0.42146,-0.58940,1.66059,-2.50539,-0.48061,5.67679,12.40401,0.50487,0.91316,-0.23763,-0.25949,0.20575,19.17336,-19.17693,-12.82861
-0.86431,1.66193,-0.30750,0.34650,0.63336,-0.56026,1.33618,-2.25190,-0.92810,5.73050,13.94471,2.78734,0.91090,-0.25608,-0.25626,0.19752,-19.35455,19.33645,-31.37110
-0.85490,1.68234,-0.31284,0.41399,0.80414,-0.52350,1.17794,-2.01375,-1.19629,5.53629,14.73035,3.50944,0.90952,-0.27046,-0.25400,0.18735,-6.73390,24.35694,-24.70150
-0.84328,1.70834,-0.31609,0.49929,1.01925,-0.46463,0.87569,-1.92783,-1.34772,6.35713,15.51449,3.85546,0.90788,-0.28561,-0.24679,0.18243,-13.00887,17.22665,-17.48702
-0.82930,1.74069,-0.31638,0.60302,1.28837,-0.37268,-0.12206,-2.00481,-1.39585,7.09871,18.89673,7.20598,0.90279,-0.30598,-0.22721,0.19931,-45.22015,-16.78603,2.09253
-0.81559,1.77525,-0.31514,0.68076,1.53281,-0.27794,-1.20173,-1.91153,-1.94647,6.83898,21.98667,8.18293,0.88739,-0.34305,-0.21334,0.22211,-87.51854,27.56192,-46.07654
-0.80153,1.81528,-0.31222,0.74600,1.79990,-0.18101,-2.14903,-1.80129,-2.79433,5.08445,23.48943,8.60861,0.86336,-0.39284,-0.20153,0.24427,-74.94267,10.89220,-75.91847
-0.78544,1.86751,-0.30553,0.82811,2.18938,-0.04969,-2.92928,-1.22480,-4.13655,5.79929,26.20243,8.90780,0.82296,-0.45712,-0.20790,0.26564,-40.57393,25.94122,-92.59885
-0.76835,1.92027,-0.29971,0.90738,2.50624,0.04304,-3.09250,-0.54890,-5.33975,8.23543,27.50881,7.81980,0.77884,-0.51718,-0.22612,0.27350,-2.03176,33.61046,-104.91080
-0.74334,1.98581,-0.29184,1.08541,2.94287,0.14611,-3.01005,0.32814,-7.04505,14.52557,27.66462,5.53200,0.71508,-0.58911,-0.26084,0.27124,21.50994,26.41813,-113.65880
-0.70882,2.05514,-0.28521,1.37297,3.35892,0.21283,-2.70041,1.02737,-8.89808,22.19211,24.04313,2.95394,0.63651,-0.66342,-0.29858,0.25606,26.81756,7.03453,-125.26480
-0.67600,2.11466,-0.28095,1.56748,3.53859,0.23105,-2.48445,1.25218,-9.77084,27.00922,21.29142,1.86818,0.56580,-0.72034,-0.32062,0.24122,23.23832,-2.16192,-118.98880
-0.61278,2.18480,-0.27652,2.15206,3.82672,0.24751,-1.82944,1.59525,-11.79593,38.29518,9.37255,0.25527,0.45626,-0.78946,-0.35976,0.19789,19.79728,-26.46630,-123.63390
-0.53660,2.24122,-0.27324,2.83084,3.87052,0.24498,-1.31935,1.75827,-13.26910,45.74422,-4.11763,-0.49597,0.34470,-0.84039,-0.38868,0.15444,12.97387,-22.14577,-94.07501
-0.45858,2.28685,-0.27044,3.39360,3.74593,0.23580,-0.93766,1.84806,-14.24606,47.92169,-17.02988,-1.12397,0.23211,-0.87500,-0.40990,0.11174,9.65519,-22.42767,-93.46265
-0.35719,2.31210,-0.27096,4.16244,3.33033,0.20721,-0.33884,1.84082,-15.31177,47.43061,-35.67571,-1.78589,0.10988,-0.89395,-0.43073,0.05703,9.56679,-28.01177,-68.42995
-0.25601,2.31724,-0.27194,4.78266,2.71094,0.17454,0.14983,1.97583,-16.04588,39.38334,-53.22652,-3.01000,-0.01281,-0.89458,-0.44667,0.00756,10.68790,-30.34565,-68.28715
-0.15631,2.29740,-0.27358,5.25807,1.85423,0.12303,0.42681,2.36681,-16.45901,25.82803,-69.71124,-5.39983,-0.13527,-0.87916,-0.45597,-0.02945,32.63629,-9.40260,-33.35304
-0.06999,2.26236,-0.27701,5.44668,0.96771,0.04739,0.55867,2.65716,-16.06257,4.62284,-76.49288,-7.15169,-0.23455,-0.85589,-0.45775,-0.05397,31.14657,2.47537,-7.40195
-0.00215,2.20194,-0.28471,5.32967,-0.09027,-0.07360,0.96557,2.00637,-14.65141,-19.36270,-71.85796,-8.43112,-0.28548,-0.83392,-0.46412,-0.08763,5.94664,-39.58052,80.66969
0.03987,2.12938,-0.29747,4.85506,-1.12115,-0.24469,1.09394,0.98808,-12.39627,-39.15482,-55.44407,-13.59560,-0.29632,-0.82390,-0.46820,-0.11901,-63.17036,-85.71687,126.16830
0.07069,2.06790,-0.31097,4.31583,-1.79409,-0.39260,1.43363,2.93506,-10.24499,-40.76972,-41.89358,-12.10982,-0.33918,-0.80646,-0.48026,-0.06261,91.22394,33.67265,154.45930
0.10037,2.01228,-0.32403,3.87934,-2.23911,-0.50250,2.50829,5.30154,-8.93363,-34.16515,-33.64603,-9.17546,-0.40478,-0.76333,-0.50319,0.01661,212.37860,83.36031,105.71670
0.12381,1.95440,-0.34097,3.44327,-2.61795,-0.64453,3.31892,7.02332,-8.12953,-27.02830,-24.29016,-8.70043,-0.47250,-0.70968,-0.51495,0.08900,189.44270,66.74899,19.83818
0.14108,1.89956,-0.36117,2.99990,-2.87988,-0.80408,1.93144,5.68791,-7.75527,-25.73455,-13.50039,-5.98672,-0.50833,-0.70418,-0.49123,0.06653,-63.41961,-16.96832,48.45752
0.16301,1.85305,-0.37692,2.71759,-2.97033,-0.86756,-0.17054,4.01713,-7.03493,-27.36584,-7.22000,-3.52116,-0.52360,-0.72493,-0.44708,0.02106,-197.33540,-58.33844,82.49960
0.16847,1.80575,-0.38921,2.25920,-3.05393,-0.86575,-3.80947,1.30522,-4.76890,-22.45476,-2.01050,3.67238,-0.47057,-0.80174,-0.36369,-0.05919,-241.17670,-35.42191,178.11990
0.18325,1.75899,-0.39579,2.01936,-3.11660,-0.78466,-4.84900,0.01633,-3.70362,-19.57737,-5.93293,7.67980,-0.44852,-0.82669,-0.32219,-0.10778,-143.77060,-34.68171,145.06150
0.19878,1.71003,-0.40033,1.84570,-3.19443,-0.69519,-5.37663,-0.74225,-3.02474,-16.76050,-8.58174,9.08229,-0.43323,-0.84171,-0.28556,-0.14933,-84.34464,-40.58727,94.85155
0.20730,1.65208,-0.39674,1.61017,-3.38229,-0.50995,-5.29522,-1.86479,-2.95381,-12.26347,-11.03754,9.55227,-0.42352,-0.83992,-0.26932,-0.20650,-17.79348,-57.23106,29.24128
0.21755,1.59148,-0.39441,1.43523,-3.57744,-0.37355,-4.05092,-1.94949,-3.57677,-12.35868,-12.37214,5.33463,-0.45028,-0.81660,-0.27554,-0.23343,57.62853,-42.01315,-11.99396
0.22817,1.53120,-0.39581,1.30121,-3.72964,-0.31838,-2.31962,-1.19073,-4.41807,-12.82309,-11.06530,1.68158,-0.50153,-0.78224,-0.28978,-0.22934,129.62090,-13.95242,-53.20297
0.23138,1.46868,-0.39843,1.08490,-3.87892,-0.29221,0.31207,0.24917,-5.33077,-15.12285,-7.15543,2.17922,-0.57439,-0.72924,-0.32335,-0.18370,194.84790,27.39494,-65.36571
0.23005,1.41079,-0.40044,0.84451,-3.93449,-0.26118,1.48514,0.63684,-5.70688,-17.22138,-2.38919,5.17015,-0.62107,-0.68585,-0.34050,-0.16714,127.46310,1.73210,-37.08999
0.22878,1.35743,-0.40111,0.66035,-3.91580,-0.21869,1.33643,0.35492,-5.71102,-17.52458,3.88947,6.94161,-0.64725,-0.65828,-0.33892,-0.18129,27.47226,-14.75788,-17.89438
0.21343,1.31623,-0.39549,0.31199,-3.72441,-0.09494,-0.21679,-0.84640,-4.78342,-19.50359,13.88912,8.31939,-0.63198,-0.66290,-0.32410,-0.23690,-97.42462,-29.50620,51.47238
0.20076,1.28008,-0.39069,0.06509,-3.49376,-0.00664,-1.88259,-1.96365,-3.86740,-13.80524,19.45160,3.50645,-0.60574,-0.67084,-0.30297,-0.30209,-153.06340,-46.57718,39.66551
0.18432,1.25867,-0.39030,-0.20758,-3.07137,-0.00325,-1.56761,-1.21847,-2.13957,-12.34769,16.29592,-2.30430,-0.58644,-0.69473,-0.29920,-0.28969,40.41491,43.04404,51.10691
0.16426,1.19289,-0.39317,-0.40954,-2.79494,-0.04302,-1.20289,-0.71983,-1.60572,-10.98946,14.67568,-1.64382,-0.59214,-0.69069,-0.29034,-0.29669,29.68582,27.76028,28.56815
0.13767,1.13701,-0.39823,-0.59716,-2.52405,-0.09113,-1.90463,-0.27160,-1.04646,-8.94040,14.40739,-2.31620,-0.58195,-0.70518,-0.25351,-0.31588,-30.81073,32.29285,26.58847
0.12065,1.11956,-0.40288,-0.70980,-2.29928,-0.13474,-2.58759,0.14223,-0.61836,-6.31825,13.93186,-3.32334,-0.56705,-0.72451,-0.21831,-0.32540,-54.34738,33.62006,24.09275
0.10493,1.10068,-0.40672,-0.78621,-2.12886,-0.16008,-2.42313,0.45873,-0.47231,-4.78483,11.53155,-1.49329,-0.56580,-0.73160,-0.20223,-0.32208,3.31963,27.48677,10.41335
0.08888,1.08710,-0.40823,-0.85573,-1.91260,-0.14932,-1.51730,0.56511,-0.53711,-3.66470,11.61756,1.59022,-0.57698,-0.72676,-0.20790,-0.30934,42.38820,3.00594,-7.86624
0.07158,1.07223,-0.40762,-0.93298,-1.74681,-0.11143,-1.00136,0.41279,-0.38311,-6.88150,11.71201,4.42722,-0.57817,-0.72540,-0.21526,-0.30525,57.97169,-8.57938,3.46565
0.05021,1.05973,-0.40653,-1.05181,-1.58168,-0.07486,-1.84318,0.22802,-0.03083,-9.19308,9.96729,3.25545,-0.55848,-0.73777,-0.19383,-0.32592,-33.32247,-11.77698,29.14877
0.02771,1.04750,-0.40638,-1.16253,-1.44355,-0.05890,-3.07511,0.26883,0.09995,-4.69257,7.34796,-0.90693,-0.53611,-0.75130,-0.15151,-0.35381,-91.34357,0.23462,14.54370
0.00991,1.03261,-0.40711,-1.18575,-1.36979,-0.05804,-3.14896,0.49916,-0.13502,0.01960,4.63092,-0.75486,-0.53453,-0.75375,-0.12536,-0.36114,-24.14750,13.81819,-12.40591
-0.00546,1.01761,-0.40688,-1.16853,-1.30983,-0.04291,-2.33269,0.63949,-0.60782,1.21437,4.01747,1.04249,-0.55063,-0.74589,-0.11922,-0.35529,42.55742,3.86006,-33.02535
-0.02100,1.00340,-0.40532,-1.15800,-1.24987,-0.01119,-1.46147,0.59850,-0.93412,0.68830,4.91852,3.29648,-0.56715,-0.73620,-0.12227,-0.34842,66.25211,-6.47464,-29.49783
-0.03709,0.98914,-0.40368,-1.15816,-1.20577,0.01400,-1.15595,0.49483,-0.99823,0.02723,5.72575,4.03270,-0.57381,-0.73116,-0.11953,-0.34908,55.59173,-13.24514,-20.66753
-0.05464,0.98056,-0.39926,-1.17759,-1.09029,0.07227,-1.21483,0.22779,-0.90241,-1.20418,6.36435,3.49820,-0.57207,-0.72827,-0.11462,-0.35947,-0.60434,-15.19537,6.70571
-0.07146,0.97183,-0.39549,-1.18204,-0.99657,0.11123,-1.78191,0.09458,-0.83906,0.87898,5.16367,1.99865,-0.56429,-0.72812,-0.09439,-0.37749,-32.66158,-7.22544,6.67063
-0.08690,0.96070,-0.39311,-1.16755,-0.95824,0.12272,-2.05925,0.08335,-0.85299,2.45421,4.61148,0.82588,-0.56037,-0.72666,-0.07557,-0.39018,-41.26850,-2.57683,2.51439
-0.09794,0.95340,-0.39062,-1.09138,-0.87213,0.13235,-1.93045,0.08449,-0.94695,4.40813,4.68504,-0.93495,-0.56275,-0.72240,-0.06367,-0.39674,2.24988,-0.48146,-5.16157
-0.10988,0.94507,-0.38893,-1.04328,-0.81666,0.12953,-1.31722,0.07581,-0.97942,3.79480,4.96475,-0.65660,-0.57130,-0.71739,-0.06625,-0.39316,44.43115,-4.30958,-4.31700
-0.12127,0.93898,-0.38775,-0.99768,-0.74096,0.11996,-0.70883,0.11190,-0.91723,3.03202,5.89184,-0.44004,-0.57966,-0.71423,-0.07250,-0.38552,51.34564,-2.69336,0.54371
-0.13322,0.93492,-0.38731,-0.96855,-0.65168,0.10164,-0.62979,0.27091,-0.66278,1.54842,6.52623,-0.93606,-0.57778,-0.71812,-0.06851,-0.38180,17.16669,7.83248,14.61423
-0.14582,0.93287,-0.38762,-0.95323,-0.55052,0.07590,-0.84378,0.58687,-0.35652,0.82608,5.74847,-1.43898,-0.56999,-0.72717,-0.05495,-0.37857,-12.23076,21.49193,19.90630
-0.15787,0.92935,-0.38744,-0.93420,-0.49137,0.06283,-1.00451,0.80109,-0.26340,2.13829,4.33534,-0.75488,-0.56576,-0.73250,-0.04035,-0.37647,-13.31136,20.66490,12.12242
-0.16821,0.92612,-0.38657,-0.89390,-0.44020,0.06221,-1.19120,0.90432,-0.24350,3.44659,3.18244,0.54736,-0.56176,-0.73587,-0.02476,-0.37724,-11.88506,11.55047,2.64157
-0.17703,0.92272,-0.38459,-0.84009,-0.40164,0.07730,-1.29475,0.84573,-0.26566,4.17015,2.55707,1.14578,-0.55893,-0.73647,-0.01257,-0.38085,-11.99220,-0.47058,0.26168
-0.18472,0.91960,-0.38174,-0.78221,-0.36699,0.10210,-1.12612,0.65819,-0.32285,4.04695,2.56417,1.70310,-0.56039,-0.73414,-0.00911,-0.38330,6.25310,-11.63233,-3.17957
-0.19199,0.91705,-0.37819,-0.72929,-0.33068,0.13169,-0.88012,0.37885,-0.34855,3.74511,2.68282,2.25079,-0.56285,-0.73037,-0.01148,-0.38682,19.06830,-20.77424,-2.69624
-0.19890,0.91523,-0.37438,-0.68220,-0.29139,0.15912,-0.74783,0.15391,-0.32444,3.14155,2.92046,1.96480,-0.56327,-0.72749,-0.01288,-0.39157,11.77841,-18.21903,2.14302
-0.20520,0.91451,-0.37043,-0.63550,-0.24363,0.18357,-0.77551,-0.00060,-0.29090,2.96844,3.03888,1.52192,-0.56154,-0.72531,-0.01055,-0.39811,1.11174,-10.37294,2.82070
-0.21175,0.91379,-0.36700,-0.60009,-0.20569,0.19546,-0.93143,-0.06387,-0.24040,3.05640,3.25686,0.82042,-0.55735,-0.72440,-0.00383,-0.40570,-10.08886,-6.22210,3.39999
-0.21736,0.91430,-0.36394,-0.55900,-0.15866,0.19940,-1.05564,-0.08654,-0.14893,2.99837,3.48880,-0.41039,-0.55172,-0.72480,0.00285,-0.41262,-13.26139,-1.78174,6.37497
-0.22243,0.91562,-0.36159,-0.51938,-0.10926,0.19295,-0.94243,-0.07515,-0.03517,2.79004,3.58396,-1.00469,-0.54815,-0.72638,0.00410,-0.41460,3.50429,1.37537,7.53236
-0.22736,0.91751,-0.35971,-0.48442,-0.06166,0.18087,-0.69791,-0.06640,0.10215,2.40800,3.17654,-1.00880,-0.54561,-0.72888,0.00067,-0.41357,15.90240,1.16951,10.00259
-0.23221,0.91915,-0.35783,-0.45611,-0.02767,0.17148,-0.43704,-0.08646,0.19888,2.37000,2.54376,-0.69933,-0.54437,-0.73073,-0.00492,-0.41191,20.60448,0.04852,9.11569
-0.23594,0.92118,-0.35580,-0.41787,0.00530,0.16623,-0.14992,-0.18104,0.27892,2.48877,1.59868,0.22180,-0.54419,-0.73146,-0.01420,-0.41064,20.46240,-3.95572,5.82182
-0.23960,0.92233,-0.35321,-0.38612,0.01969,0.16942,-0.06158,-0.31073,0.29745,2.77956,0.89498,0.54029,-0.54303,-0.73046,-0.02010,-0.41368,10.61984,-9.24406,3.74993
-0.24216,0.92323,-0.35035,-0.34583,0.02777,0.17583,-0.01715,-0.49411,0.26132,2.87832,0.39326,0.41710,-0.54277,-0.72720,-0.02615,-0.41940,4.29059,-13.18261,-1.71399
-0.24388,0.92404,-0.34784,-0.30126,0.03317,0.17586,-0.00143,-0.63447,0.19513,2.72320,0.28523,-0.31088,-0.54317,-0.72326,-0.03099,-0.42532,2.40904,-10.17513,-4.54962
-0.24585,0.92482,-0.34609,-0.26720,0.03657,0.16525,-0.03133,-0.66147,0.14717,2.28511,0.19150,-1.10471,-0.54281,-0.72078,-0.03304,-0.42981,-1.78305,-3.42904,-3.40915
-0.24789,0.92561,-0.34504,-0.24175,0.03973,0.14743,-0.02729,-0.59587,0.09929,2.08550,0.39820,-1.92714,-0.54322,-0.71942,-0.03393,-0.43151,-1.00882,1.68714,-4.42028
-0.24913,0.92696,-0.34585,-0.20983,0.05033,0.10663,-0.06699,-0.35908,0.08461,1.66469,0.64042,-2.41270,-0.54264,-0.72130,-0.03064,-0.42934,-1.39436,12.37185,-1.20858
-0.25082,0.92819,-0.34648,-0.19088,0.05738,0.07638,-0.13374,-0.16246,0.07422,1.57403,0.56021,-2.52917,-0.54141,-0.72337,-0.02632,-0.42769,-5.50166,16.17538,-0.03077
-0.25184,0.92981,-0.34815,-0.16579,0.06876,0.03754,-0.21069,0.10069,0.05880,1.63087,0.97821,-2.34219,-0.54012,-0.72685,-0.01927,-0.42378,-4.37900,16.45781,-1.95880
-0.25278,0.93191,-0.34971,-0.14515,0.08503,0.00739,-0.31545,0.30156,0.10188,1.59813,1.28905,-1.89055,-0.53676,-0.73117,-0.01219,-0.42087,-6.59909,15.77752,1.54327
-0.25356,0.93419,-0.35099,-0.12650,0.10036,-0.01232,-0.40621,0.41806,0.15850,1.59109,1.23871,-1.46410,-0.53260,-0.73526,-0.00604,-0.41916,-8.06869,11.32280,4.32450
-0.25404,0.93670,-0.35232,-0.10770,0.11570,-0.02866,-0.47445,0.49486,0.20811,1.06990,0.97315,-1.00769,-0.52828,-0.73919,-0.00035,-0.41775,-6.05911,6.88901,4.61160
-0.25456,0.93912,-0.35342,-0.09326,0.12684,-0.03815,-0.50325,0.52945,0.24308,1.08914,0.63957,-0.51368,-0.52443,-0.74259,0.00422,-0.41655,-2.67888,3.18159,3.46191
-0.25484,0.94138,-0.35419,-0.07826,0.13363,-0.04134,-0.49708,0.52508,0.27056,0.98804,0.34391,-0.07047,-0.52105,-0.74546,0.00740,-0.41563,0.08319,0.26720,1.99593
-0.25500,0.94337,-0.35465,-0.06482,0.13524,-0.03963,-0.48877,0.48277,0.28342,0.69163,-0.12624,0.24189,-0.51793,-0.74758,0.00988,-0.41566,0.59493,-2.06595,1.68668
-0.25535,0.94495,-0.35485,-0.05628,0.13111,-0.03456,-0.44949,0.41889,0.27223,0.55617,-0.43456,0.38450,-0.51586,-0.74888,0.01134,-0.41587,1.90767,-4.00116,-0.53218
-0.25566,0.94623,-0.35487,-0.04912,0.12339,-0.02803,-0.38754,0.35045,0.25444,0.46382,-0.70971,0.48064,-0.51448,-0.74977,0.01183,-0.41596,4.27531,-4.27993,-1.33984
-0.25597,0.94709,-0.35473,-0.04354,0.11123,-0.02049,-0.29422,0.26869,0.20574,0.27775,-1.01798,0.47447,-0.51463,-0.74966,0.01118,-0.41598,5.89438,-5.74701,-2.34945
-0.25632,0.94744,-0.35448,-0.03911,0.09358,-0.01259,-0.15496,0.19037,0.11775,0.20534,-1.06825,0.46767,-0.51697,-0.74853,0.00934,-0.41516,8.96993,-5.29215,-5.41052
-0.25659,0.94760,-0.35433,-0.03751,0.08325,-0.00850,-0.08260,0.15966,0.07933,0.17287,-0.70820,0.37853,-0.51821,-0.74809,0.00834,-0.41442,7.24147,-3.47380,-5.15308
-0.25670,0.94752,-0.35411,-0.03573,0.07428,-0.00353,-0.03317,0.12794,0.07161,0.16103,-0.48725,0.35662,-0.51874,-0.74787,0.00723,-0.41419,2.97480,-1.77564,-1.06327
-0.25689,0.94773,-0.35392,-0.03427,0.06830,0.00100,-0.01224,0.09994,0.07957,0.10877,-0.56544,0.43820,-0.51860,-0.74798,0.00664,-0.41416,2.66244,-1.85237,0.69019
-0.25709,0.94783,-0.35369,-0.03387,0.06136,0.00659,-0.00063,0.06671,0.07672,-0.04284,-0.57749,0.50186,-0.51857,-0.74791,0.00623,-0.41434,0.89279,-2.25623,0.13302
-0.25765,0.94841,-0.35323,-0.03433,0.05272,0.01553,0.06965,0.00365,0.07572,0.03602,-0.55099,0.57070,-0.51873,-0.74788,0.00456,-0.41421,3.36200,-3.43789,0.07119
-0.25866,0.94956,-0.35216,-0.03265,0.04445,0.02559,0.15996,-0.08001,0.07099,0.14084,-0.67953,0.81764,-0.51949,-0.74746,0.00014,-0.41404,7.32882,-5.80461,-0.07607
-0.25947,0.95008,-0.35083,-0.03161,0.03528,0.03461,0.21773,-0.15339,0.05567,0.02511,-0.83723,0.69403,-0.52090,-0.74614,-0.00505,-0.41462,4.53808,-6.33810,-0.59466
-0.25994,0.94961,-0.34962,-0.03152,0.02212,0.04494,0.30114,-0.23073,0.00973,0.03096,-0.55633,0.52380,-0.52368,-0.74387,-0.00986,-0.41512,5.60832,-4.37843,-3.18876
-0.26043,0.94941,-0.34871,-0.03161,0.01543,0.04920,0.25435,-0.25751,0.00951,0.10058,-0.42957,0.34505,-0.52386,-0.74283,-0.01159,-0.41670,-0.99802,-2.02657,-0.62800
-0.26087,0.94923,-0.34791,-0.03110,0.01029,0.05083,0.17791,-0.27106,0.03032,0.04991,-0.47560,0.05271,-0.52290,-0.74229,-0.01246,-0.41884,-5.80685,-1.58282,1.30080
-0.26145,0.94874,-0.34727,-0.03218,0.00120,0.04981,0.10700,-0.27729,0.00496,-0.20976,-0.57145,-0.22819,-0.52281,-0.74110,-0.01235,-0.42106,-5.32843,-0.33796,-0.73382
-0.26206,0.94830,-0.34680,-0.03344,-0.00544,0.04663,0.09225,-0.28304,-0.03206,0.09314,-0.40418,-0.29335,-0.52382,-0.73955,-0.01312,-0.42250,-0.80887,-0.42185,-3.50017
-0.26248,0.94792,-0.34652,-0.03207,-0.00987,0.04118,0.05630,-0.28111,-0.04034,0.16678,-0.26123,-0.49744,-0.52393,-0.73847,-0.01347,-0.42423,-2.69270,-0.42726,-1.03966
-0.26285,0.94755,-0.34652,-0.03082,-0.01306,0.03284,0.02729,-0.26012,-0.04074,0.05024,-0.19309,-0.68930,-0.52389,-0.73779,-0.01356,-0.42547,-1.81174,0.55764,-0.24853
-0.26296,0.94739,-0.34708,-0.03062,-0.01468,0.02116,-0.01085,-0.21321,-0.04014,0.06938,-0.03612,-0.95133,-0.52352,-0.73813,-0.01230,-0.42537,-2.05868,3.06667,-0.45191
-0.26293,0.94739,-0.34776,-0.02963,-0.01451,0.00596,-0.08419,-0.12971,-0.00656,0.13743,-0.02315,-1.12312,-0.52232,-0.73931,-0.01045,-0.42485,-4.71208,5.04906,1.43305
-0.26339,0.94707,-0.34845,-0.02809,-0.01602,-0.01042,-0.15646,-0.04858,0.03435,0.10700,-0.26761,-1.21059,-0.52063,-0.74016,-0.00862,-0.42547,-5.83469,5.99588,3.06242
-0.26393,0.94639,-0.34945,-0.02726,-0.02291,-0.02531,-0.18369,0.02334,0.02276,-0.07482,-0.69610,-1.03953,-0.51964,-0.74082,-0.00620,-0.42558,-2.88720,5.73971,0.27323
-0.26442,0.94533,-0.35058,-0.02666,-0.03435,-0.03700,-0.17935,0.06242,-0.03816,0.09906,-0.92445,-0.75377,-0.52012,-0.74060,-0.00371,-0.42540,-0.25338,3.43021,-3.83942
-0.26493,0.94375,-0.35190,-0.02476,-0.04768,-0.04527,-0.17783,0.07602,-0.10418,0.15646,-0.98086,-0.49332,-0.52122,-0.73975,-0.00064,-0.42556,0.54799,1.00238,-4.81771
-0.26534,0.94199,-0.35317,-0.02355,-0.06157,-0.05229,-0.17509,0.06784,-0.20115,0.00655,-0.62084,-0.55052,-0.52366,-0.73772,0.00250,-0.42608,-1.12206,-0.50347,-5.72177
-0.26569,0.94088,-0.35426,-0.02343,-0.06534,-0.05760,-0.10002,0.04988,-0.26689,0.08091,-0.02703,-0.49908,-0.52691,-0.73573,0.00301,-0.42551,4.42376,-1.33422,-6.43800
-0.26600,0.94026,-0.35547,-0.02250,-0.06124,-0.06369,-0.04804,0.02502,-0.28856,0.20106,0.56909,-0.27722,-0.52934,-0.73411,0.00300,-0.42529,6.16014,-2.21497,-2.69070
-0.26625,0.94145,-0.35731,-0.02013,-0.02752,-0.07979,-0.09112,0.01983,-0.13158,0.10425,1.52666,-0.71100,-0.52665,-0.73547,0.00328,-0.42628,-1.44519,0.08621,6.28343
-0.26617,0.94228,-0.35717,-0.01917,-0.00910,-0.08668,-0.04250,0.02278,-0.03528,0.12402,1.51493,-0.55221,-0.52562,-0.73654,0.00163,-0.42571,3.75656,0.06120,7.85664
-0.26647,0.94294,-0.35888,-0.01722,0.01026,-0.09355,0.00095,0.01855,0.06500,0.12023,1.23911,-0.43996,-0.52459,-0.73748,0.00060,-0.42536,3.33894,-0.08014,7.82129
-0.26693,0.94407,-0.36194,-0.01593,0.02465,-0.09841,0.06461,0.00440,0.12448,-0.01764,0.84854,-0.28514,-0.52338,-0.73882,-0.00188,-0.42451,3.90732,-0.74813,5.20283
-0.26734,0.94537,-0.36458,-0.01534,0.03430,-0.10020,0.11594,-0.03201,0.14048,-0.02617,0.39275,0.15301,-0.52289,-0.73946,-0.00531,-0.42397,4.91240,-1.86853,1.21141
-0.26754,0.94599,-0.36554,-0.01563,0.03829,-0.09893,0.08040,-0.07002,0.12929,-0.02327,0.26114,0.15453,-0.52239,-0.73910,-0.00583,-0.42521,-2.06301,-2.97873,-0.47458
-0.26776,0.94675,-0.36667,-0.01497,0.04138,-0.09635,0.03688,-0.11925,0.10977,0.12096,0.22097,0.23103,-0.52186,-0.73839,-0.00639,-0.42708,-2.78145,-3.49375,-1.57850
-0.26802,0.94782,-0.36835,-0.01358,0.04379,-0.09349,-0.01455,-0.17001,0.10109,0.11033,0.14420,0.12453,-0.52066,-0.73757,-0.00725,-0.42995,-3.92120,-4.25824,-0.53982
-0.26813,0.94865,-0.36960,-0.01162,0.04635,-0.09284,-0.00944,-0.21176,0.09377,0.16394,0.20031,-0.14244,-0.52030,-0.73668,-0.00885,-0.43188,-1.13616,-3.81735,-0.65696
-0.26820,0.94957,-0.37097,-0.00970,0.04941,-0.09440,0.03696,-0.23922,0.09955,0.15029,0.19905,-0.19359,-0.52030,-0.73606,-0.01158,-0.43286,3.28739,-2.04643,0.09999
