posX, posY, posZ, velX, velY, velZ, angVelX, angVelY, angVelZ, accX, accY, accZ, rotX, rotY, rotZ, rotW, angAccX, angAccY, angAccZ
-0.16510,1.28114,-0.42494,0.21685,1.59003,-0.11379,0.89760,-0.06710,2.48779,-2.51149,7.70144,1.35421,0.30755,0.87824,0.26386,0.25395,-7.83440,-18.58898,16.24821
-0.16540,1.31130,-0.42428,0.16701,1.71012,-0.08057,1.35340,-0.02424,2.75008,-4.05861,7.51634,1.85717,0.29014,0.88060,0.28858,0.23893,24.92162,3.07827,16.96967
-0.16721,1.34153,-0.42330,0.10414,1.80919,-0.04894,1.82938,0.14159,2.99273,-5.01308,6.78603,2.56174,0.27351,0.88223,0.31505,0.21818,33.55575,16.04275,18.60201
-0.17003,1.37181,-0.42192,0.04039,1.88479,-0.01825,2.07420,0.23645,3.21135,-5.58292,5.73827,3.07803,0.25425,0.88386,0.33824,0.19936,24.81029,14.61975,19.20973
-0.17499,1.40281,-0.41965,-0.04092,1.95600,0.01875,2.05362,0.19873,3.43456,-6.00918,4.22549,2.99342,0.23040,0.88623,0.35647,0.18557,5.04210,-1.28514,17.38896
-0.18116,1.43327,-0.41699,-0.12397,2.00698,0.05431,1.86322,0.06998,3.59370,-5.97061,3.01108,2.57201,0.20463,0.88886,0.36991,0.17667,-10.12659,-12.67270,11.09408
-0.18692,1.46295,-0.41454,-0.18202,2.03270,0.07866,1.71657,-0.04155,3.66656,-5.88154,2.11727,2.35239,0.18009,0.89033,0.38278,0.16839,-11.28204,-15.63865,7.84914
-0.19593,1.49277,-0.41085,-0.27317,2.05540,0.11496,1.62415,-0.12395,3.71531,-5.83723,0.94230,1.81469,0.15585,0.89083,0.39574,0.15978,-7.13630,-11.24438,2.53216
-0.20569,1.52154,-0.40699,-0.36021,2.06158,0.14772,1.80229,0.04839,3.69672,-5.44323,0.07262,1.64028,0.13798,0.88863,0.41368,0.14199,7.00847,10.83836,0.93826
-0.21562,1.54990,-0.40345,-0.43310,2.05795,0.16951,1.93627,0.28756,3.67295,-5.19785,-0.64797,1.49202,0.12142,0.88620,0.43039,0.12108,7.23993,20.93167,0.60471
-0.22597,1.57778,-0.40018,-0.49544,2.04776,0.18245,1.88003,0.36138,3.64656,-5.11630,-1.28996,1.29288,0.10272,0.88456,0.44270,0.10499,-1.50129,12.38767,-0.52940
-0.23796,1.60469,-0.39694,-0.56860,2.02769,0.19260,1.67110,0.30229,3.59850,-5.38086,-1.73236,0.60821,0.08237,0.88407,0.45030,0.09413,-12.21962,-6.77609,-3.67441
-0.25187,1.63065,-0.39362,-0.65510,1.99563,0.20190,1.45901,0.27638,3.57935,-5.50921,-2.21756,0.57657,0.06137,0.88390,0.45625,0.08239,-12.96996,-5.85351,-1.87634
-0.26610,1.65604,-0.39001,-0.72959,1.96188,0.21356,1.36209,0.29876,3.58356,-5.25737,-2.66600,0.96678,0.04080,0.88226,0.46396,0.06844,-8.12225,-0.84932,-0.11503
-0.28051,1.68080,-0.38623,-0.79097,1.92702,0.22502,1.24872,0.21209,3.57373,-4.88736,-3.21780,1.20261,0.01903,0.88020,0.47068,0.05793,-6.58746,-2.72249,0.12926
-0.29694,1.70385,-0.38205,-0.86791,1.87265,0.23963,1.02484,-0.13931,3.53395,-4.57125,-3.68118,1.02420,-0.00660,0.87870,0.47392,0.05700,-8.96419,-22.60005,-4.01825
-0.31395,1.72583,-0.37760,-0.93955,1.81253,0.25451,0.89234,-0.49271,3.48107,-4.66576,-3.71465,0.70387,-0.03247,0.87572,0.47818,0.05828,-4.66274,-27.08622,-5.93792
-0.33080,1.74789,-0.37302,-0.99488,1.76703,0.26878,0.95821,-0.44969,3.52442,-5.21685,-3.47121,0.69017,-0.05538,0.87050,0.48668,0.04799,3.48860,-9.04707,-0.73034
-0.34901,1.76931,-0.36807,-1.05619,1.72109,0.28527,1.11413,-0.08248,3.68456,-5.50577,-3.88160,1.09731,-0.07660,0.86352,0.49784,0.02494,5.03016,23.92289,11.44827
-0.36988,1.78831,-0.36250,-1.14271,1.65004,0.30621,1.25137,0.38625,3.96732,-5.24209,-4.98514,1.54458,-0.09947,0.85500,0.50896,-0.00624,0.77953,32.63752,20.86834
-0.39083,1.80621,-0.35685,-1.21441,1.57749,0.32444,1.29231,0.52067,4.15649,-4.68592,-5.67066,1.48220,-0.12505,0.84605,0.51741,-0.02909,-0.03759,14.64690,16.53292
-0.41222,1.82263,-0.35128,-1.27733,1.49696,0.33822,1.28615,0.50150,4.25916,-4.18731,-6.10825,0.73818,-0.15135,0.83677,0.52409,-0.04722,1.07797,-1.61715,8.68201
-0.43388,1.83762,-0.34577,-1.33062,1.41237,0.34744,1.24897,0.50737,4.30849,-3.44205,-6.22120,0.51128,-0.17610,0.82739,0.52928,-0.06542,-1.70016,-0.69158,4.87263
-0.45553,1.85134,-0.34043,-1.37360,1.32746,0.35259,1.19539,0.45631,4.29119,-2.64621,-6.19413,0.21970,-0.19989,0.81802,0.53322,-0.08101,-3.02466,-2.71997,0.36439
-0.47728,1.86406,-0.33558,-1.40856,1.24424,0.34999,1.10610,0.39825,4.23670,-2.36742,-5.85085,-0.58399,-0.22272,0.80908,0.53542,-0.09548,-3.08586,-6.66203,-4.40894
-0.49929,1.87586,-0.33114,-1.43822,1.16485,0.34101,0.97653,0.32896,4.15224,-1.83733,-5.70860,-0.91025,-0.24446,0.80104,0.53547,-0.10884,-7.86196,-6.43376,-5.04444
-0.52137,1.88664,-0.32738,-1.46374,1.08784,0.32458,0.81523,0.25617,4.05453,-1.72464,-5.56390,-1.56273,-0.26533,0.79386,0.53352,-0.12137,-8.03314,-8.88060,-6.99593
-0.54385,1.89576,-0.32438,-1.48940,1.00040,0.30020,0.59289,0.22486,3.94071,-1.48052,-5.48817,-1.62260,-0.28443,0.78815,0.52892,-0.13477,-12.73851,-5.49025,-6.87509
-0.56645,1.90442,-0.32152,-1.51148,0.92406,0.27790,0.41457,0.14430,3.84080,-1.43822,-5.55026,-1.58828,-0.30395,0.78220,0.52374,-0.14657,-11.94600,-7.01892,-7.31849
-0.58878,1.91322,-0.31865,-1.52689,0.86743,0.26189,0.31285,0.03148,3.77457,-1.42542,-5.77691,-1.58867,-0.32454,0.77518,0.51883,-0.15678,-8.47353,-11.79017,-7.23523
-0.61220,1.91740,-0.31683,-1.55279,0.75751,0.23369,0.18640,-0.20572,3.68290,-1.32738,-6.37863,-1.53102,-0.34644,0.76953,0.51125,-0.16257,-3.86865,-14.40406,-5.52399
-0.63542,1.92045,-0.31491,-1.57191,0.65183,0.21193,0.13825,-0.46010,3.61541,-0.99836,-6.62087,-1.09988,-0.36952,0.76260,0.50416,-0.16651,0.06278,-16.26873,-4.29253
-0.65818,1.92373,-0.31258,-1.58214,0.56980,0.20142,0.17233,-0.59270,3.57326,-0.82683,-6.83524,-0.87286,-0.39175,0.75357,0.49918,-0.17171,4.65049,-13.68926,-4.52354
-0.68058,1.92394,-0.31055,-1.58997,0.45955,0.19103,0.17510,-0.58754,3.58140,-0.61597,-6.85419,-0.60632,-0.41276,0.74353,0.49417,-0.18056,1.89866,-1.63595,-0.62337
-0.70279,1.92440,-0.30827,-1.59235,0.37581,0.18643,0.14171,-0.49989,3.61389,-0.15229,-7.00917,-0.24371,-0.43260,0.73283,0.48861,-0.19254,-5.18513,6.21665,2.64394
-0.72468,1.92154,-0.30621,-1.59055,0.26038,0.17956,0.16935,-0.47776,3.65572,0.29051,-7.32185,-0.41484,-0.45355,0.72068,0.48350,-0.20281,0.28747,3.23485,2.39546
-0.74621,1.91816,-0.30421,-1.58285,0.15635,0.17233,0.20307,-0.49443,3.69223,0.75166,-7.54927,-0.51755,-0.47485,0.70799,0.47791,-0.21183,3.21686,-1.09293,2.56082
-0.76726,1.91329,-0.30220,-1.56816,0.05187,0.16677,0.26506,-0.49553,3.73168,1.29007,-7.42194,-0.25215,-0.49619,0.69389,0.47285,-0.22073,3.29088,0.26561,3.52532
-0.78649,1.90246,-0.30031,-1.52637,-0.13641,0.16044,0.41831,-0.44459,3.77602,1.83999,-7.26174,-0.34228,-0.51715,0.67742,0.47019,-0.22932,5.47203,3.38378,1.73725
-0.82691,1.89162,-0.29637,-1.49738,-0.23779,0.15331,0.45242,-0.34967,3.83946,2.16475,-7.38775,-0.87506,-0.55637,0.64553,0.46002,-0.24923,3.10992,5.95930,4.12858
-0.84539,1.88135,-0.29522,-1.46366,-0.33841,0.13929,0.34948,-0.21970,3.94394,2.51347,-7.13599,-1.34328,-0.57474,0.62834,0.45262,-0.26456,-7.42925,7.72760,6.65405
-0.86314,1.87004,-0.29463,-1.42630,-0.43435,0.11967,0.16989,-0.12334,4.03761,3.02853,-6.83391,-1.57637,-0.59213,0.61199,0.44236,-0.28135,-14.60514,3.80364,7.88805
-0.88004,1.85753,-0.29473,-1.38258,-0.52784,0.09375,0.05856,-0.14195,4.09957,3.40535,-6.54884,-1.87249,-0.61050,0.59545,0.43091,-0.29505,-10.43139,-1.15256,4.55495
-0.89609,1.84405,-0.29545,-1.33623,-0.61667,0.06432,0.10800,-0.29840,4.11378,3.62630,-6.09793,-1.90691,-0.63093,0.57814,0.41994,-0.30221,2.06767,-9.12378,2.34071
-0.91070,1.82904,-0.29687,-1.27758,-0.71150,0.03001,0.34382,-0.54224,4.07595,3.91995,-5.74858,-2.13721,-0.65332,0.55941,0.41106,-0.30209,17.98824,-10.40033,-2.09657
-0.92467,1.81398,-0.29844,-1.22056,-0.78867,0.00012,0.58100,-0.73026,4.03236,4.38131,-5.36589,-2.16457,-0.67521,0.53978,0.40288,-0.30069,20.79407,-9.07720,-2.61901
-0.93739,1.79831,-0.30031,-1.15697,-0.85818,-0.02765,0.75833,-0.83823,3.99688,4.60180,-4.69878,-1.95234,-0.69582,0.51958,0.39479,-0.30002,16.78795,-4.83078,-2.78688
-0.94965,1.78289,-0.30203,-1.10118,-0.90942,-0.04719,0.81320,-0.85802,3.97849,4.70016,-4.08802,-1.66839,-0.71430,0.49949,0.38589,-0.30229,9.33833,-1.20274,-1.34114
-0.95970,1.76624,-0.30424,-1.02343,-0.96715,-0.06983,0.75821,-0.84395,3.95942,5.03398,-3.34765,-1.38320,-0.73089,0.48021,0.37540,-0.30703,-3.20855,-0.11575,-1.46609
-0.96920,1.74993,-0.30640,-0.95290,-1.00921,-0.08739,0.75073,-0.85505,3.92896,5.18467,-2.64803,-1.00244,-0.74725,0.46068,0.36492,-0.31020,-3.07700,-1.22136,-1.44779
-0.97761,1.73363,-0.30861,-0.88145,-1.04284,-0.10208,0.84837,-0.86295,3.86691,5.19353,-2.09820,-0.90299,-0.76338,0.44031,0.35651,-0.31028,6.29692,1.44491,-3.38327
-0.98572,1.71756,-0.31065,-0.82032,-1.06502,-0.11113,0.87423,-0.83743,3.80511,5.07216,-1.73796,-0.80801,-0.77798,0.42028,0.34785,-0.31165,5.87793,2.96264,-5.07464
-0.99165,1.70121,-0.31266,-0.74019,-1.08697,-0.11769,0.75512,-0.78361,3.71669,5.03135,-1.14697,-0.27611,-0.78971,0.40264,0.33789,-0.31634,-7.05992,1.54763,-5.90372
-0.99727,1.68527,-0.31436,-0.67135,-1.09932,-0.11869,0.60370,-0.70949,3.63632,4.87233,-0.69006,0.08883,-0.79992,0.38542,0.32780,-0.32269,-11.51424,2.39832,-5.77234
-1.00331,1.66953,-0.31591,-0.62365,-1.10510,-0.11707,0.50251,-0.64574,3.58408,4.73749,-0.47015,0.25656,-0.80992,0.36733,0.31785,-0.32873,-12.31898,3.01065,-5.96391
-1.00667,1.65375,-0.31743,-0.54837,-1.11051,-0.11552,0.44984,-0.54194,3.49874,4.74953,-0.09473,0.10856,-0.81853,0.34938,0.31020,-0.33424,-5.80625,5.40511,-4.89731
-1.00920,1.63834,-0.31914,-0.47450,-1.11028,-0.11720,0.40482,-0.46020,3.40020,4.62135,0.06994,-0.47428,-0.82644,0.33207,0.30282,-0.33916,-2.96061,6.24439,-6.38226
-1.01213,1.62296,-0.32117,-0.42050,-1.10751,-0.12285,0.29612,-0.48238,3.34616,4.52918,0.35223,-0.65318,-0.83454,0.31556,0.29151,-0.34495,-7.61153,-1.00295,-4.69190
-1.01372,1.60795,-0.32358,-0.35969,-1.10162,-0.13296,0.23342,-0.52232,3.26127,4.30023,0.55630,-0.78955,-0.84219,0.30027,0.28033,-0.34924,-5.17694,-4.27819,-5.73540
-1.01411,1.59335,-0.32653,-0.29320,-1.09243,-0.14918,0.23276,-0.58107,3.15990,4.11812,0.65744,-1.08203,-0.84993,0.28563,0.26945,-0.35133,0.21706,-3.59763,-6.70392
-1.01442,1.57875,-0.32975,-0.23769,-1.08284,-0.16586,0.31448,-0.61662,3.04266,3.89742,0.84959,-1.10827,-0.85788,0.27073,0.26005,-0.35087,4.78252,-2.55266,-7.40171
-1.01462,1.56437,-0.33312,-0.19276,-1.07298,-0.18122,0.45196,-0.60952,2.90434,3.69511,0.91812,-1.27266,-0.86559,0.25600,0.25299,-0.34816,10.08719,1.84605,-9.78701
-1.01386,1.55029,-0.33702,-0.14372,-1.06115,-0.20104,0.67000,-0.58277,2.70028,3.45284,0.94376,-1.41131,-0.87324,0.24273,0.24886,-0.34148,13.66368,5.07927,-12.81435
-1.01218,1.53645,-0.34153,-0.09056,-1.04715,-0.22564,1.03147,-0.47501,2.42782,3.32336,0.89763,-1.45329,-0.88104,0.22975,0.25022,-0.32920,20.52676,10.70815,-15.84118
-1.01006,1.52265,-0.34626,-0.04091,-1.03572,-0.24898,1.37697,-0.35289,2.25402,3.83676,0.76652,-1.79767,-0.88911,0.21455,0.25240,-0.31584,23.29728,14.44136,-13.41317
-1.00710,1.50912,-0.35121,0.01008,-1.02330,-0.27046,1.61107,-0.28102,2.17387,4.65341,1.17573,-2.08796,-0.89707,0.19825,0.25260,-0.30358,21.80506,12.23171,-6.44090
-1.00156,1.49661,-0.35698,0.08804,-0.99765,-0.29931,1.69375,-0.39228,2.14232,5.16083,1.78889,-2.00854,-0.90540,0.18372,0.24633,-0.29296,8.46462,-2.75344,-3.00195
-0.99519,1.48482,-0.36264,0.16344,-0.96682,-0.32091,1.71665,-0.51863,2.16504,5.60434,2.55352,-1.12076,-0.91353,0.16862,0.23766,-0.28382,1.59427,-11.78288,-1.31692
-0.98726,1.47413,-0.36814,0.24609,-0.92665,-0.33600,1.83776,-0.47888,2.25120,6.01447,3.17843,-0.65152,-0.92135,0.14892,0.23313,-0.27310,7.75408,0.75227,4.83279
-0.97863,1.46412,-0.37321,0.32089,-0.88455,-0.34149,1.88055,-0.41831,2.36977,6.45116,3.80236,-0.41237,-0.92823,0.12757,0.22850,-0.26440,5.95976,6.13599,9.77481
-0.96702,1.45672,-0.37792,0.42356,-0.81368,-0.34057,1.72093,-0.47739,2.57508,6.42717,5.03072,0.05370,-0.93424,0.10544,0.21808,-0.26176,-6.73284,-4.14245,12.32170
-0.95598,1.45017,-0.38214,0.49748,-0.74526,-0.33331,1.47356,-0.62705,2.70475,6.05692,6.39301,0.74635,-0.93930,0.08645,0.20394,-0.26202,-16.43239,-15.41572,9.96152
-0.94367,1.44664,-0.38565,0.57319,-0.64774,-0.31700,1.11328,-0.84485,2.80453,4.95685,7.74579,1.43833,-0.94308,0.06968,0.18564,-0.26699,-21.38449,-20.24731,5.92699
-0.93098,1.44701,-0.38815,0.64026,-0.51276,-0.28940,0.70837,-1.08724,2.82301,3.47269,9.37130,2.01950,-0.94549,0.05633,0.16539,-0.27483,-22.23761,-20.20608,-0.20096
-0.91976,1.44921,-0.39009,0.67367,-0.37710,-0.25916,0.42728,-1.27183,2.67923,1.47867,9.87924,2.27786,-0.94733,0.04751,0.14747,-0.28029,-21.24045,-17.04545,-11.38469
-0.91009,1.45370,-0.39165,0.67704,-0.23535,-0.22917,0.35327,-1.51057,2.42390,-0.63232,10.86294,2.57680,-0.95060,0.04260,0.12840,-0.27938,7.68171,-19.06008,-10.00223
-0.90277,1.46275,-0.39146,0.64529,-0.05375,-0.17928,-0.20188,-1.50968,1.69357,-3.12860,11.88315,3.27736,-0.94721,0.05587,0.11905,-0.29240,-33.02584,-7.07360,-46.11892
-0.89745,1.47250,-0.39163,0.59057,0.10294,-0.14492,-0.34367,-1.55433,0.99873,-4.46259,11.42233,2.10703,-0.94634,0.07107,0.11058,-0.29523,-9.15850,-1.28429,-49.99113
-0.89327,1.48346,-0.39203,0.53083,0.24289,-0.12117,-0.37358,-1.63035,0.27769,-5.34156,12.49521,1.97105,-0.94567,0.09194,0.10258,-0.29450,-0.04084,-9.52031,-55.80173
-0.89147,1.49892,-0.39214,0.44966,0.41791,-0.09841,-0.20448,-1.52696,-0.64664,-6.45685,13.05332,2.10345,-0.94466,0.12198,0.10389,-0.28626,15.21998,-0.92350,-63.94026
-0.89208,1.51925,-0.39150,0.34926,0.63146,-0.06866,0.16860,-0.96967,-1.73899,-5.94012,14.27587,2.19388,-0.94169,0.15718,0.12453,-0.27019,33.54702,30.89192,-65.22438
-0.89199,1.54197,-0.39015,0.27848,0.83845,-0.03427,0.34354,-0.65049,-2.72526,-3.80835,15.27843,2.12877,-0.93543,0.19730,0.14166,-0.25686,26.00129,28.45956,-68.92965
-0.89012,1.56456,-0.38867,0.24984,0.99616,-0.00596,0.34571,-0.61812,-3.39057,-1.69405,16.27903,2.83457,-0.92753,0.23683,0.14991,-0.24724,10.52292,10.10525,-69.52249
-0.88631,1.59755,-0.38501,0.25583,1.26899,0.04744,0.32118,-0.47800,-4.26485,2.32963,17.55798,3.70621,-0.91380,0.28629,0.16451,-0.23651,4.07077,8.13433,-57.09927
-0.87834,1.63274,-0.38057,0.32027,1.52109,0.10194,0.16322,-0.41168,-4.87372,6.83511,18.33997,3.76688,-0.89747,0.33293,0.17548,-0.23004,-2.84492,11.22281,-45.35081
-0.86571,1.67169,-0.37506,0.43865,1.77688,0.16098,-0.19852,-0.51226,-5.42716,10.30956,18.14646,4.04519,-0.87657,0.38327,0.17964,-0.22904,-20.45897,3.39310,-40.52327
-0.84870,1.71223,-0.36914,0.59633,2.00423,0.21395,-0.65897,-0.80231,-5.56428,12.14960,15.84501,4.79988,-0.85683,0.42653,0.17246,-0.23274,-29.85606,-11.85358,-30.12683
-0.82599,1.75702,-0.36140,0.80444,2.24673,0.28247,-0.98263,-0.30021,-6.20007,18.43107,19.48137,5.57113,-0.82375,0.47737,0.19197,-0.23812,-18.38518,41.05587,-33.75672
-0.79615,1.80538,-0.35262,1.07317,2.49241,0.35223,-1.32777,-0.18444,-7.12935,20.04571,15.08661,4.26054,-0.78038,0.54101,0.20365,-0.23841,0.69597,10.72953,-77.98138
-0.75677,1.85617,-0.34178,1.42992,2.72492,0.43867,-1.94355,0.16887,-7.91525,25.01456,14.03612,6.11628,-0.72649,0.60196,0.21674,-0.25076,-31.86712,30.80527,-52.98452
-0.71093,1.90606,-0.33059,1.81365,2.90044,0.51338,-2.09403,0.76231,-8.54435,29.96452,11.44619,5.41159,-0.66933,0.65425,0.24150,-0.25618,4.28688,36.95252,-51.53276
-0.65542,1.95560,-0.31894,2.26182,3.03627,0.58001,-2.07854,1.35285,-9.20473,34.45235,8.25056,4.37255,-0.60449,0.70368,0.27061,-0.25727,20.16248,29.63776,-51.38194
-0.59030,2.00407,-0.30719,2.75718,3.12555,0.63356,-1.99788,1.86093,-10.06119,37.32051,4.43244,3.40355,-0.52664,0.75354,0.30149,-0.25285,17.26392,20.59397,-63.43888
-0.51362,2.09100,-0.28957,2.75718,3.12555,0.63356,-1.99788,1.86093,-10.06119,37.32051,4.43244,3.40355,-0.40128,0.82089,0.32630,-0.24218,18.49535,11.95409,-65.28145
-0.46034,2.13590,-0.27949,2.90603,3.14039,0.64633,-1.94785,2.00824,-10.33390,38.10882,3.16435,3.24577,-0.32244,0.85067,0.34420,-0.23222,16.06822,6.22423,-69.18980
-0.23574,2.14965,-0.26069,5.05119,2.68450,0.73859,-0.12344,3.18890,-15.09499,51.66968,-29.01313,0.24852,-0.07305,0.88157,0.44885,-0.12664,11.48210,-13.85982,-117.35670
-0.11235,2.15366,-0.25002,5.79253,2.15482,0.72914,0.43082,3.35549,-16.98526,54.41719,-49.71196,-2.31004,0.08984,0.87222,0.47648,-0.06423,3.25693,-12.92382,-135.15750
0.02560,2.11145,-0.24418,6.59985,1.11920,0.66442,0.73171,3.82791,-19.26407,42.91128,-82.01582,-6.90422,0.27750,0.82835,0.48666,-0.00028,-5.99476,9.47716,-157.70730
0.14642,2.03356,-0.24257,7.01863,-0.21470,0.55434,0.98960,4.76356,-20.29798,14.09260,-107.20760,-9.58033,0.43968,0.75530,0.48476,0.03473,45.71706,22.33000,-108.66160
0.24451,1.94928,-0.24249,7.02924,-1.34205,0.44736,1.65150,5.19273,-20.31132,-11.93149,-115.82770,-11.35842,0.56118,0.66808,0.48423,0.06535,58.29898,-26.91954,-51.93101
0.30133,1.80098,-0.25228,6.46164,-3.10755,0.22780,2.55684,5.07250,-19.38233,-56.40123,-99.77782,-15.09024,0.64206,0.58154,0.49127,0.09071,2.79423,-68.63184,10.57680
0.31125,1.66387,-0.26658,5.34209,-4.41596,-0.01295,2.95541,4.63225,-17.18832,-80.52039,-62.42709,-13.96488,0.68227,0.52685,0.49733,0.09798,1.77701,-78.65053,98.69591
0.31418,1.56251,-0.27736,4.34864,-4.97906,-0.15913,2.99948,4.01322,-14.97147,-83.74542,-33.95861,-10.00714,0.70754,0.48810,0.50032,0.10401,-15.78085,-79.86395,164.25920
0.22982,1.47048,-0.29270,2.12908,-5.29266,-0.35209,2.93990,2.39566,-11.21475,-64.67633,7.84276,-4.33975,0.68341,0.49147,0.52976,0.10372,-31.07822,-61.72558,102.70730
0.22527,1.34201,-0.30640,1.21654,-5.02117,-0.40625,1.47194,2.00166,-10.17189,-49.94268,22.28606,-1.34885,0.75021,0.41450,0.49048,0.15747,-58.04716,0.38137,58.76585
0.20426,1.30031,-0.31307,0.66797,-4.60934,-0.41727,-2.56552,2.31834,-8.61587,-26.99460,31.86560,2.45007,0.75917,0.46755,0.39383,0.22350,-167.76520,147.93040,102.71210
0.19858,1.27227,-0.31321,0.45204,-4.08940,-0.33155,-6.09358,2.10318,-3.89203,-19.23453,28.96752,5.79960,0.68751,0.60370,0.31707,0.24969,-199.60830,229.03060,428.23580
0.19229,1.24246,-0.30802,0.26884,-3.69911,-0.18639,-8.11504,1.68268,-1.93613,-11.62389,29.85072,10.98342,0.63558,0.66850,0.24604,0.29768,-183.00830,83.29276,82.45827
0.18284,1.21322,-0.29777,0.07604,-3.37801,0.00184,-7.42597,0.92954,-0.17568,-12.97776,21.24446,12.73452,0.59113,0.70730,0.23893,0.30528,9.88007,65.69798,150.97240
0.17201,1.17891,-0.28674,-0.09505,-3.19844,0.16000,-5.49501,-0.63120,-0.15073,-16.30178,13.05174,10.75688,0.57715,0.69419,0.27989,0.32659,129.38790,-92.36358,89.83255
0.15422,1.14546,-0.27616,-0.33067,-3.04345,0.27785,-1.91070,-2.02226,-0.70474,-14.50603,8.88867,3.11992,0.59370,0.64168,0.36747,0.31739,209.96670,-117.30730,4.76634
0.13765,1.11052,-0.27114,-0.50443,-2.93577,0.29386,1.00429,-2.44305,-1.08490,-12.22081,6.18787,0.47314,0.61484,0.58958,0.43742,0.28815,236.44670,-58.58965,9.79557
0.12117,1.07693,-0.26919,-0.64012,-2.83223,0.26305,1.84277,-2.44170,-1.30212,-11.49554,7.64709,-1.90620,0.62495,0.55936,0.46641,0.28108,130.56450,-22.88023,0.25293
0.09794,1.05997,-0.27478,-0.85925,-2.48047,0.11843,-0.48185,-1.31246,-1.44955,-4.98558,15.37841,-5.47344,0.62682,0.57973,0.41635,0.31251,-104.81340,56.13513,-15.46677
0.06928,1.00669,-0.27625,-0.92734,-2.26007,0.05207,-1.65372,-0.54450,-1.21301,-4.57090,16.31295,-4.18211,0.62311,0.59396,0.37721,0.34156,-88.01765,69.20155,5.13418
0.05208,0.99042,-0.27849,-0.98786,-2.04744,0.01083,-2.48329,-0.05024,-1.11844,-3.74949,14.99925,-2.63750,0.61807,0.60996,0.34108,0.36001,-64.10568,46.55860,2.00271
0.03511,0.97739,-0.28004,-1.03444,-1.82783,-0.01305,-2.84311,0.28061,-1.23667,-1.89269,14.04099,-1.22270,0.61862,0.61614,0.31084,0.37558,-27.36638,26.18292,-10.45969
0.01942,0.96375,-0.28055,-1.05440,-1.66145,-0.01783,-2.54514,0.29708,-1.24072,-0.91339,15.12141,-0.98778,0.62118,0.61435,0.30022,0.38286,4.23516,4.54640,-8.74350
0.00429,0.95891,-0.28088,-1.06076,-1.39773,-0.01932,-1.71107,0.30165,-0.96974,0.89122,14.53000,0.63898,0.62583,0.61176,0.30640,0.37444,53.55948,-2.89702,14.13338
-0.00892,0.95156,-0.28072,-1.03874,-1.22152,-0.01349,-1.59713,0.40455,-0.74555,2.53453,14.17775,1.35707,0.62428,0.61672,0.29831,0.37543,24.52601,6.95172,16.69455
-0.02118,0.94473,-0.27998,-1.00908,-1.08021,-0.00091,-1.69288,0.50976,-0.57185,3.20106,13.72443,1.91620,0.62034,0.62408,0.28545,0.37978,-0.99848,12.92076,17.20595
-0.03147,0.94659,-0.27699,-0.95757,-0.84465,0.04031,-2.10072,0.55359,-0.38858,2.33141,12.32510,2.78454,0.61013,0.63527,0.26647,0.39136,-20.98525,6.20374,11.99423
