posX, posY, posZ, velX, velY, velZ, angVelX, angVelY, angVelZ, accX, accY, accZ, rotX, rotY, rotZ, rotW, angAccX, angAccY, angAccZ
-0.22162,1.39637,-0.50756,0.00561,0.18161,-0.18282,0.15904,-0.09875,0.14683,-0.23291,-1.04822,1.19341,0.16099,0.90588,0.31033,0.23908,0.55992,2.17029,-2.81757
-0.22186,1.39783,-0.50904,0.00148,0.16656,-0.16793,0.11162,-0.12721,0.12442,-0.31753,-1.04830,1.07574,0.16013,0.90568,0.31018,0.24059,-2.61077,-0.69802,-1.23278
-0.22319,1.39911,-0.51006,-0.02071,0.14988,-0.14731,-0.07484,-0.13789,0.16795,-1.07687,-0.44560,0.51891,0.15691,0.90719,0.30648,0.24178,-6.88040,-0.54719,3.15808
-0.22478,1.40294,-0.51372,-0.03526,0.14475,-0.14091,-0.20164,-0.15965,0.21895,-1.02456,-0.30792,0.42757,0.15107,0.90881,0.30299,0.24380,-9.80705,-2.52795,4.24705
-0.22622,1.40475,-0.51515,-0.04855,0.14161,-0.13330,-0.28304,-0.16460,0.27436,-0.87047,-0.13310,0.59092,0.14654,0.91027,0.30018,0.24458,-6.66435,-0.53015,3.24415
-0.22773,1.40654,-0.51635,-0.06003,0.13890,-0.12375,-0.31646,-0.16306,0.32862,-0.77545,-0.21241,0.64847,0.14201,0.91149,0.29839,0.24492,-3.49136,-0.71890,4.04276
-0.22912,1.40824,-0.51742,-0.06780,0.13551,-0.11449,-0.28199,-0.12327,0.37142,-0.54176,-0.31030,0.70890,0.13839,0.91239,0.29833,0.24372,0.77407,2.03951,3.69776
-0.23043,1.40982,-0.51806,-0.07204,0.13099,-0.10062,-0.19163,-0.04189,0.38244,-0.01942,-0.28570,0.94338,0.13656,0.91295,0.29980,0.24082,5.55245,5.89389,1.19455
-0.23128,1.41145,-0.51859,-0.06919,0.12800,-0.08805,-0.12994,-0.01329,0.36720,0.40935,-0.19020,0.91748,0.13500,0.91319,0.30093,0.23939,4.56720,3.01285,-0.54592
-0.23182,1.41319,-0.51916,-0.06269,0.12745,-0.07867,-0.10036,-0.01107,0.32242,0.62383,0.06966,0.67859,0.13411,0.91328,0.30128,0.23908,2.94060,0.32943,-2.97036
-0.23215,1.41540,-0.51973,-0.05435,0.13335,-0.07165,-0.05560,0.03556,0.25895,0.50724,0.76389,0.25288,0.13480,0.91339,0.30186,0.23757,3.04521,1.94168,-4.98601
-0.23257,1.41833,-0.52046,-0.04873,0.14850,-0.06836,0.02821,0.12832,0.21993,0.27357,1.26608,0.07309,0.13602,0.91351,0.30377,0.23392,4.56510,5.62755,-2.25090
-0.23266,1.42416,-0.52133,-0.03807,0.21115,-0.06779,0.29644,0.31061,0.20181,0.54249,3.29944,-0.20714,0.13917,0.91260,0.31064,0.22651,10.20335,5.75404,0.31434
-0.23334,1.43317,-0.52347,-0.03229,0.25577,-0.07160,0.45350,0.44328,0.20927,0.35627,4.24654,-0.61024,0.14132,0.91198,0.31881,0.21603,12.07472,8.63409,-0.32485
-0.23373,1.44130,-0.52518,-0.03133,0.32033,-0.08191,0.56229,0.60069,0.25535,-0.19845,5.12115,-0.77862,0.14280,0.91200,0.32464,0.20611,10.27909,12.90466,2.34697
-0.23521,1.45320,-0.52767,-0.04645,0.42838,-0.10177,0.54910,0.67628,0.40594,-1.41982,7.14588,-1.10450,0.13948,0.91316,0.32836,0.19711,-0.01121,4.77493,7.18847
-0.23776,1.46633,-0.53020,-0.07482,0.53543,-0.11859,0.52468,0.67139,0.64058,-2.48413,8.45827,-1.25776,0.13179,0.91443,0.33268,0.18912,-2.02765,-1.20787,15.91051
-0.24115,1.48104,-0.53279,-0.10901,0.64190,-0.13242,0.57580,0.77314,0.84463,-3.42967,9.46735,-1.43010,0.12503,0.91554,0.33870,0.17732,2.26802,1.73888,17.15761
-0.24649,1.49946,-0.53564,-0.16365,0.77809,-0.14700,0.69341,1.05912,1.08552,-4.48090,10.21554,-0.91828,0.11848,0.91706,0.34663,0.15753,8.68904,18.77192,17.58138
-0.25414,1.52161,-0.53834,-0.24212,0.94359,-0.15650,0.67104,1.19143,1.38888,-5.25588,10.43985,0.16315,0.10679,0.91934,0.35195,0.13976,1.65107,13.40097,18.71302
-0.26225,1.54317,-0.54054,-0.31209,1.06739,-0.15684,0.55406,1.09786,1.63295,-6.27789,10.29715,0.29648,0.09208,0.92140,0.35489,0.12885,-6.07284,-6.90648,19.48900
-0.27313,1.56773,-0.54220,-0.40664,1.20677,-0.14915,0.45445,0.98978,1.95545,-7.26039,9.88433,0.84151,0.07266,0.92337,0.35821,0.11744,-5.74579,-10.59971,22.10562
-0.28706,1.59482,-0.54278,-0.52791,1.35702,-0.12705,0.42394,0.90641,2.37307,-7.98464,9.10400,1.76711,0.04860,0.92453,0.36348,0.10373,0.24286,-6.68066,25.70758
-0.29991,1.61968,-0.54310,-0.60740,1.44342,-0.10610,0.47492,0.90402,2.63134,-8.11861,8.43890,2.20332,0.02787,0.92429,0.37025,0.08848,4.23097,-3.81710,26.65678
-0.31630,1.64782,-0.54179,-0.71799,1.55494,-0.06695,0.65564,1.07731,2.92351,-8.17337,7.69474,2.90154,0.00680,0.92219,0.38103,0.06582,9.99111,7.67090,22.11600
-0.33430,1.67669,-0.53906,-0.82972,1.65536,-0.01556,0.95329,1.49851,3.14399,-8.25748,6.71646,4.01153,-0.00949,0.91782,0.39547,0.03356,15.67273,30.50920,16.84797
-0.35409,1.70586,-0.53480,-0.94533,1.74127,0.04699,1.19048,1.83184,3.34955,-8.34994,5.55741,5.25456,-0.02672,0.91192,0.40949,0.00105,13.16047,31.73510,15.22957
-0.37710,1.73540,-0.52807,-1.08461,1.81467,0.13282,1.38144,1.92133,3.58622,-8.86126,3.54450,6.03617,-0.04864,0.90421,0.42348,-0.02650,12.00946,10.71620,14.42800
-0.39977,1.76301,-0.52115,-1.19171,1.84753,0.20463,1.48784,1.83836,3.74275,-8.90060,1.91587,6.37173,-0.07172,0.89601,0.43554,-0.04827,12.17769,-1.71244,12.16723
-0.42531,1.78988,-0.51198,-1.31581,1.86326,0.29262,1.62286,1.70588,3.89274,-8.93302,0.29578,6.32093,-0.09650,0.88588,0.44863,-0.06803,13.45456,-8.73172,8.61360
-0.45366,1.81517,-0.50069,-1.45529,1.85195,0.39406,1.76425,1.73419,4.04258,-8.80462,-1.86907,6.18803,-0.12025,0.87382,0.46198,-0.09246,10.69114,1.19013,8.13531
-0.48342,1.83797,-0.48835,-1.59233,1.80775,0.49316,1.82204,1.86599,4.21899,-8.41311,-3.79512,6.31223,-0.14379,0.86092,0.47276,-0.12101,3.67845,9.25356,11.54790
-0.51249,1.85957,-0.47633,-1.69128,1.75495,0.56726,1.80898,1.83181,4.36595,-7.91662,-5.13337,6.48492,-0.16932,0.84795,0.48081,-0.14538,0.79785,1.52198,12.35744
-0.54363,1.87837,-0.46229,-1.79894,1.67398,0.65429,1.80799,1.55652,4.50569,-7.17536,-6.58235,6.49240,-0.19921,0.83431,0.48777,-0.16228,5.42282,-15.92860,9.18383
-0.57548,1.89470,-0.44687,-1.89461,1.57371,0.74336,1.88864,1.20881,4.58765,-6.42546,-7.90954,6.38152,-0.23022,0.81892,0.49597,-0.17432,12.61471,-23.15837,2.42457
-0.60774,1.90826,-0.43033,-1.97691,1.45446,0.83041,2.00756,0.95705,4.64020,-5.56922,-9.28128,5.86215,-0.26031,0.80155,0.50497,-0.18642,15.69440,-17.67301,-0.05188
-0.63973,1.92026,-0.41374,-2.03684,1.33770,0.89939,2.09948,0.86097,4.68230,-4.72272,-10.42359,5.37913,-0.28851,0.78258,0.51353,-0.20153,12.13364,-8.22108,1.04373
-0.67282,1.92629,-0.39529,-2.10124,1.16138,0.98085,2.14604,0.88818,4.77567,-3.62828,-11.77351,4.60658,-0.31612,0.76183,0.52064,-0.22051,4.15267,0.28074,5.17199
-0.70519,1.93023,-0.37713,-2.14336,0.99005,1.04252,2.14240,0.95135,4.86588,-2.43560,-12.78614,4.13732,-0.34264,0.74028,0.52586,-0.24096,-1.62371,3.69105,7.83794
-0.73706,1.93265,-0.35919,-2.16871,0.83259,1.08781,2.15343,0.94684,4.91713,-1.64096,-13.55184,3.49645,-0.36919,0.71775,0.53048,-0.25908,0.99806,1.25053,5.38686
-0.76854,1.93025,-0.34097,-2.18677,0.63945,1.13033,2.19669,0.86948,4.95984,-0.78949,-14.30693,2.71143,-0.39668,0.69404,0.53449,-0.27436,3.44192,-3.65136,2.49981
-0.79890,1.92263,-0.32314,-2.19009,0.40700,1.16246,2.24230,0.72111,5.00369,0.31099,-15.04015,1.49952,-0.42539,0.66965,0.53696,-0.28686,6.92866,-7.27261,0.86600
-0.82857,1.91555,-0.30610,-2.18000,0.22708,1.17577,2.24565,0.60909,5.03985,1.26841,-15.32272,0.83151,-0.45324,0.64476,0.53763,-0.29967,4.26825,-8.95731,1.64466
-0.85627,1.89977,-0.28935,-2.14401,-0.04710,1.18286,2.25247,0.43674,5.08671,2.76655,-15.56293,0.01900,-0.48224,0.61937,0.53629,-0.31020,3.72939,-9.31234,0.49800
-0.88276,1.88505,-0.27325,-2.09727,-0.25929,1.17987,2.29458,0.29536,5.10410,4.09367,-15.25231,-0.32836,-0.51022,0.59276,0.53500,-0.31952,5.17943,-9.04721,0.73450
-0.90770,1.86767,-0.25726,-2.03431,-0.46531,1.17415,2.40028,0.19632,5.08776,5.00345,-14.63261,-0.43460,-0.53723,0.56410,0.53489,-0.32720,9.19101,-5.72573,-2.78507
-0.93167,1.84787,-0.24114,-1.95324,-0.68480,1.16770,2.54287,0.20689,5.05847,6.22774,-13.86059,-0.89070,-0.56188,0.53303,0.53652,-0.33513,9.69867,1.86840,-1.64710
-0.95491,1.82896,-0.22544,-1.88079,-0.84046,1.15673,2.60403,0.29281,5.05065,7.07791,-13.29117,-1.51754,-0.58401,0.50113,0.53720,-0.34528,3.19779,8.82827,-0.41339
-0.97520,1.80597,-0.21080,-1.78211,-1.01493,1.13181,2.65483,0.39437,5.05106,7.98226,-12.45114,-2.42267,-0.60489,0.46765,0.53755,-0.35560,1.50032,7.72101,2.02151
-0.99218,1.78040,-0.19774,-1.66832,-1.18092,1.09240,2.68789,0.46681,5.04632,8.39167,-11.48661,-3.29889,-0.62479,0.43372,0.53686,-0.36510,0.10563,6.67436,0.88396
-1.00632,1.75222,-0.18661,-1.53537,-1.35389,1.03265,2.76032,0.46642,5.03192,8.49761,-10.26240,-4.12588,-0.64499,0.39916,0.53519,-0.37180,3.09145,2.05711,-0.36469
-1.01978,1.72429,-0.17644,-1.41640,-1.48855,0.96924,2.90582,0.42508,4.95823,8.94081,-9.06612,-4.86130,-0.66500,0.36391,0.53401,-0.37441,8.98956,0.61939,-4.24074
-1.03097,1.69559,-0.16799,-1.28907,-1.60733,0.89370,3.10139,0.43917,4.82529,9.54193,-7.99171,-6.01554,-0.68289,0.32771,0.53502,-0.37419,12.26488,6.34627,-8.46293
-1.03979,1.66633,-0.16177,-1.15362,-1.71047,0.80116,3.25764,0.46585,4.72708,9.86775,-6.96216,-7.43046,-0.69958,0.29073,0.53532,-0.37350,11.69465,8.27871,-8.14084
-1.04639,1.63663,-0.15800,-1.01197,-1.79689,0.69054,3.26628,0.44656,4.75766,10.27344,-5.65893,-8.87848,-0.71606,0.25338,0.53083,-0.37588,3.35158,2.68411,-0.39326
-1.05069,1.60711,-0.15683,-0.86635,-1.86362,0.56462,3.16398,0.31688,4.82936,10.71540,-4.02347,-9.54819,-0.73279,0.21809,0.52096,-0.37954,-3.85398,-10.23324,4.26178
-1.05410,1.57842,-0.15693,-0.73926,-1.90260,0.44775,3.10815,0.16608,4.85564,10.75107,-2.39821,-10.07973,-0.74920,0.18320,0.50980,-0.38110,-2.22514,-13.57131,1.63042
-1.05320,1.55054,-0.16170,-0.57608,-1.92324,0.28705,3.14876,-0.04324,4.69899,10.11793,-0.11293,-9.80727,-0.76560,0.15206,0.49915,-0.37628,5.94892,-11.50884,-10.04652
-1.05220,1.52415,-0.16695,-0.44246,-1.91726,0.14973,3.22553,-0.14497,4.49102,9.24768,0.91053,-10.06273,-0.77969,0.12113,0.49094,-0.36931,6.83942,-1.26342,-17.27653
-1.05084,1.49858,-0.17321,-0.33250,-1.90060,0.02776,3.30205,-0.29549,4.38673,9.14641,1.84264,-10.54910,-0.79456,0.08919,0.47941,-0.36178,8.73879,-4.38356,-13.00839
-1.04535,1.47530,-0.18437,-0.18484,-1.85454,-0.14093,3.37527,-0.56680,4.34981,9.17440,3.95441,-10.93610,-0.81118,0.05768,0.46263,-0.35304,10.25598,-11.77801,-5.69172
-1.03961,1.45397,-0.19628,-0.06188,-1.78668,-0.28808,3.37286,-0.91650,4.29607,8.55989,5.79101,-10.41295,-0.82800,0.02924,0.44149,-0.34445,7.58297,-20.89860,-7.64076
-1.03375,1.43428,-0.20837,0.03595,-1.71097,-0.40561,3.40337,-1.18861,4.20135,8.01112,7.00278,-9.21722,-0.84365,0.00168,0.42041,-0.33392,9.04503,-21.92488,-11.74473
-1.02488,1.41892,-0.22367,0.15783,-1.58810,-0.54616,3.54947,-1.35380,4.01801,7.51122,8.60830,-8.11628,-0.85823,-0.02544,0.40177,-0.31840,11.28589,-7.14449,-12.86383
-1.01582,1.40552,-0.23862,0.25894,-1.45835,-0.65414,3.74672,-1.30358,3.82269,7.11360,10.18711,-7.00044,-0.86963,-0.05475,0.38811,-0.30019,14.31433,7.29816,-11.28772
-1.00588,1.39550,-0.25377,0.35219,-1.30630,-0.74296,3.90795,-1.14627,3.63679,6.23380,11.63622,-5.75439,-0.87822,-0.08436,0.37751,-0.28124,10.12146,17.14188,-9.00459
-0.99242,1.39823,-0.27154,0.49224,-0.95881,-0.85928,3.87386,-1.46250,3.46429,4.88634,15.85542,-1.92317,-0.89121,-0.10815,0.35491,-0.26095,-29.28184,-11.74647,6.16665
-0.97494,1.38692,-0.29655,0.54679,-0.73125,-0.87446,2.93333,-1.98196,3.26562,3.05322,16.89816,-1.85824,-0.90531,-0.14143,0.30634,-0.25799,-66.30054,-37.25517,-17.23324
-0.96551,1.39226,-0.30929,0.57331,-0.50345,-0.88287,2.43028,-2.95204,2.94179,1.00975,16.42933,0.73646,-0.91931,-0.13884,0.26014,-0.26060,-16.27852,-74.00125,-41.38368
-0.95748,1.40114,-0.32058,0.57344,-0.26979,-0.86757,2.09163,-3.27925,2.45886,-0.84813,17.40902,2.81364,-0.92873,-0.13486,0.22905,-0.25849,-11.99424,-36.98275,-41.41221
-0.95144,1.41370,-0.33028,0.54431,-0.03024,-0.83227,1.85269,-3.13625,1.81022,-3.16137,17.52423,3.34093,-0.93529,-0.12735,0.21320,-0.25211,-8.93004,9.22947,-45.02084
-0.94798,1.42979,-0.33851,0.48378,0.21213,-0.78322,1.62674,-2.84852,0.99885,-5.33540,17.78089,3.98395,-0.94112,-0.11204,0.20580,-0.24370,-6.03005,25.30199,-54.37841
-0.94703,1.44953,-0.34530,0.39837,0.45816,-0.72247,1.34999,-2.62479,0.03433,-6.77047,18.21577,4.53504,-0.94695,-0.08568,0.20130,-0.23544,-6.17740,25.26714,-65.83311
-0.94741,1.47106,-0.35120,0.31271,0.67695,-0.66224,1.07099,-2.48344,-0.90287,-7.42535,18.98014,5.39590,-0.95212,-0.05238,0.19709,-0.22778,-7.06150,18.14454,-76.21085
-0.95186,1.50438,-0.35328,0.18446,1.02780,-0.55780,0.62979,-2.11529,-2.37864,-6.60811,20.37960,6.31826,-0.95328,0.00359,0.20704,-0.21993,-8.38087,25.72747,-84.55387
-0.95399,1.53475,-0.35599,0.11491,1.26532,-0.48231,0.26570,-2.01313,-3.14236,-5.30462,19.27295,6.27061,-0.95299,0.04803,0.20668,-0.21632,-3.62873,24.51170,-77.25953
-0.95736,1.57914,-0.35382,0.04097,1.67048,-0.34816,-0.61318,-1.84217,-4.80237,-2.14394,25.22670,7.82252,-0.94221,0.12791,0.21589,-0.22196,-31.83424,14.71390,-88.71189
-0.95764,1.62208,-0.35249,0.02864,1.96983,-0.25396,-1.26484,-1.68373,-5.98636,0.51968,24.72730,7.87347,-0.92622,0.20294,0.22297,-0.22630,-34.05249,21.76006,-114.84460
-0.95489,1.67025,-0.34969,0.06416,2.27821,-0.16033,-1.91812,-1.37980,-6.96936,5.28075,26.64664,7.89255,-0.90147,0.27872,0.23432,-0.23403,-31.80526,28.81996,-94.12899
-0.94584,1.72815,-0.34470,0.18467,2.65989,-0.05523,-2.74621,-0.99655,-8.01627,12.06423,27.61125,6.92198,-0.86322,0.36247,0.24879,-0.24814,-30.76064,38.38651,-88.48840
-0.92503,1.79607,-0.33808,0.45741,3.11852,0.05370,-3.76806,-0.42607,-9.03072,22.39643,29.76973,6.50757,-0.80915,0.44809,0.26671,-0.27084,-36.53770,45.23404,-73.73997
-0.89755,1.86371,-0.33280,0.77006,3.47454,0.12036,-4.46999,0.14045,-9.80579,30.24824,29.93360,4.78067,-0.74690,0.52667,0.28475,-0.28926,-25.58589,56.59853,-80.06936
-0.85398,1.93967,-0.32768,1.24960,3.87485,0.16986,-5.21114,0.93782,-10.78597,38.66492,27.38870,2.34505,-0.66356,0.60712,0.30903,-0.30917,-17.60433,51.22927,-92.31629
-0.79544,2.01784,-0.32461,1.85007,4.22778,0.17952,-5.71171,1.81920,-11.90854,47.71732,23.03765,-0.73485,-0.56217,0.68329,0.33723,-0.32149,-3.19100,38.31667,-96.45926
-0.71987,2.09577,-0.32494,2.57412,4.50085,0.13722,-5.85599,2.74111,-13.26190,56.92091,15.86113,-4.85492,-0.44039,0.75244,0.37063,-0.32019,7.09536,30.35375,-110.94420
-0.62534,2.16845,-0.33049,3.42738,4.64341,0.02802,-5.50965,3.40374,-14.91735,66.96172,4.40282,-10.09388,-0.30128,0.81169,0.40507,-0.29377,10.76491,-16.48579,-122.25530
-0.51015,2.22926,-0.34198,4.40900,4.58596,-0.14522,-4.87590,3.72967,-16.89876,75.85717,-13.61664,-14.62390,-0.14248,0.85572,0.43516,-0.24099,-13.72091,-42.13283,-140.09410
-0.29279,2.21000,-0.38422,6.78011,3.15019,-0.72490,-4.56424,3.27964,-21.26697,71.46134,-90.40720,-21.76941,0.08451,0.88338,0.44218,-0.13028,-64.09904,-13.59333,-125.58580
-0.04319,2.18825,-0.42863,7.57085,1.60034,-1.00461,-4.48830,2.72952,-21.79181,36.01258,-125.46080,-14.54970,0.37293,0.83890,0.39639,-0.00682,-52.88449,6.75544,-63.45090
0.07905,2.09734,-0.45489,7.78060,0.00397,-1.14518,-3.95236,1.52832,-21.34576,-2.74502,-135.33020,-5.99282,0.47241,0.79606,0.37066,0.07572,-66.49415,-38.03444,44.29921
0.15879,1.95678,-0.47115,7.34009,-2.04659,-1.14425,-3.35522,0.69977,-19.68584,-51.23554,-117.16640,3.85080,0.53341,0.75747,0.35199,0.13349,-60.52554,-32.34979,109.63900
0.20376,1.82995,-0.47999,6.48330,-3.49561,-1.03709,-2.39873,1.60988,-17.87745,-73.07850,-88.69254,9.02148,0.60031,0.70861,0.34508,0.13569,87.80112,-29.73251,120.02990
0.23034,1.71919,-0.48595,5.54619,-4.39332,-0.91179,-1.35153,2.14587,-16.22151,-83.11597,-61.88606,11.91229,0.65656,0.65737,0.34428,0.13516,116.27480,-57.07008,114.20900
0.21470,1.60978,-0.48659,4.19316,-5.09049,-0.73537,0.13155,2.25696,-13.88133,-85.05025,-27.50801,9.63506,0.68398,0.61857,0.36726,0.12114,70.72650,-92.24222,130.27900
0.20791,1.52467,-0.49000,3.23920,-5.28732,-0.63424,1.08577,2.88981,-12.14492,-75.53556,-6.55436,7.67663,0.72077,0.57736,0.37201,0.09355,97.76767,-66.47739,129.21450
0.18887,1.45297,-0.49028,2.32204,-5.25555,-0.51015,2.54529,3.48294,-10.86334,-58.53527,8.62544,10.75285,0.75765,0.52168,0.38882,0.05130,129.99020,-62.30860,78.13492
0.17134,1.39485,-0.48580,1.61225,-5.04221,-0.34126,2.16598,3.30682,-9.80953,-41.58012,17.47235,17.05618,0.78456,0.49009,0.37650,0.05022,41.98117,-21.94880,59.33230
0.16510,1.35422,-0.47368,1.20728,-4.61443,-0.09698,-0.58491,1.29745,-5.04178,-20.84940,26.46965,20.23341,0.71320,0.59269,0.36306,0.09078,-155.16630,-81.40590,253.84440
0.16561,1.31284,-0.45930,0.97715,-4.29029,0.12682,-4.87107,-0.30634,-2.85606,-19.94088,27.43723,18.88209,0.65249,0.67330,0.28474,0.19961,-369.74600,71.69641,268.87870
0.16033,1.27720,-0.43966,0.71452,-3.95990,0.37727,-7.39077,-1.29277,-0.47253,-21.12868,23.07969,13.83846,0.56928,0.74326,0.21998,0.27403,-266.33070,27.98931,189.97470
0.15164,1.23745,-0.42071,0.45507,-3.74858,0.56919,-7.01951,-1.86523,-0.17747,-20.22070,14.09210,9.40036,0.54242,0.75119,0.20788,0.31350,-38.23671,-0.55959,69.27283
0.13922,1.19430,-0.40385,0.19382,-3.62511,0.69377,-4.60507,-2.39093,-1.21444,-18.82871,9.10151,4.58458,0.56694,0.71391,0.24855,0.32730,146.33370,-77.14510,-16.49811
0.12397,1.15279,-0.39162,-0.05911,-3.50306,0.73077,-1.25576,-2.35826,-2.10646,-13.91063,7.17623,0.25352,0.60998,0.66293,0.31365,0.30013,226.03110,-38.02829,-18.55742
0.11109,1.11268,-0.38399,-0.23179,-3.37919,0.69519,0.37901,-2.18919,-2.43923,-11.38902,8.53070,-2.53134,0.63460,0.62785,0.34844,0.28581,153.90420,-16.96395,-8.55079
0.09705,1.07642,-0.37945,-0.38670,-3.22618,0.62254,0.54247,-1.88425,-2.44972,-10.48765,10.96808,-4.88983,0.64603,0.61215,0.35293,0.28870,38.02563,11.98138,1.73828
0.08296,1.04435,-0.37723,-0.51290,-3.04679,0.53309,-0.18594,-1.42327,-2.31716,-8.00494,13.27050,-6.04347,0.64981,0.61177,0.33350,0.30375,-32.96173,35.60236,1.82311
0.06833,1.01615,-0.37688,-0.62179,-2.84516,0.43398,-1.47129,-0.79323,-2.07461,-7.98221,14.62890,-7.15513,0.64627,0.62436,0.29296,0.32664,-78.37463,55.69637,6.94049
0.05116,0.99260,-0.37972,-0.74590,-2.61490,0.30639,-2.98699,0.14809,-1.87260,-7.59968,13.87071,-8.75327,0.63979,0.64416,0.23157,0.34944,-89.36053,69.44159,3.34342
0.03577,0.96708,-0.38284,-0.82046,-2.46111,0.20152,-3.93321,1.02298,-1.83617,-5.31534,12.34808,-8.96550,0.63712,0.65729,0.17167,0.36411,-74.06313,78.72324,-10.78093
0.02116,0.94279,-0.38730,-0.86666,-2.32184,0.10148,-4.61371,1.89744,-1.82206,-2.62494,11.68409,-8.34956,0.63423,0.66912,0.10758,0.37209,-61.18932,82.74977,-17.45546
0.00695,0.92308,-0.39297,-0.89871,-2.14643,0.00455,-4.44973,2.67000,-1.77071,-1.08899,11.98388,-5.89718,0.63816,0.67678,0.05871,0.36233,-2.82864,55.33599,-14.99478
-0.00666,0.90484,-0.39532,-0.91715,-1.98302,-0.02767,-2.88631,2.68546,-1.72298,-0.85580,13.18468,-1.56367,0.65718,0.67177,0.05855,0.33677,87.30291,3.23002,-16.07772
-0.02072,0.89219,-0.39357,-0.93751,-1.76719,0.00540,-0.80929,2.04729,-1.68442,-1.14549,14.04412,5.19098,0.68272,0.65615,0.09266,0.30786,138.34440,-55.18982,-16.41161
-0.03446,0.88230,-0.38861,-0.94875,-1.55291,0.07777,-0.41813,1.44297,-1.46576,0.11723,15.12763,8.01055,0.68768,0.64989,0.10137,0.30734,59.05853,-51.41929,3.12299
-0.04740,0.87425,-0.38273,-0.94648,-1.35917,0.14728,-1.13309,1.08217,-1.04470,0.74478,15.79564,6.45915,0.67525,0.65579,0.08622,0.32641,-36.92966,-30.13174,35.64964
-0.05936,0.87069,-0.37635,-0.92996,-1.14193,0.20857,-2.14504,0.93342,-0.49318,1.38170,15.13274,2.79819,0.65190,0.66921,0.05944,0.35163,-76.85646,-5.68364,47.86882
-0.06965,0.86986,-0.37134,-0.89211,-0.92711,0.23789,-2.16154,0.79070,-0.05681,3.02099,12.74366,-0.88971,0.63794,0.67900,0.05117,0.35969,-20.63431,-1.09117,34.08918
-0.07785,0.86855,-0.36729,-0.83103,-0.75739,0.24919,-0.93330,0.38834,-0.01967,3.88140,9.82559,0.84419,0.64613,0.67514,0.07445,0.34808,74.65098,-21.82628,4.67804
-0.08615,0.86557,-0.36252,-0.78271,-0.64573,0.26827,-0.11919,-0.04543,-0.10332,4.16679,9.13068,2.54845,0.65439,0.66728,0.09556,0.34261,78.91333,-33.96156,-5.66011
-0.09308,0.86560,-0.35648,-0.72538,-0.51488,0.30138,0.35795,-0.58895,-0.13445,4.17460,9.23293,3.37362,0.65900,0.65783,0.11810,0.34501,47.02012,-40.48356,-3.63045
-0.09884,0.86742,-0.35012,-0.66270,-0.38503,0.33231,0.17650,-0.97733,-0.09030,5.21762,8.91388,2.42062,0.65536,0.65231,0.12746,0.35881,-2.46737,-31.47469,1.97700
-0.10317,0.86962,-0.34466,-0.59245,-0.27686,0.34357,-0.32348,-1.12571,0.00785,6.43492,9.00579,0.43620,0.64637,0.65140,0.12553,0.37699,-33.92680,-18.87899,2.60518
-0.10497,0.87486,-0.34076,-0.50048,-0.14906,0.32992,-0.77614,-1.13599,0.19908,6.88720,9.44352,-2.70816,0.63400,0.65460,0.12089,0.39361,-43.57262,-1.83437,9.21966
-0.10531,0.88181,-0.33908,-0.40659,-0.02240,0.28795,-0.60195,-1.10113,0.39081,6.44301,9.22278,-4.49466,0.62780,0.65729,0.12844,0.39666,-0.85013,2.04656,14.57988
-0.10433,0.89132,-0.33971,-0.31097,0.11729,0.22075,0.07172,-1.05411,0.57226,5.73456,8.66534,-4.53708,0.62804,0.65859,0.14838,0.38706,38.87890,4.99284,14.38670
-0.10329,0.90109,-0.34062,-0.23194,0.23450,0.16166,0.61423,-1.00255,0.72800,5.67517,8.28424,-3.86393,0.62801,0.65977,0.16814,0.37688,42.43371,5.43656,13.83192
-0.10208,0.91134,-0.34167,-0.16755,0.33383,0.11366,0.77185,-0.91862,0.87445,5.26110,8.13596,-3.35755,0.62408,0.66309,0.18100,0.37159,24.11267,6.21423,14.25353
-0.09864,0.92514,-0.34413,-0.08434,0.46368,0.05534,0.60819,-0.77360,1.07387,5.24647,7.89552,-3.33532,0.61490,0.67067,0.18654,0.37055,-7.92372,7.39253,12.71051
-0.09503,0.93916,-0.34679,-0.01395,0.57204,0.00496,0.32085,-0.61542,1.24995,4.82226,7.62574,-3.73544,0.60352,0.67988,0.18768,0.37190,-21.40388,8.79701,11.55434
-0.09157,0.95334,-0.34993,0.03904,0.65995,-0.04131,0.11828,-0.45552,1.39688,4.08087,7.22969,-4.19378,0.59232,0.68950,0.18862,0.37171,-21.59672,10.28560,12.02441
-0.08672,0.97081,-0.35548,0.10172,0.77889,-0.11409,0.04658,-0.20260,1.58432,2.88426,6.24570,-4.19958,0.58121,0.70148,0.18982,0.36619,-7.03696,12.99236,10.60554
-0.08361,0.98581,-0.35972,0.12669,0.83799,-0.15295,0.04975,-0.06001,1.67734,2.12439,5.72932,-3.77827,0.57186,0.71098,0.19312,0.36083,-1.03812,14.33118,9.56513
-0.08040,1.00289,-0.36526,0.14758,0.91319,-0.20155,0.02529,0.12926,1.81719,0.97435,5.12408,-3.25735,0.56080,0.72286,0.19488,0.35357,-3.93361,13.38454,9.76977
-0.07817,1.02085,-0.37105,0.15052,0.98759,-0.24413,0.11872,0.28230,1.99302,-0.53111,4.29843,-2.32387,0.54943,0.73495,0.20013,0.34339,2.68178,10.79293,11.08737
-0.07750,1.03863,-0.37618,0.13093,1.04528,-0.27007,0.25077,0.39952,2.14659,-1.83740,2.98347,-1.04149,0.53824,0.74645,0.20709,0.33200,7.98280,8.86454,10.45349
-0.07750,1.05515,-0.38038,0.10552,1.07374,-0.27726,0.28104,0.46294,2.22007,-2.44703,1.71961,0.02129,0.52704,0.75684,0.21220,0.32310,5.03691,6.57198,7.02023
-0.07868,1.07115,-0.38389,0.06838,1.08843,-0.27256,0.12521,0.47345,2.24499,-2.92296,0.19348,1.05892,0.51418,0.76714,0.21318,0.31885,-6.38218,1.62142,3.28013
