posX, posY, posZ, velX, velY, velZ, angVelX, angVelY, angVelZ, accX, accY, accZ, rotX, rotY, rotZ, rotW, angAccX, angAccY, angAccZ
-0.20141,1.11573,-0.43705,0.00859,0.18723,0.02850,0.01919,-0.06310,0.46009,-0.21133,-0.04892,0.31171,-0.40736,-0.83239,-0.08016,-0.36709,1.41255,-1.53296,-0.95779
-0.20148,1.11830,-0.43634,0.00457,0.18843,0.03287,0.09771,-0.05766,0.47104,-0.22214,0.21101,0.15812,-0.40540,-0.83352,-0.08384,-0.36587,5.03622,0.38578,-0.10527
-0.20162,1.12107,-0.43579,0.00120,0.19111,0.03416,0.16028,-0.04739,0.49896,-0.32390,0.22880,0.04684,-0.40290,-0.83497,-0.08772,-0.36442,5.44827,0.78132,2.36484
-0.20185,1.12375,-0.43527,-0.00350,0.19299,0.03450,0.21989,-0.02988,0.53832,-0.32563,0.01803,0.08426,-0.40005,-0.83673,-0.09201,-0.36247,4.99426,1.25772,2.53632
-0.20202,1.12615,-0.43469,-0.00635,0.19019,0.03576,0.23894,-0.03360,0.55580,-0.16294,-0.42033,0.15409,-0.39714,-0.83815,-0.09554,-0.36146,1.35410,0.21245,2.22059
-0.20209,1.12816,-0.43402,-0.00682,0.18190,0.03827,0.27443,-0.04220,0.52301,-0.05277,-0.72649,0.18038,-0.39581,-0.83878,-0.09913,-0.36049,1.92195,-0.97403,-1.69483
-0.20210,1.12978,-0.43323,-0.00649,0.16995,0.04154,0.30179,-0.05870,0.46197,0.02790,-0.93848,0.31222,-0.39546,-0.83881,-0.10244,-0.35988,3.30130,-0.43703,-4.08063
-0.20207,1.13114,-0.43242,-0.00571,0.15655,0.04443,0.28660,-0.07843,0.40774,0.05246,-0.94017,0.19439,-0.39479,-0.83879,-0.10470,-0.36000,-0.41471,-1.52686,-3.90033
-0.20202,1.13228,-0.43166,-0.00443,0.14197,0.04638,0.25034,-0.09350,0.37062,0.10551,-0.87643,0.06154,-0.39367,-0.83894,-0.10636,-0.36042,-1.95043,-1.27392,-2.68449
-0.20193,1.13344,-0.43102,-0.00300,0.13046,0.04605,0.22880,-0.09371,0.34074,0.09561,-0.76402,-0.09785,-0.39265,-0.83920,-0.10805,-0.36040,-1.83797,-0.25712,-2.20909
-0.20191,1.13469,-0.43046,-0.00257,0.12283,0.04467,0.20007,-0.08850,0.33485,0.03260,-0.76757,-0.13524,-0.39099,-0.83982,-0.10953,-0.36033,-2.13420,0.45717,-1.07703
-0.20183,1.13535,-0.43014,-0.00199,0.10867,0.04009,0.11342,-0.08584,0.32642,0.02246,-0.78439,-0.41771,-0.38864,-0.84058,-0.10913,-0.36121,-5.35607,-0.13914,-0.56572
-0.20176,1.13616,-0.42989,-0.00177,0.09963,0.03513,0.10003,-0.05608,0.30991,-0.06124,-0.72619,-0.57562,-0.38734,-0.84136,-0.10986,-0.36057,-3.02502,1.38352,-0.85883
-0.20175,1.13674,-0.42989,-0.00259,0.08951,0.02772,0.10783,-0.01398,0.29314,-0.09569,-0.72520,-0.55469,-0.38646,-0.84225,-0.11083,-0.35914,0.70835,3.06129,-1.05835
-0.20179,1.13704,-0.43008,-0.00361,0.07675,0.01891,0.11469,0.03475,0.27062,-0.03510,-0.84866,-0.55676,-0.38588,-0.84320,-0.11151,-0.35731,0.30925,3.03374,-1.02471
-0.20170,1.13724,-0.43023,-0.00260,0.06486,0.01248,0.15169,0.06756,0.22753,0.10758,-0.86443,-0.47041,-0.38636,-0.84363,-0.11284,-0.35535,1.28549,2.32219,-3.11398
-0.20153,1.13723,-0.43036,-0.00059,0.05239,0.00763,0.19447,0.08743,0.17734,0.12890,-0.96083,-0.24078,-0.38745,-0.84373,-0.11445,-0.35341,3.46973,2.35863,-3.35501
-0.20136,1.13712,-0.43040,0.00152,0.04067,0.00526,0.22443,0.09331,0.12445,0.18374,-1.01055,-0.17301,-0.38884,-0.84353,-0.11593,-0.35187,2.24846,0.25967,-3.75517
-0.20102,1.13657,-0.43038,0.00539,0.02541,0.00406,0.29521,0.09894,0.04368,0.27064,-0.86396,-0.01820,-0.39193,-0.84264,-0.11828,-0.34980,4.42686,0.92738,-5.65408
-0.20070,1.13614,-0.43032,0.00835,0.01447,0.00384,0.30906,0.10529,-0.00847,0.20380,-0.69605,0.06230,-0.39418,-0.84208,-0.11955,-0.34819,2.40942,0.59587,-4.62024
-0.20046,1.13575,-0.43029,0.00981,0.00687,0.00300,0.25752,0.09540,-0.03253,0.08273,-0.39909,-0.05590,-0.39498,-0.84182,-0.11925,-0.34802,-2.60884,-0.85535,-2.30205
-0.20047,1.13551,-0.43034,0.00964,0.00312,0.00172,0.19362,0.08644,-0.03117,-0.04828,-0.32907,-0.10003,-0.39418,-0.84195,-0.11777,-0.34910,-5.32289,-0.95782,-0.31276
-0.20054,1.13532,-0.43041,0.00860,-0.00097,-0.00102,0.06942,0.07219,-0.02456,-0.07485,-0.19193,-0.17301,-0.39307,-0.84215,-0.11590,-0.35051,-7.54738,-0.76769,0.31109
-0.20037,1.13511,-0.43042,0.00698,-0.00404,-0.00276,-0.03777,0.05652,-0.00028,-0.11082,-0.20077,-0.11159,-0.39260,-0.84238,-0.11509,-0.35075,-7.30152,-0.98015,1.59716
-0.20019,1.13487,-0.43043,0.00604,-0.00659,-0.00284,-0.05888,0.04381,-0.00010,-0.07951,-0.14532,-0.10338,-0.39242,-0.84254,-0.11449,-0.35075,-3.44690,-0.74416,0.30962
-0.20010,1.13472,-0.43042,0.00515,-0.00890,-0.00185,-0.00838,0.04495,-0.00647,-0.08170,-0.19045,0.04613,-0.39254,-0.84258,-0.11456,-0.35050,2.94507,-0.01921,-0.20752
-0.19991,1.13439,-0.43040,0.00467,-0.01134,-0.00067,0.06932,0.04555,-0.01688,-0.04378,-0.15419,0.06075,-0.39309,-0.84257,-0.11508,-0.34974,5.32873,0.11130,-0.86814
-0.19968,1.13387,-0.43036,0.00425,-0.01365,0.00021,0.14405,0.05452,-0.02902,-0.03667,-0.12278,0.02923,-0.39457,-0.84236,-0.11680,-0.34799,4.96712,0.77250,-0.91330
-0.19959,1.13346,-0.43037,0.00352,-0.01506,-0.00033,0.18500,0.06411,-0.04172,-0.08769,-0.03036,-0.10417,-0.39614,-0.84209,-0.11849,-0.34629,2.80122,0.53445,-0.63723
-0.19954,1.13316,-0.43047,0.00239,-0.01417,-0.00210,0.21358,0.08756,-0.04150,-0.08094,0.13543,-0.09730,-0.39761,-0.84205,-0.12010,-0.34414,2.69156,1.84341,-0.71637
-0.19954,1.13308,-0.43057,0.00129,-0.01221,-0.00368,0.20263,0.10146,-0.03353,-0.06161,0.20745,-0.08360,-0.39800,-0.84224,-0.12046,-0.34311,0.06232,1.19570,0.45634
-0.19955,1.13315,-0.43069,0.00032,-0.00868,-0.00593,0.16591,0.10305,-0.01759,-0.07745,0.33112,-0.17477,-0.39776,-0.84250,-0.12024,-0.34283,-2.25151,0.69582,1.14832
-0.19958,1.13328,-0.43087,-0.00111,-0.00345,-0.00859,0.14717,0.11847,0.01092,-0.12673,0.40978,-0.21946,-0.39760,-0.84299,-0.12055,-0.34169,-1.46666,0.49795,1.92442
-0.19962,1.13344,-0.43104,-0.00229,0.00125,-0.01105,0.12239,0.12319,0.03395,-0.07162,0.38515,-0.19578,-0.39728,-0.84342,-0.12063,-0.34097,-1.92791,0.70172,1.99068
-0.19963,1.13369,-0.43130,-0.00201,0.00660,-0.01316,0.10914,0.13538,0.04953,0.09183,0.42432,-0.17428,-0.39711,-0.84401,-0.12087,-0.33963,-2.00213,0.32282,1.07677
-0.19951,1.13423,-0.43162,0.00076,0.01437,-0.01398,0.12851,0.14933,0.05696,0.24254,0.55506,-0.01281,-0.39729,-0.84471,-0.12181,-0.33732,0.81339,0.73794,0.54962
-0.19928,1.13497,-0.43186,0.00431,0.02207,-0.01354,0.15789,0.16340,0.07611,0.37122,0.76799,0.03653,-0.39728,-0.84555,-0.12324,-0.33471,1.91029,1.12649,1.49961
-0.19874,1.13644,-0.43196,0.01030,0.03580,-0.01084,0.25170,0.15999,0.11376,0.41616,1.03574,0.14905,-0.39734,-0.84640,-0.12755,-0.33084,4.80660,0.43792,2.13221
-0.19810,1.13806,-0.43175,0.01699,0.05240,-0.00634,0.43870,0.18282,0.15066,0.55664,1.34219,0.21353,-0.39853,-0.84678,-0.13430,-0.32574,11.08862,1.11256,2.49242
-0.19706,1.14050,-0.43139,0.02847,0.07808,-0.00050,0.79921,0.24981,0.19228,0.88851,2.00593,0.15230,-0.40182,-0.84676,-0.14643,-0.31640,20.42432,3.19468,2.31540
-0.19571,1.14365,-0.43097,0.04270,0.10892,0.00561,1.19467,0.32887,0.24933,1.25285,2.49183,0.56989,-0.40559,-0.84653,-0.16147,-0.30465,28.57195,6.36443,3.58030
-0.19377,1.14780,-0.43023,0.06290,0.14812,0.01516,1.58534,0.37481,0.32294,1.63246,3.16049,0.79733,-0.40913,-0.84572,-0.17916,-0.29200,28.03854,4.32640,4.58570
-0.19137,1.15309,-0.42918,0.08569,0.19667,0.02728,1.94975,0.39540,0.42522,1.69654,3.91289,0.95298,-0.41168,-0.84456,-0.19895,-0.27869,26.30682,1.98277,6.22708
-0.18886,1.15950,-0.42810,0.10484,0.25130,0.03746,2.28757,0.42462,0.54696,1.59261,5.49445,0.56614,-0.41334,-0.84318,-0.22043,-0.26384,26.58106,0.76182,7.59135
-0.18635,1.16907,-0.42704,0.11968,0.34052,0.04504,2.73490,0.52324,0.80917,0.73046,7.32140,0.53216,-0.41198,-0.84261,-0.24756,-0.24287,33.21306,5.54250,15.23713
-0.18465,1.18236,-0.42575,0.11956,0.46721,0.05470,3.14878,0.58520,1.24945,-0.28599,8.53617,0.90191,-0.40381,-0.84333,-0.27834,-0.21970,28.16713,0.83938,26.42594
-0.18330,1.19603,-0.42424,0.11497,0.57246,0.06512,3.43842,0.63160,1.60999,-0.41420,9.19603,0.79170,-0.39433,-0.84332,-0.30759,-0.19673,24.33010,-1.69694,28.44272
-0.18212,1.21298,-0.42244,0.10887,0.70248,0.07742,3.89674,0.80083,2.00190,-0.71532,9.41553,0.61377,-0.38361,-0.84185,-0.34182,-0.16520,31.33820,4.99820,29.35402
-0.18146,1.23268,-0.42079,0.09625,0.84860,0.08519,4.31222,1.10482,2.39275,-1.02415,8.83119,0.51378,-0.37158,-0.83987,-0.37476,-0.12691,29.56719,16.28947,27.95788
-0.18096,1.25174,-0.41963,0.08366,0.95443,0.08455,4.29229,1.27639,2.65766,-1.07476,8.39297,0.34769,-0.35761,-0.83942,-0.39795,-0.09550,10.60862,12.17529,26.49880
-0.18118,1.27327,-0.41893,0.06342,1.07376,0.07736,3.71315,1.22293,2.94946,-1.69715,8.13059,0.06555,-0.33614,-0.84545,-0.40793,-0.07629,-26.91913,-9.36870,22.45285
-0.18270,1.29653,-0.41849,0.02830,1.19316,0.06791,2.84214,0.89919,3.27312,-3.05736,8.63917,-0.59650,-0.30682,-0.85616,-0.40993,-0.06941,-53.41647,-37.43188,20.09774
-0.18584,1.32109,-0.41792,-0.02296,1.30721,0.06192,2.13866,0.35103,3.51250,-4.44081,8.10304,-0.64551,-0.27442,-0.86489,-0.41428,-0.07090,-44.32030,-52.61586,15.16395
-0.19068,1.34834,-0.41790,-0.08891,1.43986,0.04875,1.52714,0.28813,4.04415,-4.11510,8.39993,-1.07985,-0.23580,-0.87785,-0.41289,-0.05752,-44.06403,-22.53618,36.09194
-0.19555,1.37541,-0.41730,-0.14282,1.54307,0.04745,1.53286,0.37691,4.27446,-4.22151,7.07481,-0.15079,-0.20642,-0.88166,-0.42279,-0.03615,-4.09424,-1.91799,17.56500
-0.20091,1.40218,-0.41639,-0.19201,1.61953,0.05089,1.61435,0.47700,4.40783,-4.16927,5.89264,0.53618,-0.17899,-0.88284,-0.43402,-0.01342,5.07841,11.48449,14.23993
-0.20768,1.43015,-0.41513,-0.25092,1.69739,0.05862,1.63218,0.48420,4.49999,-4.26314,5.05433,0.85090,-0.15072,-0.88322,-0.44404,0.00657,2.16707,3.05477,8.00816
-0.21619,1.45906,-0.41332,-0.32411,1.77252,0.07290,1.62251,0.42291,4.56598,-5.05904,4.34262,0.98279,-0.12142,-0.88269,-0.45335,0.02418,-0.03903,-5.37757,3.35934
-0.22562,1.48744,-0.41126,-0.39686,1.82579,0.08787,1.63725,0.41909,4.63532,-5.44555,3.36970,1.10083,-0.09221,-0.88081,-0.46236,0.04351,2.13546,-0.67021,4.87130
-0.23564,1.51564,-0.40897,-0.46190,1.86392,0.10286,1.65494,0.46560,4.68591,-5.62682,3.06242,1.33368,-0.06364,-0.87770,-0.47059,0.06429,0.18720,1.19424,3.86762
-0.24752,1.54429,-0.40591,-0.54005,1.90198,0.12599,1.70447,0.56046,4.74139,-5.74605,2.36898,1.86996,-0.03545,-0.87283,-0.47885,0.08719,0.97533,7.03444,5.15605
-0.26083,1.57236,-0.40228,-0.62362,1.92576,0.15269,1.77574,0.62855,4.78901,-6.32144,1.01283,1.87384,-0.00712,-0.86619,-0.48746,0.10978,2.92672,4.95350,3.98638
-0.27654,1.59955,-0.39813,-0.72567,1.93019,0.18153,1.82604,0.77536,4.82592,-6.54634,-0.42518,1.68369,0.01989,-0.85816,-0.49490,0.13504,1.75856,10.64527,3.54023
-0.29221,1.62602,-0.39435,-0.80704,1.92344,0.19937,1.76400,0.83133,4.85998,-7.06540,-0.94531,1.47270,0.04781,-0.85075,-0.49896,0.15805,-4.00160,5.55874,2.78358
-0.31060,1.65145,-0.39036,-0.91052,1.90405,0.21631,1.59481,0.69102,4.93203,-7.35859,-2.08613,1.31741,0.07959,-0.84482,-0.49903,0.17585,-8.23411,-8.32609,5.09473
-0.33153,1.67503,-0.38635,-1.03193,1.86216,0.23055,1.33059,0.23381,4.97849,-7.56405,-3.32054,0.78447,0.11603,-0.84138,-0.49512,0.18298,-5.69845,-31.40086,1.25580
-0.35286,1.69738,-0.38245,-1.13539,1.80906,0.23990,1.12976,-0.18870,4.99411,-7.33579,-4.55855,0.52919,0.15270,-0.83698,-0.49061,0.18827,-3.75046,-33.92126,-0.68335
-0.37525,1.71780,-0.37836,-1.23406,1.73939,0.25057,0.99286,-0.45105,5.01910,-7.23486,-5.35527,0.83984,0.18829,-0.83087,-0.48572,0.19564,-2.44903,-26.96465,-1.61413
-0.39941,1.73561,-0.37341,-1.34000,1.64455,0.27241,0.95856,-0.50796,5.09111,-6.55806,-6.36424,1.49919,0.22277,-0.82142,-0.48207,0.20797,-0.87407,-6.18603,3.42556
-0.42338,1.75221,-0.36807,-1.42416,1.55051,0.29524,0.94279,-0.53147,5.15935,-5.64094,-7.18794,1.66809,0.25700,-0.81030,-0.47803,0.22103,-1.12115,-0.34277,5.44950
-0.44721,1.76788,-0.36262,-1.48735,1.46371,0.31481,0.93418,-0.64146,5.18189,-4.82045,-7.42587,1.78234,0.29145,-0.79872,-0.47317,0.23069,0.19434,-6.20195,2.91066
-0.47192,1.78099,-0.35668,-1.54960,1.35854,0.33762,0.99879,-0.92342,5.13651,-3.97187,-7.65762,1.71895,0.32732,-0.78656,-0.46890,0.23306,8.89093,-15.58432,-2.06768
-0.49706,1.79267,-0.35023,-1.60181,1.25092,0.36126,1.13020,-1.20031,5.04756,-3.58472,-7.89204,1.62799,0.36284,-0.77282,-0.46603,0.23218,16.23398,-17.04801,-7.00880
-0.52227,1.80247,-0.34344,-1.64478,1.13844,0.38535,1.28537,-1.29505,4.97878,-3.10985,-8.30911,1.41767,0.39620,-0.75653,-0.46468,0.23399,15.44224,-6.60921,-5.34985
-0.54762,1.81027,-0.33658,-1.68131,1.02039,0.40605,1.30477,-1.08405,4.99674,-2.71821,-8.98951,0.85701,0.42563,-0.73840,-0.46197,0.24533,2.77533,10.78242,-0.03092
-0.57433,1.80885,-0.32930,-1.72843,0.76284,0.42410,1.01642,-0.59954,5.16232,-0.57883,-9.30599,0.11670,0.45143,-0.71987,-0.45308,0.26965,-15.62180,11.82963,6.49611
-0.62304,1.82125,-0.31785,-1.73567,0.63471,0.41734,1.02853,-0.74112,5.08986,0.34390,-9.09552,-0.60311,0.51000,-0.68346,-0.43815,0.28428,-0.47690,-5.82554,-2.57206
-0.64687,1.82008,-0.31320,-1.72550,0.48966,0.39755,1.24135,-1.06548,4.81534,1.41066,-8.95037,-1.57227,0.53861,-0.66693,-0.43369,0.27752,18.37245,-13.61308,-15.68564
-0.66997,1.82066,-0.30879,-1.70998,0.40092,0.37984,1.39048,-1.24475,4.60020,1.82395,-8.89206,-2.09331,0.56529,-0.64960,-0.42925,0.27242,24.63354,-10.87232,-20.58442
-0.69135,1.81661,-0.30587,-1.67521,0.26379,0.34652,1.46176,-1.40311,4.31472,2.37552,-8.60577,-2.36472,0.58864,-0.63490,-0.42418,0.26548,12.01449,-6.46964,-19.13316
-0.71188,1.81232,-0.30335,-1.63467,0.14745,0.31519,1.41392,-1.44966,4.10840,3.28425,-8.32690,-2.24115,0.61016,-0.62034,-0.41704,0.26260,-0.19478,-3.44069,-15.27011
-0.73104,1.80654,-0.30128,-1.58328,0.03293,0.28355,1.38553,-1.44558,3.90308,3.88944,-8.18824,-2.26790,0.62980,-0.60579,-0.41095,0.25981,-0.67785,0.37341,-15.62715
-0.74914,1.79943,-0.29956,-1.52625,-0.07919,0.25157,1.29790,-1.40015,3.77206,4.21983,-8.13055,-2.46276,0.64851,-0.59091,-0.40361,0.25954,-3.48216,2.83907,-10.76299
-0.76563,1.79017,-0.29848,-1.45345,-0.20419,0.21583,1.10895,-1.32834,3.67464,4.99660,-7.87118,-2.19044,0.66566,-0.57695,-0.39396,0.26235,-12.11193,1.49032,-7.26335
-0.78246,1.78226,-0.29697,-1.40289,-0.28049,0.19427,1.02313,-1.27590,3.61479,5.27384,-7.67237,-2.09847,0.68320,-0.56136,-0.38527,0.26395,-10.96261,2.79265,-7.27772
-0.79134,1.76418,-0.29833,-1.23289,-0.50664,0.12992,0.88435,-1.09456,3.56329,6.13814,-7.55297,-2.21269,0.69802,-0.54546,-0.37797,0.26905,-5.63043,5.92087,-0.23676
-0.81959,1.74302,-0.29680,-1.14409,-0.60849,0.09958,0.75619,-1.01682,3.64130,6.62615,-7.15155,-2.22384,0.73244,-0.50876,-0.35849,0.27599,-10.43562,3.43598,4.25314
-0.82879,1.72799,-0.29770,-1.04713,-0.70367,0.06650,0.68038,-0.97682,3.73698,7.36544,-6.45343,-2.43589,0.74946,-0.48844,-0.34728,0.28130,-8.43064,1.39787,6.89979
-0.83608,1.71235,-0.29927,-0.94115,-0.78747,0.03040,0.63939,-0.97415,3.80993,7.96121,-5.55099,-2.64218,0.76640,-0.46764,-0.33550,0.28529,-3.88188,-0.21373,5.33134
-0.84145,1.69653,-0.30140,-0.82942,-0.85740,-0.00646,0.62135,-0.99087,3.88348,8.06911,-4.46498,-2.61972,0.78323,-0.44601,-0.32314,0.28846,-0.49207,-2.12861,4.87409
-0.84520,1.68105,-0.30385,-0.71718,-0.90863,-0.04064,0.53930,-1.02416,3.91166,8.26543,-2.89443,-2.41300,0.79849,-0.42586,-0.30915,0.29236,-4.63309,-3.33987,3.27969
-0.84750,1.66628,-0.30656,-0.60596,-0.93849,-0.07138,0.41657,-1.05225,3.90107,7.82998,-1.48779,-2.18965,0.81216,-0.40686,-0.29424,0.29711,-5.58021,-3.78091,-0.61812
-0.84844,1.65245,-0.30940,-0.49777,-0.94886,-0.09791,0.17185,-1.11246,3.84364,7.95995,-0.14885,-1.87900,0.82348,-0.39103,-0.27626,0.30441,-15.13094,-7.63218,-4.93781
-0.84765,1.63954,-0.31240,-0.38681,-0.94490,-0.12154,-0.04784,-1.18185,3.80885,7.94358,0.69611,-1.48253,0.83417,-0.37513,-0.25709,0.31198,-13.72842,-9.72731,-4.95551
-0.84525,1.62749,-0.31549,-0.27463,-0.92861,-0.14149,-0.19363,-1.22772,3.79861,8.25254,1.77768,-1.25778,0.84463,-0.35787,-0.23826,0.31901,-11.28719,-7.18038,-1.97427
-0.83978,1.61710,-0.31902,-0.13890,-0.89101,-0.16429,-0.14117,-1.25621,3.77984,8.69530,3.20695,-1.22835,0.85594,-0.33878,-0.22212,0.32134,0.80901,-1.85348,-0.89955
-0.83476,1.60779,-0.32247,-0.03777,-0.84615,-0.18135,0.01513,-1.24991,3.73135,8.36134,4.61431,-1.31625,0.86720,-0.31903,-0.20872,0.32033,10.34174,2.96287,-0.85939
-0.82780,1.60117,-0.32617,0.06958,-0.77131,-0.19806,0.24426,-1.22863,3.55925,7.38608,6.26507,-0.82137,0.87758,-0.30189,-0.19851,0.31513,16.63911,4.67180,-8.45556
-0.82001,1.59712,-0.32943,0.16722,-0.67517,-0.20511,0.40019,-1.13537,3.34330,6.83506,7.57780,-0.45958,0.88587,-0.28658,-0.19098,0.31087,13.31205,10.20511,-13.96896
-0.81131,1.59585,-0.33237,0.25854,-0.55856,-0.20625,0.37110,-1.13906,3.10412,6.36378,8.99299,-0.14074,0.89216,-0.27540,-0.17999,0.30953,2.37400,5.38986,-16.67806
-0.80222,1.59765,-0.33475,0.33683,-0.42077,-0.19901,0.15156,-1.23750,2.80383,5.08698,11.06086,0.90268,0.89587,-0.27000,-0.16470,0.31207,-9.46163,-11.46380,-18.65272
-0.79357,1.60330,-0.33641,0.39303,-0.25562,-0.18303,-0.02827,-1.14377,2.28351,3.05799,12.95975,1.69433,0.89561,-0.27153,-0.15774,0.31508,-14.30180,0.98846,-34.88237
-0.78615,1.61270,-0.33740,0.42056,-0.07022,-0.16070,-0.08250,-0.94855,1.60377,1.14056,13.96318,1.70300,0.89303,-0.27931,-0.15865,0.31514,-4.97321,13.84911,-48.28137
-0.77992,1.62557,-0.33805,0.42555,0.12783,-0.13804,-0.07106,-0.83996,0.84554,0.02643,14.81174,1.66650,0.88921,-0.29376,-0.16102,0.31159,2.86930,8.56620,-51.97753
-0.77406,1.64199,-0.33822,0.42473,0.33695,-0.11297,-0.05599,-0.72925,0.01507,0.28887,15.32090,1.93606,0.88267,-0.31483,-0.16659,0.30663,4.50941,7.03169,-58.95490
-0.76691,1.66192,-0.33785,0.44284,0.55442,-0.08529,-0.02654,-0.58061,-0.74537,2.34984,16.05442,2.15536,0.87433,-0.33799,-0.17511,0.30109,4.10796,9.53157,-57.07881
-0.75380,1.69878,-0.33477,0.55474,1.01595,-0.01699,-0.10626,-0.11911,-2.10501,5.09099,16.89368,2.48021,0.85484,-0.37663,-0.19826,0.29680,0.42243,17.90556,-47.98152
-0.73236,1.74596,-0.33201,0.64194,1.28927,0.02977,-0.57365,-0.00040,-3.02108,6.24793,17.38999,2.79843,0.82442,-0.43048,-0.21213,0.30002,-25.71638,11.34255,-56.80344
-0.72063,1.77144,-0.33036,0.68037,1.39303,0.04683,-0.75446,0.04337,-3.37565,6.79499,17.57500,2.95219,0.80578,-0.45979,-0.21929,0.30203,-30.28998,10.65996,-58.70393
-0.69911,1.81611,-0.32582,0.84635,1.73827,0.09965,-1.10807,0.39597,-4.57577,10.01276,17.33556,2.55024,0.76449,-0.51292,-0.24202,0.30643,-14.05112,18.47337,-61.04694
-0.67607,1.85694,-0.32226,1.00694,1.97427,0.13048,-1.21300,0.73331,-5.44087,13.11211,16.67864,2.14396,0.72424,-0.55787,-0.26608,0.30571,-3.28391,19.42063,-62.38733
-0.64805,1.90014,-0.31863,1.20554,2.19601,0.15591,-1.32802,1.09797,-6.35053,15.60487,15.29259,1.36625,0.67504,-0.60497,-0.29313,0.30399,-0.86047,22.16598,-65.27914
-0.61205,1.94643,-0.31544,1.48312,2.42120,0.17026,-1.57878,1.46805,-7.47582,19.69735,12.61221,0.07077,0.61090,-0.65770,-0.32106,0.30192,-6.51158,20.78492,-72.39322
-0.57119,1.99092,-0.31315,1.77922,2.57886,0.16896,-1.98030,1.76242,-8.46986,23.18314,9.84421,-0.47423,0.53781,-0.70853,-0.34308,0.30174,-23.28448,26.75381,-70.09177
-0.52576,2.03360,-0.31149,2.07542,2.67426,0.15887,-2.22160,2.08805,-9.35377,26.65523,6.16891,-1.03509,0.45707,-0.75381,-0.36646,0.29760,-18.86959,27.35109,-74.47859
-0.46710,2.07384,-0.31318,2.47604,2.71911,0.12624,-2.26431,2.47651,-10.41234,30.53573,0.70142,-2.80735,0.36235,-0.79478,-0.39468,0.28504,-2.12010,19.53517,-77.24509
-0.39538,2.10712,-0.31798,2.99309,2.66327,0.05787,-2.21222,2.83313,-11.75140,34.09852,-8.07833,-5.32322,0.25022,-0.83032,-0.42368,0.26163,-0.43895,6.82462,-86.54686
-0.32177,2.13175,-0.32364,3.45303,2.48597,-0.02773,-2.12798,3.07664,-12.47672,34.18989,-16.78421,-6.66372,0.14496,-0.85085,-0.44503,0.23872,-6.40527,5.66237,-69.59845
-0.24455,2.14746,-0.33087,3.87904,2.21803,-0.12704,-1.89849,3.05945,-13.64442,38.53752,-28.40086,-9.71016,0.02525,-0.86328,-0.46435,0.19616,4.22836,-8.98343,-66.73593
-0.15600,2.14404,-0.34328,4.37653,1.73380,-0.27951,-1.94016,2.83769,-15.08578,32.76941,-42.13696,-12.47434,-0.11021,-0.86510,-0.46917,0.13904,-32.82589,-16.26710,-110.04910
-0.06775,2.12014,-0.35927,4.76003,1.05251,-0.45067,-2.26706,2.73921,-15.93271,21.27822,-55.84689,-12.46005,-0.23872,-0.85207,-0.45714,0.08954,-34.17833,18.44690,-65.71268
0.00986,2.07374,-0.37755,4.91854,0.18946,-0.61916,-2.54519,2.01157,-15.99333,1.06260,-65.89667,-10.14036,-0.33535,-0.83551,-0.43416,0.03124,-40.34206,6.33086,-20.89724
0.06597,2.01096,-0.39425,4.74325,-0.73237,-0.73163,-2.81629,0.24957,-14.90292,-24.03090,-62.30691,-3.98657,-0.37808,-0.83152,-0.40477,-0.04238,-96.81857,-14.34806,69.57839
0.09843,1.94486,-0.40707,4.26811,-1.51563,-0.76630,-3.18611,-2.26907,-12.91253,-41.24815,-47.30570,-0.16151,-0.37024,-0.84039,-0.37279,-0.13305,-163.89530,-45.44157,140.26110
0.10899,1.88211,-0.41634,3.58008,-2.10683,-0.74208,-3.78417,-3.48527,-10.48317,-46.16131,-27.19769,0.56222,-0.34953,-0.85395,-0.33510,-0.19052,-124.57050,-8.62069,151.19000
0.11891,1.83423,-0.42321,3.00881,-2.37426,-0.68744,-2.99792,-1.73269,-7.94498,-39.76540,-6.41006,2.31554,-0.35323,-0.86115,-0.33169,-0.15371,32.41287,97.96408,140.63450
0.12960,1.79219,-0.42798,2.56030,-2.50345,-0.61671,-0.54729,1.41474,-6.56925,-29.89027,-10.18905,5.07312,-0.39904,-0.83628,-0.37146,-0.05850,274.03880,128.05060,127.34840
0.13827,1.75054,-0.43244,2.17284,-2.60179,-0.55554,1.50683,3.39398,-5.88792,-24.73861,-6.91340,6.22132,-0.44803,-0.79496,-0.40864,0.01819,241.22050,89.70657,12.07377
0.14689,1.71119,-0.43768,1.86673,-2.64675,-0.51868,1.67956,3.19239,-5.07883,-22.16008,-4.51397,5.29959,-0.46445,-0.78055,-0.41709,0.03263,95.70025,2.83610,39.82603
0.14776,1.67280,-0.44190,1.51126,-2.66728,-0.47424,-0.02886,1.47860,-3.77187,-19.75817,-1.74637,4.17645,-0.44182,-0.80769,-0.39030,-0.00995,-107.01930,-72.68764,92.86211
0.15063,1.63447,-0.44474,1.25216,-2.68583,-0.41815,-2.14186,-0.40438,-2.70455,-17.15534,-1.71352,4.72341,-0.40947,-0.84056,-0.34620,-0.07711,-177.04710,-90.67477,94.11333
0.15903,1.59598,-0.44740,1.12872,-2.70214,-0.37376,-3.03866,-1.18791,-2.23513,-15.52827,-1.17462,5.01982,-0.39593,-0.85410,-0.31494,-0.12065,-176.71380,-82.60656,81.51373
0.16124,1.55502,-0.44529,0.95069,-2.74493,-0.27519,-3.48573,-1.82760,-1.84079,-12.52016,-2.77830,6.39276,-0.38017,-0.86276,-0.29135,-0.16195,-74.56200,-37.55199,45.66032
0.16921,1.51493,-0.44562,0.88548,-2.76925,-0.23012,-3.30255,-1.92746,-1.85025,-11.34194,-3.45914,6.41182,-0.38281,-0.86005,-0.28090,-0.18673,-26.01426,-26.97303,26.88341
0.16600,1.46870,-0.43879,0.69462,-2.86338,-0.10316,-1.83037,-1.51201,-2.30097,-10.02195,-5.15967,4.98598,-0.41287,-0.83724,-0.30861,-0.18257,80.79584,4.15069,-14.30845
0.17402,1.42806,-0.43943,0.67531,-2.87371,-0.09326,-1.66599,-1.44422,-2.36181,-10.07198,-5.24601,4.84355,-0.42450,-0.82967,-0.30404,-0.19747,86.61696,4.87110,-15.75473
0.15497,1.37792,-0.43261,0.32141,-2.99389,0.00743,-0.13151,-0.63019,-2.81253,-11.29960,-2.95935,3.15942,-0.46886,-0.79886,-0.33703,-0.16856,45.38124,15.53482,-6.60985
0.15235,1.33528,-0.43156,0.22708,-3.00795,0.02096,-0.40330,-0.74561,-2.75237,-11.38113,-2.06142,2.41559,-0.47817,-0.79298,-0.32857,-0.18595,-1.15409,1.90456,1.15181
0.13990,1.29221,-0.42977,0.02195,-3.02187,0.04094,-1.31289,-0.96766,-2.55207,-10.89806,0.15071,0.52229,-0.47688,-0.79697,-0.30080,-0.21669,-58.50863,-3.73824,8.96961
0.12410,1.25058,-0.42657,-0.21125,-3.01559,0.08090,-1.08973,-0.58432,-2.60936,-9.72746,0.52921,2.31650,-0.49362,-0.78942,-0.29185,-0.21906,21.42800,16.62533,-4.42648
0.10312,1.16758,-0.41977,-0.41587,-3.00438,0.14259,-0.74483,-0.51009,-2.95040,-9.56876,0.35202,3.38877,-0.52936,-0.76345,-0.28298,-0.23842,17.61218,-2.04063,-14.93318
0.08903,1.12653,-0.41551,-0.53325,-2.99286,0.17446,-1.01927,-0.62747,-3.16273,-9.78696,0.98220,2.95710,-0.54502,-0.75068,-0.26841,-0.25960,-11.36824,-6.16736,-17.62675
0.07097,1.08741,-0.41104,-0.68266,-2.95423,0.20256,-1.81522,-0.80842,-3.40823,-9.22131,3.74243,0.90414,-0.55635,-0.74004,-0.23789,-0.29364,-50.48745,-4.15011,-19.46698
0.05331,1.05150,-0.40788,-0.80261,-2.88283,0.20643,-2.20094,-0.61008,-3.45907,-7.93639,7.12799,-0.96185,-0.56836,-0.73177,-0.20967,-0.31228,-37.81021,13.82049,-9.85061
0.03645,1.01816,-0.40498,-0.88577,-2.78992,0.20633,-2.05934,-0.26612,-3.38649,-6.37891,9.12553,-0.09638,-0.58309,-0.72327,-0.19161,-0.31649,6.48579,27.51078,-1.93441
0.01705,0.99044,-0.40055,-0.98779,-2.63345,0.22767,-1.46692,0.01072,-3.17834,-6.36485,10.74718,2.14895,-0.59863,-0.71409,-0.18787,-0.31051,38.82515,13.91343,10.36386
-0.00276,0.96477,-0.39436,-1.07736,-2.47821,0.26924,-0.96730,-0.03268,-2.97604,-6.27820,11.45270,3.78632,-0.61098,-0.70288,-0.19002,-0.31073,39.85629,-5.59786,14.28017
-0.02292,0.94039,-0.38744,-1.15300,-2.33827,0.31246,-0.80767,-0.20852,-2.78698,-6.41572,11.61668,4.00863,-0.61881,-0.69259,-0.18886,-0.31894,20.24828,-15.88675,16.79951
-0.04637,0.92240,-0.37914,-1.25997,-2.13198,0.36627,-1.22750,-0.41135,-2.58613,-5.12321,10.81210,2.82584,-0.61918,-0.68632,-0.17545,-0.33883,-18.38040,-7.80035,12.16582
-0.06689,0.90312,-0.37286,-1.30567,-1.98085,0.38129,-1.84222,-0.39914,-2.51780,-1.81288,11.09456,-0.54823,-0.61948,-0.68097,-0.15011,-0.36054,-50.85564,5.65309,4.64839
-0.08528,0.88327,-0.36790,-1.31129,-1.87242,0.37528,-1.85949,-0.24711,-2.49583,0.09814,11.62195,-2.08844,-0.62656,-0.67321,-0.13332,-0.36937,-26.16193,14.37632,0.31924
-0.10282,0.86727,-0.36373,-1.30205,-1.73484,0.35971,-1.47000,-0.04936,-2.44334,1.31441,12.28046,-1.84520,-0.63836,-0.66471,-0.12574,-0.36722,24.13301,14.17026,1.03310
-0.11890,0.85800,-0.35982,-1.27696,-1.53302,0.34250,-0.86040,0.07289,-2.24214,2.11804,13.07231,-0.50085,-0.64984,-0.65783,-0.12870,-0.35834,43.47212,3.03677,9.91919
-0.13418,0.85039,-0.35542,-1.24548,-1.34507,0.33553,-0.64933,0.08274,-1.93832,2.61506,13.60155,-0.00728,-0.65363,-0.65482,-0.12788,-0.35724,21.95270,-0.58557,19.04585
-0.14785,0.84881,-0.35076,-1.19497,-1.10289,0.33288,-0.68648,0.03969,-1.48723,3.25410,13.01358,0.06711,-0.64986,-0.65699,-0.12543,-0.36099,-0.65760,-0.95105,25.83580
-0.16049,0.84527,-0.34628,-1.13879,-0.93195,0.32808,-0.91665,0.01351,-1.18984,4.72906,11.52715,-0.63288,-0.64522,-0.65848,-0.11715,-0.36929,-14.18008,-0.39060,22.94942
-0.17175,0.84143,-0.34249,-1.07494,-0.80212,0.31553,-1.08627,0.05143,-1.00314,5.58903,10.43986,-1.59107,-0.64198,-0.65942,-0.10724,-0.37621,-16.92706,4.70154,17.56063
-0.18074,0.83995,-0.33971,-0.99086,-0.66580,0.29067,-1.08876,0.10815,-0.83648,6.36260,9.51145,-2.54068,-0.64004,-0.66050,-0.10004,-0.37958,-5.87653,5.58930,12.26251
-0.18719,0.84083,-0.33807,-0.88672,-0.52145,0.25384,-0.80793,0.14121,-0.65555,6.64909,8.92644,-2.58624,-0.64079,-0.66128,-0.10047,-0.37685,16.56474,2.15067,10.29004
-0.19319,0.84201,-0.33687,-0.79590,-0.39991,0.21901,-0.56682,0.18735,-0.47385,6.52670,8.61536,-2.38531,-0.64102,-0.66301,-0.10132,-0.37316,19.13699,2.63753,11.86962
-0.19891,0.84364,-0.33575,-0.71941,-0.29724,0.19039,-0.45833,0.23601,-0.28721,6.37378,8.51012,-2.14612,-0.63919,-0.66621,-0.10053,-0.37080,13.50392,4.01622,14.83986
-0.20283,0.84782,-0.33513,-0.63428,-0.18057,0.16072,-0.45873,0.29987,-0.02415,5.98386,8.17162,-1.90559,-0.63353,-0.67270,-0.09861,-0.36932,1.55157,5.37933,18.02627
-0.20596,0.85301,-0.33448,-0.55490,-0.07299,0.13757,-0.45467,0.32629,0.23641,5.44487,7.30286,-1.46586,-0.62655,-0.67993,-0.09797,-0.36815,-0.16997,3.26961,19.16319
-0.20854,0.85875,-0.33337,-0.48277,0.02019,0.12258,-0.45758,0.33046,0.44480,4.90446,6.12380,-0.79188,-0.61941,-0.68686,-0.09757,-0.36748,0.65135,1.50762,16.11668
-0.21032,0.86455,-0.33180,-0.41294,0.09609,0.11726,-0.50679,0.24994,0.58484,5.10319,4.77084,-0.11675,-0.61192,-0.69222,-0.09752,-0.36997,-2.41311,-3.09848,11.64297
-0.21099,0.87009,-0.32996,-0.34184,0.15390,0.11805,-0.57871,0.07496,0.65750,4.93180,3.64786,-0.01758,-0.60453,-0.69527,-0.09863,-0.37605,-4.81242,-11.14554,6.58077
