posX, posY, posZ, velX, velY, velZ, angVelX, angVelY, angVelZ, accX, accY, accZ, rotX, rotY, rotZ, rotW, angAccX, angAccY, angAccZ
-0.35453,1.00230,-0.49420,-0.00414,0.07028,-0.03268,-0.00765,0.09050,0.21335,0.41833,-0.13208,0.51243,-0.44600,-0.84821,0.10583,-0.26538,5.50709,-0.91163,-4.52908
-0.35427,1.00308,-0.49407,0.00118,0.06801,-0.02532,0.01128,0.05631,0.22255,0.45872,-0.25328,0.57975,-0.44484,-0.84885,0.10462,-0.26576,1.56984,-2.32140,0.08182
-0.35396,1.00327,-0.49375,0.00661,0.06369,-0.01819,0.02714,0.00932,0.20394,0.35637,-0.47765,0.57681,-0.44501,-0.84862,0.10360,-0.26661,0.77812,-3.38086,0.10876
-0.35371,1.00308,-0.49330,0.01209,0.05520,-0.00895,0.04811,-0.03876,0.13612,0.29778,-0.53110,0.59634,-0.44646,-0.84774,0.10296,-0.26721,1.93628,-3.07398,-4.47769
-0.35350,1.00328,-0.49310,0.01478,0.04854,-0.00312,0.00596,-0.06451,0.12270,0.26294,-0.58775,0.51680,-0.44613,-0.84760,0.10316,-0.26816,-1.40080,-1.85574,-2.81230
-0.35327,1.00361,-0.49282,0.01726,0.04006,0.00287,-0.03920,-0.08554,0.09904,0.08749,-0.61502,0.32164,-0.44575,-0.84738,0.10353,-0.26932,-4.04968,-1.77274,-0.63040
-0.35316,1.00376,-0.49254,0.01798,0.03231,0.00786,-0.03236,-0.09381,0.03000,-0.02345,-0.32424,0.19959,-0.44651,-0.84686,0.10358,-0.26969,0.12891,-1.03858,-5.04900
-0.35304,1.00422,-0.49229,0.01603,0.03050,0.01088,-0.04060,-0.07770,0.03233,-0.02789,0.03490,0.22071,-0.44633,-0.84680,0.10364,-0.27015,0.04180,1.06759,-1.03684
-0.35286,1.00488,-0.49200,0.01424,0.03127,0.01267,-0.07511,-0.06735,0.07207,-0.20079,0.06713,0.11651,-0.44521,-0.84702,0.10401,-0.27115,-3.07579,0.85754,3.49117
-0.35284,1.00543,-0.49174,0.01137,0.03365,0.01446,-0.05624,-0.04915,0.08432,-0.24435,0.23059,0.03431,-0.44461,-0.84728,0.10392,-0.27136,-0.16350,1.02986,1.51155
-0.35278,1.00628,-0.49135,0.00817,0.03744,0.01698,-0.02360,-0.03750,0.12015,-0.10656,0.17270,0.24415,-0.44335,-0.84793,0.10326,-0.27165,2.34520,1.06148,2.04924
-0.35270,1.00702,-0.49089,0.00754,0.03859,0.02067,0.00693,-0.05325,0.13154,-0.06641,0.01369,0.23486,-0.44242,-0.84838,0.10224,-0.27215,1.21514,-0.64696,1.81048
-0.35264,1.00746,-0.49052,0.00762,0.03841,0.02377,0.05568,-0.07302,0.11185,-0.01548,-0.07095,0.31463,-0.44254,-0.84843,0.10093,-0.27229,4.23865,-1.37033,-0.76156
-0.35246,1.00828,-0.48965,0.00850,0.03634,0.02971,0.10975,-0.10679,0.08684,0.09543,-0.22718,0.42221,-0.44276,-0.84845,0.09825,-0.27286,3.96968,-2.18968,-1.19867
-0.35219,1.00904,-0.48856,0.01048,0.03272,0.03499,0.15572,-0.15202,0.05224,0.15690,-0.29653,0.32323,-0.44377,-0.84797,0.09477,-0.27391,3.00534,-3.16877,-2.04618
-0.35190,1.00956,-0.48756,0.01243,0.02928,0.03852,0.18639,-0.18480,0.02602,0.17671,-0.30029,0.27632,-0.44507,-0.84732,0.09148,-0.27495,3.00746,-2.64026,-3.19616
-0.35162,1.00978,-0.48671,0.01394,0.02447,0.04100,0.18593,-0.21362,0.01983,0.11306,-0.30382,0.08793,-0.44574,-0.84675,0.08910,-0.27641,0.66499,-1.69411,-0.71779
-0.35138,1.00995,-0.48611,0.01505,0.02032,0.04038,0.20645,-0.21320,0.01024,0.00737,-0.26379,-0.18392,-0.44659,-0.84642,0.08680,-0.27675,1.09069,-0.68097,-0.62393
-0.35126,1.01010,-0.48566,0.01400,0.01735,0.03806,0.21670,-0.20071,0.00971,-0.12665,-0.25690,-0.21826,-0.44714,-0.84630,0.08479,-0.27685,1.69156,0.64751,-0.49877
-0.35122,1.01016,-0.48535,0.01230,0.01385,0.03436,0.23252,-0.17554,-0.00273,-0.13288,-0.27833,-0.30536,-0.44805,-0.84618,0.08290,-0.27634,0.54569,1.68575,-0.26917
-0.35124,1.01015,-0.48513,0.01016,0.00961,0.02982,0.25341,-0.14908,-0.02653,-0.10272,-0.24174,-0.28550,-0.44945,-0.84590,0.08100,-0.27546,1.71261,1.74545,-2.26568
-0.35123,1.01013,-0.48497,0.00873,0.00654,0.02562,0.24601,-0.12528,-0.03619,-0.08447,-0.21887,-0.25634,-0.45032,-0.84574,0.07977,-0.27491,0.11644,2.00650,-0.47293
-0.35123,1.01003,-0.48496,0.00725,0.00343,0.02126,0.22745,-0.10227,-0.04137,-0.11884,-0.16725,-0.29649,-0.45076,-0.84568,0.07941,-0.27449,-1.45636,1.90755,-0.22790
-0.35127,1.00995,-0.48507,0.00591,0.00113,0.01741,0.18249,-0.07440,-0.03834,-0.04199,-0.17392,-0.20608,-0.45049,-0.84578,0.08035,-0.27435,-1.85406,2.09781,-0.56927
-0.35130,1.00989,-0.48520,0.00544,-0.00076,0.01444,0.11917,-0.06000,-0.01464,-0.00393,-0.13908,-0.24774,-0.44970,-0.84597,0.08149,-0.27470,-5.43620,0.94298,2.03842
-0.35129,1.00983,-0.48523,0.00514,-0.00207,0.01041,0.07501,-0.04482,0.00429,-0.08983,-0.03036,-0.42888,-0.44938,-0.84606,0.08180,-0.27485,-4.04782,0.63968,1.56710
-0.35124,1.00979,-0.48517,0.00368,-0.00154,0.00527,0.10013,-0.01854,0.00350,-0.09631,0.09065,-0.37355,-0.44965,-0.84615,0.08092,-0.27440,1.00202,1.55879,-0.36711
-0.35121,1.00979,-0.48521,0.00220,-0.00011,0.00074,0.14267,0.00217,0.00874,-0.13560,0.09783,-0.34150,-0.45001,-0.84641,0.07943,-0.27344,2.72872,2.22667,0.58163
-0.35120,1.00984,-0.48536,0.00083,0.00146,-0.00304,0.20157,0.02522,-0.00173,-0.09665,0.12746,-0.22849,-0.45097,-0.84677,0.07697,-0.27145,3.94661,1.72668,-0.80135
-0.35119,1.00993,-0.48553,0.00024,0.00296,-0.00490,0.25072,0.02707,-0.01265,-0.02417,0.14048,-0.04292,-0.45222,-0.84699,0.07411,-0.26948,4.85253,0.97641,-0.85900
-0.35118,1.01010,-0.48562,0.00021,0.00453,-0.00454,0.29349,0.01939,-0.02540,0.02299,0.13995,0.10084,-0.45383,-0.84706,0.07070,-0.26746,2.77688,-0.38281,-0.76594
-0.35099,1.01033,-0.48545,0.00269,0.00732,-0.00122,0.37036,-0.01443,-0.05231,0.25002,0.17155,0.30010,-0.45614,-0.84662,0.06645,-0.26600,4.48003,-1.70143,-1.85769
-0.35073,1.01056,-0.48515,0.00564,0.00932,0.00319,0.41403,-0.05022,-0.06922,0.28653,0.18337,0.46809,-0.45812,-0.84609,0.06266,-0.26519,4.85230,-2.71615,-1.87988
-0.35037,1.01091,-0.48467,0.00980,0.01166,0.00889,0.41878,-0.09760,-0.06382,0.32547,0.15100,0.42852,-0.45934,-0.84560,0.05924,-0.26545,1.28060,-3.45327,-0.11078
-0.34998,1.01135,-0.48411,0.01358,0.01373,0.01366,0.39486,-0.13121,-0.03725,0.22344,0.13830,0.28318,-0.45962,-0.84544,0.05648,-0.26607,-0.91349,-2.88232,1.65776
-0.34968,1.01177,-0.48367,0.01529,0.01532,0.01609,0.37708,-0.13996,-0.01401,0.07964,0.10612,0.07556,-0.45980,-0.84547,0.05398,-0.26617,-2.26811,-1.66038,1.79486
-0.34944,1.01212,-0.48334,0.01579,0.01669,0.01691,0.38496,-0.13268,-0.00432,-0.02773,0.07281,-0.03498,-0.46039,-0.84554,0.05114,-0.26548,-0.32988,0.07400,1.28461
-0.34925,1.01241,-0.48309,0.01536,0.01740,0.01641,0.38084,-0.11882,0.00540,-0.02592,0.00393,-0.00451,-0.46083,-0.84569,0.04869,-0.26471,0.18891,0.57461,0.49030
-0.34901,1.01262,-0.48285,0.01576,0.01665,0.01606,0.35552,-0.10807,0.01399,0.04983,-0.08015,-0.04859,-0.46104,-0.84581,0.04687,-0.26429,-1.71940,0.76094,1.12981
-0.34870,1.01273,-0.48263,0.01723,0.01444,0.01537,0.31059,-0.09685,0.01791,0.15228,-0.22679,0.01057,-0.46112,-0.84587,0.04581,-0.26416,-2.10264,0.78342,0.15250
-0.34842,1.01270,-0.48245,0.01882,0.01103,0.01517,0.24999,-0.09063,0.03046,0.13962,-0.34192,-0.01443,-0.46063,-0.84600,0.04582,-0.26460,-4.76537,0.51324,0.60509
-0.34831,1.01241,-0.48242,0.02096,0.00456,0.01475,0.16284,-0.08818,0.03573,0.12983,-0.46965,-0.03957,-0.45991,-0.84597,0.04770,-0.26559,-5.43994,0.35950,0.51300
-0.34833,1.01249,-0.48226,0.02330,-0.00232,0.01439,0.07652,-0.07793,0.03231,0.19690,-0.54599,-0.05918,-0.45956,-0.84591,0.04916,-0.26612,-5.64430,0.79273,-0.42895
-0.34822,1.01259,-0.48203,0.02544,-0.00848,0.01393,0.01754,-0.07275,0.02708,0.13138,-0.56788,-0.11036,-0.45938,-0.84586,0.04960,-0.26652,-5.56347,0.45868,0.31120
-0.34788,1.01247,-0.48172,0.02791,-0.01781,0.01343,-0.01959,-0.05756,0.00952,0.15504,-0.64838,-0.09457,-0.45930,-0.84575,0.04987,-0.26696,-3.50182,0.52167,-0.78417
-0.34742,1.01217,-0.48136,0.03087,-0.02638,0.01359,-0.00125,-0.05352,-0.04047,0.18664,-0.56342,-0.09657,-0.45986,-0.84536,0.04979,-0.26725,0.27793,0.63449,-2.87203
-0.34657,1.01149,-0.48089,0.03385,-0.03218,0.01361,0.05039,-0.04092,-0.10279,0.24042,-0.28047,0.02027,-0.46171,-0.84445,0.04920,-0.26704,3.84474,1.00353,-5.12011
-0.34603,1.01101,-0.48062,0.03574,-0.03443,0.01400,0.05575,-0.03873,-0.11398,0.18904,-0.10229,0.12406,-0.46271,-0.84394,0.04893,-0.26697,2.17792,0.16079,-2.46367
-0.34560,1.01066,-0.48039,0.03726,-0.03441,0.01535,0.02155,-0.04200,-0.09378,0.11738,0.12869,0.10329,-0.46281,-0.84374,0.04919,-0.26737,-2.40267,-0.24464,0.77936
-0.34527,1.01047,-0.48020,0.03849,-0.03190,0.01681,-0.00288,-0.05035,-0.07029,0.12087,0.30781,0.11731,-0.46273,-0.84365,0.04932,-0.26779,-1.96925,-0.51852,1.91907
-0.34483,1.01032,-0.47996,0.03994,-0.02627,0.01857,-0.00986,-0.06034,-0.03463,0.08356,0.47022,0.08061,-0.46254,-0.84362,0.04919,-0.26822,-1.15972,-0.83638,2.75019
-0.34410,1.01012,-0.47957,0.04124,-0.01847,0.02055,0.02003,-0.07549,-0.00524,0.02423,0.46433,0.09599,-0.46248,-0.84355,0.04842,-0.26869,1.76200,-0.87167,2.48659
-0.34315,1.00996,-0.47904,0.04225,-0.01239,0.02243,0.08093,-0.08701,-0.00918,0.06901,0.41233,0.12691,-0.46301,-0.84328,0.04674,-0.26891,3.64840,-0.63179,0.03278
-0.34197,1.00995,-0.47829,0.04359,-0.00752,0.02484,0.14903,-0.10139,-0.02068,0.09799,0.32631,0.19782,-0.46423,-0.84280,0.04369,-0.26884,5.17788,-1.01087,-1.03901
-0.34105,1.01026,-0.47756,0.04445,-0.00290,0.02697,0.18443,-0.10928,-0.01835,0.06268,0.31813,0.16375,-0.46514,-0.84248,0.04090,-0.26870,3.34619,-0.96622,-0.44274
-0.34036,1.01066,-0.47699,0.04480,0.00163,0.02796,0.20749,-0.11050,-0.00806,0.05036,0.40450,0.03055,-0.46563,-0.84239,0.03856,-0.26846,1.71376,-0.19644,0.53418
-0.33971,1.01126,-0.47648,0.04431,0.00813,0.02800,0.21246,-0.09688,0.03271,-0.03856,0.37163,0.00488,-0.46508,-0.84293,0.03645,-0.26803,1.13447,0.32915,2.47842
-0.33914,1.01188,-0.47605,0.04413,0.01286,0.02765,0.20762,-0.08783,0.07186,0.00777,0.30329,-0.04926,-0.46418,-0.84357,0.03473,-0.26781,-0.84357,0.76833,3.00151
-0.33857,1.01239,-0.47564,0.04461,0.01562,0.02759,0.20261,-0.07975,0.10587,0.07619,0.13163,0.02178,-0.46318,-0.84426,0.03315,-0.26758,-0.48724,0.60255,2.50027
-0.33780,1.01288,-0.47511,0.04641,0.01667,0.02835,0.19346,-0.07912,0.13503,0.15798,-0.02149,0.05081,-0.46199,-0.84498,0.03132,-0.26758,-0.87665,0.12531,2.54712
-0.33691,1.01334,-0.47450,0.04969,0.01577,0.02966,0.20349,-0.08177,0.15382,0.21831,-0.09451,0.05391,-0.46103,-0.84565,0.02891,-0.26737,0.34832,0.21752,1.27047
-0.33609,1.01360,-0.47393,0.05240,0.01384,0.03121,0.23440,-0.08036,0.16020,0.14395,-0.24201,0.15366,-0.46061,-0.84618,0.02624,-0.26670,1.93146,-0.31256,0.86932
-0.33525,1.01357,-0.47329,0.05450,0.00921,0.03405,0.25268,-0.09148,0.15820,0.13973,-0.40346,0.21123,-0.46032,-0.84648,0.02362,-0.26649,1.43535,-0.62843,0.16599
-0.33435,1.01350,-0.47265,0.05713,0.00479,0.03617,0.28951,-0.10190,0.13564,0.21257,-0.36359,0.13082,-0.46088,-0.84643,0.02050,-0.26594,2.24443,-0.72707,-1.39759
-0.33344,1.01333,-0.47195,0.05941,-0.00026,0.03857,0.32421,-0.11347,0.12033,0.09808,-0.29289,0.18640,-0.46143,-0.84638,0.01714,-0.26538,2.90656,-0.51470,-1.17074
-0.33262,1.01316,-0.47125,0.05997,-0.00404,0.04041,0.33460,-0.12030,0.12475,0.03137,-0.27851,0.12296,-0.46131,-0.84661,0.01420,-0.26505,0.82239,-0.34893,-0.03170
-0.33182,1.01296,-0.47053,0.06031,-0.00756,0.04190,0.35621,-0.12022,0.11760,0.02957,-0.24123,0.01461,-0.46160,-0.84671,0.01105,-0.26435,1.13343,0.02405,-0.22216
-0.33104,1.01272,-0.46993,0.06014,-0.01087,0.04159,0.39984,-0.10573,0.10058,-0.10296,-0.15623,-0.13268,-0.46241,-0.84679,0.00749,-0.26282,2.53262,0.83599,-0.75734
-0.33039,1.01260,-0.46934,0.05879,-0.01239,0.04104,0.54466,-0.08093,0.04542,-0.06330,-0.07272,-0.07335,-0.46527,-0.84635,0.00146,-0.25925,8.03549,1.40998,-2.74290
-0.32961,1.01252,-0.46870,0.05933,-0.01242,0.04146,0.68120,-0.07055,-0.01197,0.15627,0.07185,0.04112,-0.46873,-0.84556,-0.00526,-0.25553,11.45608,1.63713,-4.78973
-0.32868,1.01264,-0.46810,0.06136,-0.00886,0.04129,0.82184,-0.06225,-0.06272,0.19005,0.45063,-0.00556,-0.47265,-0.84458,-0.01292,-0.25124,10.68779,0.55488,-4.23948
-0.32784,1.01334,-0.46756,0.06218,0.00147,0.03994,0.92717,-0.04785,-0.06666,0.03857,0.86115,-0.12969,-0.47544,-0.84416,-0.02054,-0.24685,6.79998,0.73891,-0.61016
-0.32702,1.01427,-0.46708,0.06218,0.01358,0.03823,1.02513,-0.03394,-0.05371,-0.01321,1.12319,-0.17472,-0.47784,-0.84393,-0.02868,-0.24213,7.25749,1.08328,1.30542
-0.32619,1.01557,-0.46655,0.06226,0.02883,0.03776,1.12547,-0.02778,-0.04174,0.06229,1.01787,0.17498,-0.48033,-0.84359,-0.03763,-0.23710,8.45377,0.44266,1.07537
-0.32511,1.01686,-0.46583,0.06607,0.04087,0.04037,1.10688,-0.04693,-0.02420,0.53619,0.65048,0.52893,-0.48179,-0.84323,-0.04424,-0.23428,2.26741,-0.33547,0.85957
-0.32363,1.01789,-0.46496,0.07465,0.04655,0.04467,0.94948,-0.10137,-0.00411,0.99972,0.28664,0.61331,-0.48188,-0.84282,-0.04742,-0.23493,-8.62224,-3.05239,1.36219
-0.32128,1.01866,-0.46385,0.09424,0.04753,0.05150,0.58349,-0.22893,0.03977,1.46478,-0.12912,0.50526,-0.47913,-0.84253,-0.04527,-0.24193,-21.86292,-7.59225,2.39846
-0.31846,1.01918,-0.46275,0.11695,0.04462,0.05692,0.29837,-0.38492,0.05920,1.70043,-0.25770,0.08443,-0.47675,-0.84148,-0.04399,-0.25037,-24.09756,-10.74060,1.03589
-0.31561,1.01965,-0.46183,0.13459,0.04199,0.05861,0.21337,-0.48088,0.01817,1.65709,-0.19404,-0.27705,-0.47713,-0.83950,-0.04582,-0.25591,-15.71002,-10.87549,-1.36649
-0.31166,1.02025,-0.46116,0.16427,0.04160,0.05614,0.36010,-0.59522,-0.13020,1.87681,0.27896,-0.66760,-0.48265,-0.83486,-0.05352,-0.25921,6.06714,-7.79236,-8.55244
-0.30750,1.02139,-0.46093,0.19141,0.04888,0.04793,0.69839,-0.65757,-0.27412,1.92343,0.82949,-1.04511,-0.49072,-0.82958,-0.06698,-0.25789,21.25639,-5.36031,-9.96829
-0.30332,1.02311,-0.46119,0.21300,0.06291,0.03439,1.11424,-0.65054,-0.39913,1.64541,1.63960,-1.68306,-0.50039,-0.82398,-0.08382,-0.25229,31.24839,-2.18716,-8.76922
-0.29854,1.02710,-0.46304,0.23910,0.10677,0.00011,1.87520,-0.48961,-0.49049,1.43046,3.21734,-2.15365,-0.51335,-0.81805,-0.11033,-0.23474,43.78803,8.04390,-4.11849
-0.29416,1.03222,-0.46513,0.25495,0.15897,-0.03137,2.32768,-0.33119,-0.36765,1.34289,4.19279,-1.99835,-0.51907,-0.81552,-0.13303,-0.21864,35.84853,9.54377,7.93813
-0.28976,1.03763,-0.46700,0.26733,0.20367,-0.05248,2.52081,-0.23295,-0.18787,1.59817,4.70104,-1.72829,-0.52082,-0.81442,-0.15229,-0.20558,26.74364,7.72769,16.07101
-0.28394,1.04668,-0.46984,0.29767,0.29130,-0.08288,2.55009,-0.16435,0.25530,2.06834,4.79804,-1.06506,-0.51291,-0.81871,-0.17060,-0.19373,3.64523,0.39309,24.92377
-0.27770,1.05544,-0.47212,0.32895,0.35916,-0.10025,2.35787,-0.20458,0.61040,2.45400,4.86445,-1.18217,-0.50321,-0.82305,-0.18408,-0.18840,-12.88574,-6.77903,25.10738
-0.27071,1.06515,-0.47467,0.36443,0.42700,-0.11787,2.25683,-0.24686,0.89475,2.36654,4.94747,-1.64142,-0.49349,-0.82681,-0.19906,-0.18229,-11.10008,-8.72925,21.24605
-0.26342,1.07576,-0.47766,0.39728,0.49467,-0.13820,2.38319,-0.22521,1.05973,2.04906,5.04807,-1.83609,-0.48683,-0.82830,-0.21821,-0.17115,3.55089,-1.95644,14.06271
-0.25567,1.08802,-0.48100,0.43100,0.57421,-0.15989,2.73046,-0.10153,1.14985,2.07358,5.10578,-1.23401,-0.48309,-0.82750,-0.24184,-0.15289,20.83829,7.37334,7.65316
-0.24761,1.10091,-0.48415,0.46205,0.64698,-0.17418,3.02363,0.01915,1.21238,2.30420,5.45567,-0.82109,-0.47945,-0.82574,-0.26538,-0.13364,20.76511,8.96114,6.49107
-0.23911,1.11531,-0.48710,0.49317,0.72634,-0.18301,3.22594,0.14431,1.30478,2.20471,5.81337,-0.21894,-0.47433,-0.82422,-0.28767,-0.11362,17.55421,10.07834,7.42698
-0.23062,1.13043,-0.48994,0.51727,0.79898,-0.18813,3.21370,0.19281,1.45254,2.07617,6.06296,-0.15174,-0.46566,-0.82454,-0.30635,-0.09720,5.05125,4.11148,10.97133
-0.22170,1.14765,-0.49304,0.54240,0.88735,-0.19572,2.96721,0.19532,1.66116,1.62555,6.43347,-0.46523,-0.45286,-0.82809,-0.31934,-0.08493,-13.66305,-4.07481,14.80237
-0.21300,1.16650,-0.49632,0.55927,0.98169,-0.20456,2.74762,0.22370,1.85213,0.58654,7.24376,-0.88443,-0.43927,-0.83205,-0.33097,-0.07207,-18.62265,-5.35369,13.75807
-0.20488,1.18755,-0.49976,0.56369,1.08803,-0.21376,2.70402,0.35228,2.01365,-0.10200,8.54516,-0.79521,-0.42654,-0.83463,-0.34435,-0.05371,-7.36898,3.84113,13.19383
-0.19737,1.21270,-0.50288,0.55836,1.23632,-0.21597,2.98338,0.51629,2.15774,-0.47528,10.46882,0.02750,-0.41461,-0.83315,-0.36490,-0.02845,12.33622,11.66998,8.41027
-0.19025,1.24031,-0.50576,0.54860,1.39325,-0.21426,3.07155,0.79928,2.41305,-0.51141,11.96440,0.59774,-0.39954,-0.83439,-0.37969,0.00045,11.45171,16.95643,18.35667
-0.18330,1.27010,-0.50830,0.53785,1.54631,-0.20766,2.86198,0.82228,2.60919,-1.03742,13.37894,1.13503,-0.38176,-0.83794,-0.38952,0.01982,-7.91495,6.17365,18.85396
-0.17846,1.30750,-0.50982,0.49794,1.78137,-0.18711,2.46497,0.67366,3.00801,-4.03380,16.29652,1.75359,-0.35459,-0.84679,-0.39507,0.03373,-25.05684,-19.56150,23.92755
-0.17788,1.35002,-0.50914,0.40044,2.05210,-0.13650,2.73740,0.75181,3.51431,-8.40048,18.54969,3.84681,-0.32432,-0.84876,-0.41286,0.06303,10.05116,-4.64739,27.04888
-0.17834,1.39064,-0.50770,0.30985,2.23132,-0.08631,3.11080,0.91238,3.96924,-9.66476,18.16613,5.72274,-0.29253,-0.84690,-0.43296,0.09863,34.14175,18.81490,40.81973
-0.18584,1.44044,-0.50217,0.13483,2.50720,0.01346,3.33683,0.77257,4.73597,-11.86222,15.86309,7.30324,-0.24440,-0.84739,-0.45278,0.13114,24.62291,-5.76055,46.57548
-0.19793,1.49056,-0.49456,-0.07826,2.73940,0.12667,3.24098,0.29820,5.38414,-14.60522,12.71808,7.27491,-0.19072,-0.85020,-0.46717,0.15012,7.34794,-37.28358,35.17586
-0.21091,1.53768,-0.48721,-0.25913,2.87429,0.21171,3.21601,0.03995,5.74824,-16.30867,9.93785,6.80812,-0.14194,-0.84856,-0.48026,0.17074,7.49693,-36.16894,26.96555
-0.22975,1.58522,-0.47785,-0.48704,2.98699,0.30812,3.34215,0.04009,6.04653,-17.30053,6.47529,6.71709,-0.09472,-0.84151,-0.49358,0.19816,10.32663,-7.17317,21.26490
-0.25265,1.63114,-0.46741,-0.72860,3.05381,0.40110,3.40310,0.15662,6.30477,-17.83925,2.91644,6.67336,-0.04860,-0.83203,-0.50317,0.22844,4.53533,6.76748,20.76679
-0.28000,1.67492,-0.45571,-0.98552,3.07124,0.49289,3.30514,0.13858,6.55630,-18.95158,-0.79088,6.79967,0.00007,-0.82297,-0.50772,0.25481,-4.73765,-4.18653,17.64185
-0.31165,1.71482,-0.44298,-1.25414,3.03082,0.58229,3.11487,-0.07595,6.80941,-19.17441,-5.21691,6.29463,0.05262,-0.81440,-0.50821,0.27515,-3.39746,-18.77721,15.63071
-0.34435,1.75127,-0.43020,-1.47995,2.95006,0.65337,2.91787,-0.40698,6.97247,-18.43169,-8.53290,5.89479,0.10613,-0.80528,-0.50643,0.28945,-3.20089,-31.86176,9.45596
-0.38388,1.78093,-0.41519,-1.75783,2.78231,0.74167,2.73701,-0.82746,7.08010,-16.58116,-12.45180,5.34344,0.16129,-0.79527,-0.50253,0.29830,1.69716,-31.92143,1.25118
-0.42242,1.80654,-0.40012,-1.96816,2.58942,0.81413,2.73851,-1.03985,7.07762,-14.11199,-15.06983,4.93245,0.21231,-0.77980,-0.50143,0.30887,7.26210,-17.62222,-1.24159
-0.46013,1.82937,-0.38516,-2.12157,2.39873,0.86904,2.81585,-1.13484,7.01984,-12.04608,-16.85933,4.20091,0.26046,-0.76059,-0.50146,0.31969,9.04331,-5.80692,-4.95833
-0.50122,1.84340,-0.36938,-2.29015,2.11524,0.92330,2.90714,-1.12392,6.92294,-9.45837,-18.88407,2.33711,0.30562,-0.73838,-0.50173,0.33114,7.54284,3.61736,-5.24916
-0.54069,1.85469,-0.35519,-2.40326,1.84673,0.94312,2.83102,-1.08787,6.83506,-6.87485,-20.15065,0.46864,0.34789,-0.71707,-0.49709,0.34305,-3.65179,3.94253,-4.84421
-0.57939,1.86110,-0.34221,-2.48301,1.56224,0.94169,2.66208,-1.11487,6.71585,-4.56556,-21.00445,-0.54049,0.38793,-0.69728,-0.48886,0.35260,-9.23035,-5.06434,-9.76524
-0.61687,1.86557,-0.32972,-2.52449,1.30980,0.93231,2.55119,-1.15720,6.60717,-2.37272,-21.29385,-0.91502,0.42746,-0.67585,-0.48007,0.36062,-8.64134,-6.08706,-10.13640
-0.65354,1.86325,-0.31746,-2.54092,1.01393,0.91804,2.51353,-1.22702,6.43873,0.20676,-21.05104,-1.12999,0.46509,-0.65362,-0.47230,0.36525,-1.62396,-4.32721,-12.38515
-0.68752,1.85470,-0.30582,-2.51522,0.68500,0.89757,2.58338,-1.22343,6.19132,3.13061,-20.23512,-1.60270,0.49929,-0.62939,-0.46818,0.36796,4.39628,3.20101,-14.32191
-0.71878,1.84572,-0.29507,-2.45666,0.41265,0.87079,2.62115,-1.13523,5.96743,5.11864,-19.02174,-2.39283,0.53072,-0.60382,-0.46415,0.37189,2.92919,10.50963,-15.09121
-0.74821,1.83638,-0.28529,-2.38811,0.19478,0.83915,2.57725,-1.05546,5.79744,6.33102,-17.74522,-2.92015,0.56038,-0.57857,-0.45774,0.37644,-4.55045,8.42245,-13.42895
-0.77462,1.82251,-0.27716,-2.29231,-0.04156,0.79126,2.59677,-1.05629,5.55442,7.70643,-16.14036,-3.67873,0.58847,-0.55427,-0.45248,0.37650,-3.13299,4.81851,-14.74883
-0.79887,1.80688,-0.27047,-2.18166,-0.25642,0.72984,2.79445,-1.16176,5.18641,8.56118,-14.63638,-4.77774,0.61621,-0.53034,-0.45132,0.36789,14.67584,2.62553,-23.44635
-0.82084,1.78982,-0.26544,-2.06048,-0.44999,0.65650,2.96318,-1.19343,4.84278,8.78301,-13.48932,-5.95896,0.64147,-0.50612,-0.45130,0.35872,18.43814,7.86064,-26.03459
-0.84181,1.77288,-0.26135,-1.95195,-0.60108,0.58584,2.85912,-1.13557,4.70761,9.04194,-12.43704,-6.59236,0.66459,-0.48200,-0.44522,0.35746,0.38566,6.54131,-15.66865
-0.85833,1.75152,-0.26058,-1.80073,-0.78351,0.48155,2.44175,-1.06958,4.69553,9.86271,-10.99382,-7.08641,0.68474,-0.46093,-0.43107,0.36448,-24.86721,-2.86701,-4.14783
-0.87195,1.72936,-0.26183,-1.63508,-0.94559,0.36643,2.00883,-1.11928,4.73365,11.21649,-9.31236,-7.30008,0.70532,-0.44086,-0.41205,0.37200,-28.08030,-11.84023,0.28006
-0.88514,1.70896,-0.26301,-1.49741,-1.05023,0.27582,1.92379,-1.21113,4.67329,12.15639,-7.84208,-7.30316,0.72721,-0.41853,-0.39757,0.37139,-12.40194,-11.68192,-4.74200
-0.89249,1.68667,-0.26772,-1.30191,-1.15965,0.15244,2.18006,-1.33593,4.49673,12.50928,-5.49283,-7.63977,0.75085,-0.39401,-0.38868,0.36044,16.33613,-1.97341,-9.07542
-0.89863,1.66633,-0.27298,-1.12709,-1.22106,0.04445,2.38560,-1.42198,4.32380,12.80524,-3.54059,-8.08177,0.77284,-0.36972,-0.38004,0.34870,21.92127,3.14468,-11.76924
-0.90018,1.64688,-0.28081,-0.91721,-1.25662,-0.08097,2.23483,-1.54516,4.30481,13.52169,-1.33592,-8.48437,0.79279,-0.34751,-0.36321,0.34467,-3.53900,-6.16850,-4.90359
-0.90180,1.62916,-0.28857,-0.75146,-1.25906,-0.17913,1.98214,-1.73628,4.38525,14.18962,0.77407,-8.36821,0.81266,-0.32539,-0.34016,0.34352,-15.47068,-20.08148,0.35440
-0.89856,1.61349,-0.29893,-0.55159,-1.23140,-0.29378,1.83515,-2.02116,4.48896,14.61191,3.40296,-7.75560,0.83382,-0.30247,-0.31326,0.33931,-8.83384,-24.65998,3.59334
-0.89235,1.60089,-0.31015,-0.34949,-1.16505,-0.39767,1.88613,-2.24966,4.50343,14.48869,6.34135,-6.84673,0.85460,-0.27852,-0.28891,0.32958,5.17347,-16.59205,1.72864
-0.88377,1.59198,-0.32161,-0.15357,-1.05733,-0.48328,1.96447,-2.45086,4.44913,13.93457,9.27895,-5.40745,0.87411,-0.25547,-0.26467,0.31719,15.88389,-14.63639,-0.61244
-0.87473,1.58613,-0.33187,0.00658,-0.92963,-0.53365,1.85921,-2.45090,4.27535,13.18519,12.11556,-3.28625,0.88794,-0.23632,-0.24429,0.30990,3.05702,-6.53159,-9.54043
-0.86265,1.58674,-0.34126,0.17556,-0.73798,-0.56107,1.57638,-2.16649,3.81750,10.97763,15.19710,-0.92704,0.89361,-0.22607,-0.23428,0.30898,-25.12902,17.76848,-32.85583
-0.84992,1.59434,-0.34913,0.32183,-0.48082,-0.56100,1.35592,-1.93924,3.20694,7.85364,17.46387,0.69125,0.89762,-0.22252,-0.22725,0.30515,-7.49210,16.29816,-36.22903
-0.83903,1.60548,-0.35518,0.41446,-0.22149,-0.53510,0.83901,-1.89244,2.50488,6.11724,19.82057,2.33203,0.89760,-0.23024,-0.21536,0.30809,-26.14198,4.05851,-51.16916
-0.82870,1.61951,-0.35993,0.47974,0.02336,-0.49655,0.38468,-1.82824,1.84571,4.95118,21.48587,4.24060,0.89573,-0.24141,-0.20493,0.31209,-33.27223,-2.25636,-58.21795
-0.81695,1.64445,-0.36146,0.55160,0.37524,-0.41899,-0.12480,-1.36959,0.94419,3.52831,22.02792,5.86980,0.88578,-0.26101,-0.20974,0.32136,-26.18017,21.13400,-64.35018
-0.80430,1.67546,-0.36064,0.62503,0.75493,-0.32095,-0.85930,-0.73459,-0.01506,5.73907,26.00858,6.11559,0.86781,-0.28601,-0.22166,0.34054,-36.03904,34.89047,-56.78896
-0.79055,1.71077,-0.35930,0.70053,1.12510,-0.23466,-1.76188,-0.36079,-1.34561,5.51345,26.89281,5.73865,0.83988,-0.33068,-0.23230,0.36234,-56.52454,24.55684,-98.34125
-0.76878,1.76961,-0.35483,0.90194,1.83038,-0.11041,-3.10448,0.62563,-3.77207,11.27553,28.07252,3.52352,0.78242,-0.40337,-0.26568,0.39310,-42.17591,35.06833,-98.35044
-0.72843,1.85181,-0.35556,1.12641,2.28795,-0.07696,-3.77784,1.26006,-5.38799,16.70188,29.27178,0.64259,0.69896,-0.49073,-0.30203,0.42357,-36.54608,29.18111,-103.94430
-0.69551,1.91071,-0.35712,1.38335,2.68918,-0.08483,-4.31591,1.72823,-7.08834,21.26431,28.49939,-1.88112,0.62294,-0.55884,-0.33365,0.43395,-43.01820,18.22930,-118.58450
-0.65738,1.96973,-0.36098,1.66008,3.00415,-0.12445,-4.69564,2.13987,-8.57740,25.68777,24.48114,-4.65781,0.53645,-0.62279,-0.36511,0.43709,-39.60248,9.56997,-128.59250
-0.60015,2.03541,-0.37068,2.16171,3.35030,-0.24242,-5.09525,2.46657,-10.90825,37.69884,18.12017,-10.17791,0.41538,-0.69953,-0.40152,0.42060,-41.03038,-0.90257,-136.81400
-0.53693,2.09316,-0.38362,2.64620,3.51101,-0.38266,-5.44711,2.56896,-12.67132,43.83965,8.57416,-13.47946,0.28822,-0.76166,-0.42514,0.39505,-57.44756,-9.52450,-146.17900
-0.44742,2.14326,-0.40582,3.41676,3.52391,-0.63002,-5.90318,2.77656,-14.85851,52.69407,-7.97935,-17.70773,0.12948,-0.81326,-0.44456,0.35244,-53.84835,-3.20810,-130.44360
-0.34702,2.17527,-0.43309,4.20175,3.26930,-0.91102,-6.21865,2.98467,-16.73780,59.61478,-29.65297,-22.95336,-0.03603,-0.83882,-0.45413,0.29807,-43.22059,0.63660,-130.54230
-0.23923,2.18788,-0.46568,4.91741,2.78479,-1.20779,-6.45979,2.75599,-18.47502,61.41344,-52.61917,-26.58965,-0.20302,-0.84295,-0.44634,0.22134,-67.35234,-8.77766,-122.72440
-0.11627,2.16018,-0.50786,5.69552,1.82294,-1.57826,-6.72142,1.75349,-20.89944,48.43330,-86.88087,-24.83475,-0.38050,-0.81949,-0.41738,0.09723,-120.80130,-19.05429,-137.59170
-0.00453,2.08431,-0.54958,6.15339,0.36468,-1.86240,-7.19315,0.65230,-22.07692,12.24041,-118.22430,-14.12549,-0.52200,-0.77116,-0.36379,-0.02224,-130.18680,9.41067,-95.41736
0.07377,1.96757,-0.58180,6.03160,-1.38072,-1.95201,-7.58350,0.06073,-21.77500,-33.84766,-125.70360,1.71122,-0.62194,-0.71339,-0.30326,-0.11093,-35.69140,27.17846,18.88500
0.10190,1.84359,-0.59611,5.22111,-2.86886,-1.76649,-7.06156,0.36107,-19.17004,-77.13248,-81.66096,21.81753,-0.66840,-0.68092,-0.26661,-0.13604,43.73579,42.15268,109.04020
0.09575,1.74200,-0.59699,4.09642,-3.74046,-1.42955,-5.63621,-0.21732,-15.64634,-78.77396,-43.23359,23.59906,-0.66692,-0.67670,-0.27138,-0.15381,89.73605,-18.73921,286.21580
0.07652,1.66437,-0.59635,2.99649,-4.09722,-1.13618,-3.96429,-0.02609,-12.30339,-62.97753,-7.18776,12.26428,-0.66415,-0.67638,-0.28510,-0.14192,69.37541,-15.15450,223.63880
0.06552,1.60234,-0.60226,2.22673,-4.17136,-0.99403,-0.89080,2.14637,-10.66600,-53.92912,-4.60391,6.88811,-0.70812,-0.62904,-0.31472,-0.06181,256.38080,-30.22818,155.57770
0.05787,1.54258,-0.61075,1.66814,-4.19252,-0.91623,1.75077,3.58123,-10.69405,-40.68517,0.20166,7.42839,-0.77132,-0.53769,-0.34051,0.00104,279.87970,-64.48817,-84.73726
0.04122,1.49292,-0.61636,1.09539,-4.06423,-0.81204,1.41158,3.70473,-9.31393,-29.04837,7.57487,10.79152,-0.79496,-0.51282,-0.32380,0.01411,55.01595,-21.57826,60.73260
0.03341,1.44887,-0.61785,0.76112,-3.87989,-0.66759,-2.40941,2.25481,-7.17607,-13.71198,12.68890,12.62693,-0.78390,-0.56155,-0.25522,-0.07090,-202.79590,55.16112,158.12410
0.03535,1.41362,-0.61488,0.63599,-3.60296,-0.48537,-5.58998,1.23249,-2.75479,-10.82615,15.32819,12.03715,-0.70819,-0.66926,-0.18348,-0.12996,-189.01810,91.15614,363.29740
0.03755,1.37333,-0.61006,0.53690,-3.45394,-0.31281,-6.23114,0.86177,-1.32992,-9.07602,14.83187,13.91053,-0.67936,-0.70094,-0.14296,-0.16347,-115.40680,42.47736,124.55820
0.03587,1.33542,-0.59899,0.40358,-3.30739,-0.08720,-5.90947,0.46013,-0.14049,-9.71260,9.30835,16.07932,-0.65011,-0.72724,-0.12609,-0.18050,17.74253,32.39592,105.42140
0.03206,1.29501,-0.58426,0.26583,-3.22367,0.14535,-5.21137,-0.69119,-0.23820,-11.48144,4.25365,16.06400,-0.64033,-0.72382,-0.13689,-0.21754,46.87020,-67.15784,41.42053
0.02615,1.25268,-0.56982,0.12760,-3.18665,0.32319,-4.84048,-1.71929,-0.64552,-12.66690,2.29243,13.70588,-0.63607,-0.71040,-0.14464,-0.26423,39.68146,-99.01445,5.52239
0.01524,1.21055,-0.55484,-0.05253,-3.15475,0.47034,-4.39039,-2.28415,-0.80557,-14.25171,2.30155,7.76034,-0.63059,-0.69973,-0.15074,-0.30001,19.69071,-54.61550,9.18921
0.00070,1.16808,-0.54221,-0.24853,-3.13455,0.55524,-3.33756,-2.38500,-1.20033,-14.86678,1.54318,4.06864,-0.64051,-0.68155,-0.16447,-0.31335,65.05469,-22.86663,-5.90032
-0.01637,1.12556,-0.53115,-0.44144,-3.11903,0.60158,-2.30796,-2.32525,-1.73825,-13.53787,0.99056,3.02190,-0.65878,-0.65738,-0.17774,-0.31981,89.45673,-13.61336,-23.41715
-0.03835,1.08566,-0.52082,-0.67209,-3.06685,0.62943,-1.60398,-2.12513,-2.13924,-12.30108,4.39146,1.32563,-0.67591,-0.63528,-0.18360,-0.32537,46.54775,0.84099,-20.30832
-0.05922,1.04855,-0.51172,-0.84601,-2.98511,0.63455,-1.68881,-1.79904,-2.06080,-12.32650,6.04018,0.76419,-0.67908,-0.62755,-0.17368,-0.33892,13.67837,16.33758,-1.24040
-0.08067,1.01245,-0.50354,-0.98896,-2.90360,0.62416,-2.24887,-1.29887,-1.89520,-11.72094,6.80890,-1.17257,-0.67609,-0.62720,-0.14750,-0.35744,-33.68897,40.44609,4.41646
-0.10564,0.97926,-0.49721,-1.15372,-2.79798,0.58910,-3.01272,-0.30661,-1.80292,-9.33859,6.18062,-2.49607,-0.67287,-0.63287,-0.10020,-0.36971,-41.34745,65.78139,-4.58958
-0.12890,0.94565,-0.49094,-1.26223,-2.72006,0.56078,-3.54309,0.53257,-1.98625,-6.94650,5.67334,-1.84520,-0.67409,-0.63142,-0.05096,-0.37989,-34.53182,66.10562,-23.94698
-0.15252,0.91328,-0.48381,-1.35214,-2.63643,0.55060,-3.72153,1.09936,-2.28730,-6.04567,6.98335,-0.57472,-0.67930,-0.62340,-0.00728,-0.38713,-14.52952,41.63472,-32.14713
-0.17534,0.88185,-0.47600,-1.41116,-2.56057,0.55328,-3.71374,1.36983,-2.45386,-5.44053,8.43796,0.42833,-0.68325,-0.61410,0.02837,-0.39401,-0.89518,26.95609,-28.31080
-0.20041,0.85711,-0.46720,-1.49130,-2.40632,0.57045,-3.56191,1.61774,-2.53886,-4.17075,10.81490,1.27286,-0.68745,-0.60557,0.06104,-0.39620,9.55058,12.61412,-12.45168
-0.22465,0.83491,-0.45800,-1.54218,-2.24178,0.58902,-3.47251,1.76088,-2.40624,-2.99631,12.49331,1.46364,-0.68618,-0.60092,0.09058,-0.39981,12.02807,8.90130,0.59820
-0.24856,0.81629,-0.44908,-1.57980,-2.06070,0.60069,-3.52586,1.96272,-2.13177,-2.11944,13.06938,0.48226,-0.67873,-0.60094,0.12259,-0.40396,1.39215,17.75821,14.90712
-0.27122,0.80125,-0.44075,-1.59220,-1.86258,0.60184,-3.34149,2.11756,-1.92606,0.30763,12.12780,-0.74336,-0.67404,-0.60055,0.14979,-0.40322,9.46635,14.12176,10.67571
-0.29260,0.78493,-0.43280,-1.58054,-1.72102,0.59586,-2.90307,2.07827,-1.84000,1.66693,11.91683,-1.33947,-0.67529,-0.59688,0.16809,-0.39933,27.89391,1.28778,3.54587
-0.31255,0.77252,-0.42537,-1.55304,-1.55501,0.58482,-2.17155,1.85135,-1.74327,2.10991,12.01663,-0.73894,-0.68236,-0.59300,0.17299,-0.39092,51.26582,-19.82312,2.84787
-0.33132,0.76396,-0.41817,-1.51409,-1.36456,0.57304,-1.52620,1.58604,-1.62568,2.83136,11.89963,-0.35018,-0.68967,-0.58938,0.17419,-0.38293,42.86696,-21.78622,4.50706
-0.34926,0.75593,-0.41092,-1.46769,-1.20157,0.56299,-1.22677,1.40574,-1.53156,3.92873,11.70991,-0.67185,-0.69351,-0.58529,0.18094,-0.37912,23.76865,-15.06422,5.62217
-0.36586,0.74878,-0.40408,-1.41326,-1.06236,0.54946,-1.07316,1.26554,-1.43226,5.25379,11.70829,-1.29417,-0.69563,-0.58143,0.18896,-0.37727,14.73640,-14.79941,6.32424
-0.37342,0.75547,-0.40226,-1.21459,-0.71395,0.45185,-0.90373,1.46701,-0.85452,7.82135,11.38330,-4.98093,-0.68833,-0.59108,0.19709,-0.37145,7.25037,11.79021,21.48456
-0.40500,0.73890,-0.39124,-1.18417,-0.66885,0.43064,-0.88049,1.56378,-0.74542,7.71434,11.27921,-5.37955,-0.68380,-0.59197,0.22331,-0.36349,9.55419,16.60568,23.37051
-0.40981,0.74681,-0.39498,-1.02646,-0.43622,0.29876,-0.65208,2.19253,-0.23112,6.63032,10.02044,-6.31806,-0.66927,-0.61368,0.23999,-0.34334,13.86209,31.43175,20.65979
-0.41768,0.74989,-0.39627,-0.93450,-0.30562,0.22128,-0.32907,2.33885,-0.05000,6.47248,8.89796,-5.41982,-0.66413,-0.62496,0.24805,-0.32684,22.15583,18.07656,11.29519
-0.42400,0.75379,-0.39739,-0.83847,-0.18947,0.16208,0.10688,2.14331,0.04537,7.06259,7.91692,-3.78046,-0.66466,-0.63264,0.24554,-0.31259,31.72251,-8.40052,2.84366
-0.42948,0.75748,-0.39769,-0.75074,-0.10067,0.12662,0.46140,1.80461,0.11189,7.58082,7.05672,-2.51544,-0.66690,-0.63805,0.23838,-0.30219,31.55659,-23.93330,0.75387
-0.43115,0.76330,-0.39813,-0.62624,0.00039,0.09631,0.78477,1.28423,0.19618,8.00402,5.79380,-1.23552,-0.67092,-0.64169,0.22393,-0.29656,24.27006,-32.63184,0.79064
-0.43219,0.76851,-0.39796,-0.51605,0.07391,0.08037,0.87898,0.90271,0.27864,8.00397,4.93113,-0.61872,-0.67214,-0.64488,0.21395,-0.29426,11.35755,-29.78742,2.87298
