posX, posY, posZ, velX, velY, velZ, angVelX, angVelY, angVelZ, accX, accY, accZ, rotX, rotY, rotZ, rotW, angAccX, angAccY, angAccZ
0.21926,1.07319,-0.50231,-0.07747,0.09315,-0.06630,-1.64530,0.51851,0.82248,-0.24771,1.56293,0.70396,0.21394,0.87742,-0.06684,0.42413,59.48341,0.57709,-18.35292
0.21736,1.07707,-0.50199,-0.08620,0.12036,-0.05691,-0.68834,0.55197,0.57051,-0.84254,2.14437,0.15834,0.22493,0.88006,-0.05146,0.41504,65.24371,4.29245,-19.85782
0.21506,1.08144,-0.50221,-0.09925,0.15035,-0.05575,0.35605,0.58415,0.31282,-1.49379,2.32096,-0.77430,0.24179,0.88218,-0.02811,0.40311,76.64839,2.98456,-22.59286
0.21162,1.08670,-0.50333,-0.12711,0.19021,-0.06574,1.90222,0.79053,-0.14245,-1.90660,2.45920,-0.87048,0.27544,0.88354,0.01173,0.37862,97.67980,14.18071,-32.06557
0.20804,1.09185,-0.50496,-0.15150,0.22215,-0.08044,2.96397,0.93555,-0.57026,-1.56879,2.14125,-0.67180,0.30755,0.88160,0.04572,0.35511,82.42309,17.12060,-31.87315
0.20457,1.09657,-0.50721,-0.16952,0.24191,-0.10077,3.44419,1.12720,-0.97791,-1.32433,1.74607,-1.36388,0.33663,0.87853,0.06771,0.33208,56.60078,14.58622,-36.37459
0.20038,1.10192,-0.51133,-0.19447,0.26698,-0.14467,2.50848,1.11544,-0.97428,-0.73916,2.47252,-0.73880,0.34050,0.87973,0.05710,0.32692,-33.22095,14.32969,-2.76420
0.19587,1.10787,-0.51510,-0.21972,0.29569,-0.17615,0.96868,0.32249,-0.77439,-2.64160,2.96617,-3.65791,0.32796,0.87507,0.03259,0.35445,-116.80260,-56.04016,18.23880
0.19020,1.11636,-0.52031,-0.25733,0.35750,-0.22254,-0.00685,0.09005,-0.54601,-2.28240,6.61100,-4.97422,0.31638,0.87449,0.01186,0.36746,-85.59119,-16.70731,11.54727
0.18249,1.12981,-0.52631,-0.31873,0.48100,-0.27214,-0.17384,0.06975,0.07677,-5.16425,8.40352,-3.08728,0.29922,0.87987,0.01285,0.36897,-18.11113,0.76040,45.38268
0.17309,1.14544,-0.53145,-0.39342,0.61258,-0.29985,0.21346,0.08483,0.48462,-5.69302,9.94353,-2.14272,0.29120,0.88408,0.02752,0.36447,19.81904,-0.44549,27.20769
0.16234,1.16326,-0.53667,-0.47330,0.75134,-0.32057,1.12364,0.26249,0.71003,-5.75927,9.65091,-2.08401,0.29288,0.88827,0.05687,0.34922,55.07549,6.91232,21.66483
0.15130,1.18135,-0.54193,-0.53925,0.86220,-0.33752,1.80124,0.45501,0.84400,-5.21025,8.85334,-0.61500,0.29547,0.89181,0.08463,0.33198,68.49609,22.83924,9.61857
0.13919,1.20108,-0.54729,-0.60612,0.97186,-0.35422,2.14548,0.52830,0.97782,-4.80916,7.06661,-0.96054,0.29465,0.89439,0.10804,0.31869,30.73628,6.65105,10.25820
0.12608,1.22131,-0.55319,-0.67539,1.06941,-0.37473,2.28120,0.61235,1.03019,-4.07070,5.33897,-1.49562,0.29362,0.89671,0.12626,0.30620,7.84041,3.91608,6.30196
0.11370,1.24032,-0.55916,-0.71922,1.13051,-0.38996,2.50243,0.76660,0.93263,-3.71444,4.86689,-1.69048,0.29804,0.89772,0.14526,0.29011,11.04941,10.24607,-3.77996
0.10028,1.26030,-0.56520,-0.76905,1.19321,-0.40329,2.91397,1.06983,0.74479,-3.53370,4.14734,-0.72624,0.30866,0.89760,0.16826,0.26597,27.11395,24.96066,-10.30186
0.08648,1.28046,-0.57098,-0.81489,1.24629,-0.40875,3.16971,1.31888,0.57354,-2.96311,3.47802,0.28650,0.31908,0.89661,0.18875,0.24217,21.24006,23.75890,-10.39751
0.07231,1.29989,-0.57605,-0.85631,1.28201,-0.40226,2.85013,1.28532,0.48613,-2.01594,1.98165,0.63944,0.32213,0.89679,0.19691,0.23072,-18.31137,-2.07023,-1.57318
0.05833,1.31942,-0.58029,-0.88830,1.31220,-0.38331,2.72095,1.30371,0.36803,-3.06819,1.85552,2.09359,0.32799,0.89570,0.20755,0.21695,-9.01255,4.13935,-10.86986
0.04324,1.33865,-0.58371,-0.92946,1.33133,-0.35579,2.39691,1.22112,0.39872,-3.24530,1.76952,2.82312,0.32770,0.89650,0.21367,0.20796,-20.57813,-3.87444,1.32313
0.02700,1.35851,-0.58516,-0.97833,1.35888,-0.30433,2.21472,1.17216,0.44515,-3.18476,1.91454,2.92693,0.32720,0.89704,0.22176,0.19771,-18.07047,-7.92101,4.43593
0.01099,1.37839,-0.58630,-1.01411,1.37950,-0.25842,2.46681,1.37186,0.38949,-3.13990,1.99430,3.38623,0.33377,0.89487,0.23824,0.17622,9.13538,8.95867,-1.01065
-0.00606,1.39894,-0.58511,-1.05839,1.40521,-0.18712,3.00832,1.75990,0.29603,-2.55764,1.30547,5.01668,0.34529,0.88972,0.26170,0.14386,33.95820,27.42709,-4.54074
-0.02292,1.41879,-0.58301,-1.09044,1.41704,-0.11607,3.24811,1.94439,0.26583,-1.65809,0.44112,5.84911,0.35312,0.88467,0.28108,0.11686,24.71816,20.03678,-3.52820
-0.03935,1.43825,-0.58017,-1.10861,1.41869,-0.04913,3.26784,1.97424,0.25180,-1.29834,-0.01377,5.71119,0.35852,0.88001,0.29661,0.09523,2.53507,3.12303,0.71561
-0.05585,1.45687,-0.57469,-1.12473,1.40901,0.04347,3.31076,2.05507,0.24219,-0.55463,-1.02706,5.78487,0.36408,0.87463,0.31201,0.07160,3.32483,4.67530,1.62238
-0.07165,1.47473,-0.56892,-1.12672,1.39118,0.12326,3.41139,2.17718,0.10555,-0.13524,-1.29126,5.48123,0.37391,0.86641,0.32767,0.04653,3.90826,9.02622,-9.25924
-0.08735,1.49250,-0.56306,-1.12618,1.37373,0.18692,3.37929,2.27043,0.07104,0.45479,-1.52822,5.57604,0.38099,0.85938,0.34035,0.02199,4.85772,13.63237,-4.63406
-0.10287,1.50952,-0.55528,-1.12321,1.34923,0.26510,2.96991,2.14628,0.16074,0.44121,-1.70746,4.91263,0.38172,0.85754,0.34478,0.00694,-20.69851,-6.97935,6.33973
-0.11785,1.52601,-0.54772,-1.11300,1.32347,0.32569,2.46643,1.96779,0.31055,0.85031,-1.67045,4.04056,0.37900,0.85859,0.34519,-0.00423,-35.45568,-16.90702,14.39659
-0.13288,1.54270,-0.53985,-1.10498,1.30330,0.37727,2.24813,1.99922,0.39521,0.13809,-1.12325,4.09528,0.37916,0.85705,0.34814,-0.02224,-26.70370,-8.09125,10.10923
-0.14774,1.55888,-0.52925,-1.09666,1.27685,0.45659,2.26742,2.17113,0.47782,0.85462,-1.70362,5.32146,0.38039,0.85291,0.35443,-0.04727,0.23199,10.79763,8.23575
-0.16212,1.57488,-0.51844,-1.08320,1.25521,0.52290,2.35266,2.26496,0.49429,1.34909,-1.73812,5.73495,0.38252,0.84664,0.36305,-0.07128,6.20690,7.93071,2.10528
-0.17595,1.59014,-0.50541,-1.06384,1.22671,0.60694,2.45763,2.31687,0.51699,1.58853,-2.26226,6.35310,0.38384,0.83937,0.37287,-0.09538,8.33387,6.15264,1.58813
-0.18930,1.60474,-0.49084,-1.04230,1.19227,0.69459,2.46538,2.23758,0.57832,1.86327,-2.77995,6.35559,0.38245,0.83339,0.38193,-0.11540,4.43193,-2.93768,1.72101
-0.20192,1.61850,-0.47524,-1.01506,1.15315,0.77922,2.37263,2.07753,0.65698,2.18646,-2.84251,5.87445,0.37905,0.82919,0.38918,-0.13152,-4.94397,-11.72668,4.90457
-0.21388,1.63162,-0.45893,-0.98348,1.11185,0.85710,2.30484,1.92270,0.73768,2.37470,-3.07517,5.24786,0.37468,0.82495,0.39677,-0.14714,-3.79407,-12.08704,3.76898
-0.22494,1.64374,-0.44219,-0.94774,1.06471,0.92367,2.21806,1.77370,0.79939,2.66404,-3.58062,4.25436,0.37000,0.82103,0.40361,-0.16157,-4.28672,-12.48418,4.71207
-0.23222,1.65157,-0.42340,-0.85640,0.95429,1.01088,2.07994,1.68697,0.69553,3.66051,-4.21943,1.95013,0.36966,0.81589,0.40897,-0.17441,-4.67945,-0.87011,-4.55691
-0.25221,1.67370,-0.39394,-0.80140,0.89411,1.03170,2.04700,1.76098,0.50669,3.75490,-4.28540,1.07684,0.37255,0.80073,0.42085,-0.20720,-5.39537,4.14715,-10.65705
-0.25956,1.68155,-0.37894,-0.74662,0.83108,1.04206,2.04505,1.91853,0.28245,3.93243,-4.51144,0.47813,0.38031,0.78949,0.42585,-0.22523,-1.31943,13.93346,-14.17189
-0.26622,1.68871,-0.36445,-0.69288,0.76975,1.04300,2.01867,2.10275,0.07239,3.73455,-4.36664,-0.23814,0.38969,0.77737,0.42939,-0.24385,-4.26041,13.79670,-13.75830
-0.27228,1.69518,-0.35051,-0.64119,0.70943,1.03574,1.95840,2.31360,-0.08849,3.73565,-4.23094,-0.71885,0.39977,0.76496,0.43075,-0.26359,-5.22564,16.82428,-9.46442
-0.27779,1.70099,-0.33700,-0.59142,0.65161,1.02396,1.90165,2.51170,-0.21282,3.50969,-4.13367,-0.87634,0.41000,0.75187,0.43125,-0.28392,-4.71689,16.45841,-6.81593
-0.28301,1.70616,-0.32371,-0.54722,0.59602,1.01098,1.80022,2.60680,-0.25802,3.23672,-3.89745,-0.90395,0.41816,0.74044,0.43060,-0.30244,-6.66039,9.63197,-2.35063
-0.28763,1.71104,-0.31054,-0.50416,0.54614,0.99912,1.67238,2.60251,-0.24772,3.21762,-3.42160,-0.67068,0.42424,0.73084,0.42934,-0.31868,-8.69295,1.78860,1.65957
-0.29207,1.71590,-0.29713,-0.46783,0.50703,0.99352,1.59738,2.54183,-0.22215,3.02626,-3.07908,-0.25134,0.42867,0.72148,0.42932,-0.33376,-8.36167,-4.58172,3.34461
-0.29519,1.71953,-0.28348,-0.41965,0.45737,0.99156,1.59302,2.46780,-0.18814,3.21287,-2.84211,0.04525,0.43170,0.71140,0.43088,-0.34912,-0.62969,-4.56886,2.26917
-0.29751,1.72295,-0.26965,-0.36971,0.41286,0.99299,1.61920,2.31101,-0.14436,3.03693,-3.02878,0.10851,0.43262,0.70192,0.43433,-0.36264,1.64935,-8.61215,1.40613
-0.30023,1.72627,-0.25571,-0.33493,0.37596,0.99457,1.61954,2.13402,-0.09705,3.03716,-3.27420,0.10416,0.43257,0.69337,0.43780,-0.37477,1.58944,-12.39671,2.00656
-0.30213,1.72854,-0.24204,-0.29619,0.33253,0.99305,1.53550,1.79082,-0.02009,2.85650,-3.31244,-0.38292,0.42949,0.68926,0.44182,-0.38112,-3.52418,-21.96625,3.12984
-0.30367,1.73025,-0.22905,-0.26040,0.28915,0.98244,1.31536,1.36303,0.07615,2.54508,-3.31044,-1.10080,0.42509,0.69009,0.44400,-0.38200,-12.65902,-31.12213,5.19891
-0.30474,1.73160,-0.21686,-0.22493,0.24952,0.96237,1.01850,0.88205,0.16758,2.58610,-2.59369,-1.66363,0.41978,0.69483,0.44508,-0.37801,-19.28445,-33.35854,5.39367
-0.30559,1.73240,-0.20546,-0.19150,0.20986,0.93341,0.67201,0.31795,0.31979,1.65200,-2.65644,-1.98745,0.41118,0.70448,0.44519,-0.36939,-20.73963,-37.22750,8.18313
-0.30737,1.73393,-0.19372,-0.17854,0.18947,0.91643,0.51337,0.08224,0.39697,1.41635,-2.49609,-2.19372,0.40527,0.70914,0.44536,-0.36679,-20.26757,-34.69333,8.54185
-0.30838,1.73394,-0.18381,-0.15765,0.15239,0.87896,0.31232,-0.18718,0.49620,0.63400,-1.78306,-2.28863,0.39791,0.71684,0.44422,-0.36121,-15.71180,-21.64777,6.01702
-0.30975,1.73386,-0.17471,-0.14539,0.12005,0.83463,0.46289,0.08154,0.56861,0.11810,-1.23836,-2.54921,0.39442,0.71328,0.44406,-0.37213,6.63141,10.77951,3.11551
-0.31107,1.73439,-0.16573,-0.13452,0.10241,0.79678,0.76131,0.59450,0.58193,0.92381,-1.02790,-2.65737,0.39415,0.70239,0.44439,-0.39219,18.58103,35.30198,3.94029
-0.31199,1.73487,-0.15683,-0.12032,0.08806,0.76609,1.05996,1.07438,0.53927,1.39339,-1.37158,-2.45216,0.39535,0.68825,0.44568,-0.41399,22.35706,40.48982,-1.40095
-0.31172,1.73432,-0.14879,-0.09187,0.06225,0.72779,1.37437,1.53650,0.45347,2.70784,-1.97744,-2.51769,0.39773,0.67032,0.44805,-0.43787,20.87162,35.50096,-4.85220
-0.31059,1.73347,-0.14090,-0.05643,0.03697,0.69494,1.38484,1.48315,0.42176,3.38123,-2.36125,-2.42613,0.39611,0.66250,0.45022,-0.44888,5.81816,6.95711,-3.74883
-0.30859,1.73194,-0.13325,-0.01548,0.00700,0.66566,1.19838,1.07407,0.39548,3.24636,-2.33611,-1.93860,0.39176,0.66328,0.45312,-0.44863,-10.75744,-26.85020,-2.33428
-0.30614,1.73010,-0.12537,0.02300,-0.02100,0.64536,1.11219,0.80190,0.30074,2.87297,-1.99754,-1.34321,0.38894,0.66148,0.45772,-0.44906,-12.76214,-29.97207,-6.54767
-0.30212,1.72726,-0.11771,0.07631,-0.05766,0.62656,1.28154,0.86666,0.09408,3.23059,-2.13087,-0.80292,0.38990,0.64982,0.46568,-0.45701,7.28695,1.24670,-12.65339
-0.29749,1.72410,-0.10961,0.12874,-0.09226,0.61783,1.50714,0.97700,-0.14020,4.30085,-2.67911,-0.45172,0.39180,0.63453,0.47564,-0.46650,15.76452,12.36546,-14.51300
-0.29212,1.72047,-0.10123,0.18018,-0.12593,0.61440,1.67665,0.94713,-0.40359,4.68838,-2.87332,-0.32429,0.39366,0.61980,0.48817,-0.47178,13.59205,3.63262,-21.41671
-0.28570,1.71625,-0.09298,0.23490,-0.16042,0.61000,1.80879,0.84018,-0.68476,4.75602,-3.02345,-0.53481,0.39572,0.60508,0.50299,-0.47360,10.90566,-4.22095,-25.41577
-0.27685,1.71026,-0.08524,0.31395,-0.21376,0.59954,1.89889,0.51727,-1.06327,4.27094,-3.17187,-0.64123,0.39732,0.59202,0.52288,-0.46717,3.69104,-14.20523,-24.11925
-0.26878,1.70406,-0.07746,0.36759,-0.26066,0.59111,1.84909,0.09175,-1.33731,3.81023,-3.32780,-0.59554,0.39700,0.58395,0.54157,-0.45616,-3.55174,-23.78410,-22.16375
-0.26065,1.69770,-0.06930,0.41078,-0.29993,0.59007,1.97161,-0.08207,-1.59281,3.07765,-3.34856,-0.11497,0.39724,0.56961,0.56172,-0.44969,0.37944,-18.53357,-23.97331
-0.25165,1.68961,-0.06228,0.45861,-0.35662,0.57240,1.88974,-0.57439,-1.90829,2.83695,-2.83654,-1.81560,0.39599,0.56175,0.58436,-0.43147,-3.82142,-22.42190,-20.56507
-0.24327,1.68281,-0.05580,0.48769,-0.38347,0.55017,1.67979,-0.91975,-2.13256,1.89537,-2.13140,-1.86607,0.39679,0.55620,0.60256,-0.41245,-21.73696,-28.73731,-22.87347
-0.23477,1.67555,-0.04984,0.51205,-0.41090,0.52578,1.62420,-0.97641,-2.33104,1.56454,-1.97960,-1.91364,0.39998,0.54477,0.62002,-0.39851,-11.95570,-10.62284,-19.80637
-0.22497,1.66757,-0.04550,0.55142,-0.44354,0.48270,1.65267,-0.87686,-2.66010,2.37510,-1.05474,-2.47547,0.40770,0.52697,0.63870,-0.38491,2.23912,7.02429,-15.83025
-0.21564,1.66077,-0.04090,0.57531,-0.45227,0.45123,1.90974,-0.58674,-2.79201,1.05920,0.06289,-2.47617,0.41335,0.50294,0.65680,-0.38054,15.27713,14.33570,-16.70335
-0.20654,1.65471,-0.03696,0.59067,-0.44871,0.41778,2.21007,-0.28267,-2.73937,1.29632,0.28624,-3.29901,0.41600,0.47736,0.67298,-0.38231,35.27567,24.13893,5.62392
-0.19721,1.64967,-0.03475,0.60691,-0.43149,0.36629,2.09762,-0.34744,-2.65206,1.62489,0.89097,-3.70177,0.41650,0.46422,0.68615,-0.37447,0.01464,0.17653,7.05446
-0.18744,1.64501,-0.03274,0.62570,-0.41186,0.32165,1.79765,-0.56500,-2.66275,1.35694,1.64768,-2.79606,0.41774,0.45695,0.69878,-0.35834,-27.47124,-12.70102,-4.28041
-0.17706,1.64046,-0.03088,0.65002,-0.39479,0.28380,1.66393,-0.65366,-2.71109,2.01626,1.18834,-2.46265,0.41958,0.44536,0.71213,-0.34420,-13.21646,-5.33832,-2.22186
-0.16621,1.63564,-0.02899,0.67589,-0.38551,0.25464,1.57782,-0.67764,-2.83080,2.28621,0.57503,-2.25408,0.42325,0.43115,0.72574,-0.32904,-6.86436,-0.35832,-8.38901
-0.15431,1.63074,-0.02752,0.71101,-0.37872,0.22521,1.69164,-0.63527,-2.97756,1.95309,0.49557,-1.42267,0.42641,0.41067,0.74153,-0.31569,4.09671,1.19118,-11.00317
-0.14269,1.62554,-0.02556,0.73543,-0.37770,0.20858,1.89314,-0.56979,-3.03106,1.97367,-0.10460,-1.12889,0.42745,0.38765,0.75722,-0.30600,17.05872,3.49507,-3.12131
-0.13075,1.61995,-0.02355,0.75958,-0.38259,0.19629,2.13837,-0.54357,-3.09574,1.65583,-0.56908,-0.70403,0.42674,0.36200,0.77399,-0.29628,18.49419,-0.25303,-3.57777
-0.11827,1.61388,-0.02137,0.78628,-0.39302,0.18845,2.35567,-0.55776,-3.19268,1.89841,-0.80398,-0.26583,0.42514,0.33507,0.79114,-0.28475,14.36107,-3.19377,-5.23690
-0.10547,1.60749,-0.01864,0.81292,-0.40641,0.19024,2.52758,-0.61419,-3.32053,1.89958,-1.21940,0.50048,0.42271,0.30763,0.80827,-0.27089,11.31564,-3.72917,-8.68465
-0.09274,1.60024,-0.01523,0.83341,-0.42973,0.20128,2.74340,-0.71772,-3.44356,1.11217,-2.05724,1.14179,0.41754,0.27803,0.82621,-0.25640,12.44188,-8.24790,-10.26254
-0.08046,1.59168,-0.01110,0.84255,-0.46672,0.22045,3.09382,-0.85506,-3.52744,0.17110,-3.17757,1.60642,0.40802,0.24372,0.84543,-0.24367,20.29338,-12.31371,-7.07045
-0.06913,1.58192,-0.00666,0.83664,-0.51353,0.24002,3.29027,-1.06127,-3.66311,-0.60887,-3.77567,1.27891,0.39678,0.21101,0.86415,-0.22647,16.69616,-16.96999,-10.93646
-0.05849,1.57103,-0.00187,0.82241,-0.56769,0.26092,3.42781,-1.27860,-3.78305,-1.56480,-4.21124,1.53749,0.38377,0.17892,0.88180,-0.20770,4.23168,-14.18579,-12.72421
-0.04895,1.55859,0.00298,0.79446,-0.63254,0.27819,3.63902,-1.47233,-3.86891,-2.53816,-5.02497,1.12189,0.36816,0.14360,0.89873,-0.19005,11.18416,-15.72137,-9.68949
-0.04085,1.54447,0.00775,0.75181,-0.70863,0.29093,3.82788,-1.67346,-3.96715,-3.69865,-5.89831,0.70595,0.35044,0.10728,0.91455,-0.17114,10.99883,-16.12965,-9.12627
-0.03472,1.52852,0.01211,0.68978,-0.79627,0.29532,4.21782,-1.90362,-3.97238,-5.44819,-6.28450,0.32732,0.32718,0.06515,0.92963,-0.15653,15.60388,-17.64148,-7.05864
-0.03104,1.51068,0.01550,0.60468,-0.89288,0.28471,4.95356,-2.24727,-3.77656,-7.13974,-6.96439,-1.11435,0.29304,0.01328,0.94388,-0.15182,36.94649,-36.84588,6.75306
-0.02919,1.49207,0.01765,0.51171,-0.97951,0.25881,5.73983,-2.68189,-3.51260,-8.58872,-7.19028,-2.77166,0.25032,-0.04321,0.95525,-0.15158,47.83923,-53.90575,13.02726
-0.03155,1.47140,0.01740,0.37995,-1.07734,0.20506,6.56824,-3.32912,-3.20757,-10.33024,-6.85879,-5.01571,0.19457,-0.10333,0.96309,-0.15466,45.72086,-66.01215,9.14724
-0.03760,1.45026,0.01434,0.22245,-1.16278,0.12256,7.14164,-4.03765,-3.08669,-12.02620,-5.62828,-7.41469,0.13295,-0.16051,0.96626,-0.15131,31.91322,-62.48053,-5.75875
-0.04738,1.42950,0.00790,0.04358,-1.22451,0.00915,7.37683,-4.66225,-3.21104,-13.28062,-3.46317,-9.66609,0.07067,-0.21181,0.96495,-0.13786,17.16380,-45.15528,-23.07196
-0.06423,1.41058,-0.00472,-0.20512,-1.24979,-0.17297,7.16463,-5.21284,-3.69704,-14.09481,0.50198,-11.37185,0.00938,-0.25149,0.96169,-0.10875,-3.00666,-12.48411,-40.32528
-0.07873,1.39479,-0.01643,-0.37316,-1.22674,-0.30730,6.85703,-5.46912,-4.09677,-14.11073,3.40080,-11.55369,-0.04501,-0.28605,0.95391,-0.07872,-9.26510,3.73095,-45.39024
-0.09883,1.38335,-0.03350,-0.58730,-1.14384,-0.49148,6.43180,-5.94255,-4.50242,-13.13818,7.22933,-11.40713,-0.10822,-0.31202,0.94277,-0.04598,-15.54761,-1.94102,-44.11565
-0.11851,1.37561,-0.05148,-0.75499,-1.02347,-0.65419,6.05241,-6.57427,-4.69622,-11.65855,10.68525,-11.75752,-0.17876,-0.33312,0.92557,-0.01990,-21.75118,-19.39257,-42.37235
-0.13783,1.37145,-0.07070,-0.88193,-0.87814,-0.80013,5.68078,-7.25552,-4.78607,-10.16384,14.30465,-12.43276,-0.25381,-0.34890,0.90214,0.00193,-30.26909,-29.64366,-44.63828
-0.15950,1.37719,-0.09635,-1.01563,-0.61806,-1.00857,5.05860,-8.20800,-4.87448,-6.89516,19.32401,-13.69350,-0.33999,-0.35062,0.87240,0.01990,-37.06104,-36.34657,-47.25129
-0.17844,1.38899,-0.12370,-1.08470,-0.31961,-1.20265,4.31093,-8.97506,-4.94710,-2.83136,24.14365,-14.45294,-0.42300,-0.34285,0.83804,0.03501,-47.24031,-29.89237,-54.03064
-0.19445,1.40563,-0.15207,-1.09753,-0.01647,-1.37013,3.59315,-9.34050,-5.07768,1.54222,26.29134,-14.17005,-0.49629,-0.32967,0.80144,0.05202,-47.95380,-13.28463,-57.18413
-0.20653,1.43320,-0.18432,-1.05044,0.37786,-1.55528,2.91236,-9.29326,-5.28833,6.92814,33.12336,-13.03074,-0.55831,-0.31219,0.76513,0.07348,-6.90160,5.36819,-41.46593
-0.21230,1.47099,-0.21747,-0.92426,0.83799,-1.71717,1.96769,-9.26831,-5.24491,11.04078,34.26775,-10.34311,-0.61590,-0.28297,0.73067,0.08194,-50.48001,35.33029,-29.61542
-0.21151,1.51686,-0.25035,-0.73063,1.32180,-1.84420,0.74527,-9.41662,-5.37005,16.61601,36.34967,-7.85727,-0.67633,-0.23623,0.69242,0.08559,-53.94889,21.11745,-57.87628
-0.20318,1.57181,-0.28274,-0.46845,1.83710,-1.93764,-0.86811,-9.68809,-5.53245,20.51002,38.91055,-5.69181,-0.73666,-0.16871,0.65030,0.07735,-70.97520,27.80828,-75.60462
-0.18310,1.64137,-0.31473,-0.08632,2.46668,-2.00852,-3.40223,-10.29175,-6.22000,27.59951,42.39410,-3.31682,-0.80014,-0.05601,0.59458,0.05582,-94.53633,0.09046,-126.38560
-0.15914,1.70889,-0.34442,0.27391,2.93939,-2.03277,-5.70934,-10.71295,-7.10099,36.63202,41.49598,-2.81085,-0.84764,0.07027,0.52483,0.03343,-88.24165,-4.89602,-183.03620
-0.11886,1.79064,-0.37469,0.78931,3.51570,-2.06176,-8.54589,-10.26746,-8.60568,42.05564,41.63433,-2.02270,-0.85726,0.23724,0.45687,0.00974,-73.29050,5.95730,-216.20660
-0.04897,1.89083,-0.40838,1.64671,4.25508,-2.13366,-10.51556,-8.60009,-11.54448,57.91031,39.54844,-4.61215,-0.81341,0.42624,0.39492,0.02705,29.77505,-26.29670,-209.21730
0.03583,1.98556,-0.44339,2.57352,4.78427,-2.21389,-10.72031,-6.79351,-14.29581,77.60385,34.49799,-5.96808,-0.73797,0.58101,0.33543,0.07283,98.82700,-93.05524,-186.21890
0.14106,2.07544,-0.47887,3.59317,5.12277,-2.28161,-9.93973,-5.60994,-16.85718,94.27886,20.62261,-3.36157,-0.63772,0.71067,0.26276,0.13863,96.13211,-142.41630,-160.07110
0.29170,2.15654,-0.51151,5.04833,5.25627,-2.29126,-7.25608,-5.01430,-19.65621,115.80270,-4.80366,6.66885,-0.50667,0.80033,0.18947,0.25856,59.30708,-233.03190,-90.79205
0.47893,2.20673,-0.53084,6.73665,4.91474,-2.10589,-4.37826,-5.33183,-22.34101,124.33880,-47.97637,20.82487,-0.34207,0.84958,0.09534,0.39000,-25.61156,-303.24110,-90.67294
0.68971,2.20220,-0.52659,8.42342,3.85287,-1.61720,-2.99723,-5.75327,-23.99624,113.59430,-104.90080,47.18690,-0.17089,0.86671,-0.01371,0.46842,-67.64275,-143.31570,-82.58294
0.89532,2.12997,-0.49085,9.67960,2.02871,-0.77230,-1.56939,-5.00049,-23.93826,63.33302,-149.84310,73.20368,-0.01774,0.85944,-0.07289,0.50570,18.39184,-94.00079,-23.46210
1.06870,2.02553,-0.43417,10.22117,0.14542,0.18618,1.34571,-4.73857,-23.16972,27.55917,-165.36850,87.27816,0.12874,0.81329,-0.08401,0.56119,-0.52921,-181.81860,125.18600
1.21365,1.83141,-0.33242,10.24832,-2.64443,1.59286,5.39627,-3.49490,-24.28745,-24.05465,-199.48320,85.55952,0.35550,0.73221,-0.06662,0.57711,-6.27616,-224.10830,-46.21265
1.30832,1.61335,-0.24143,9.54875,-5.21368,2.56205,10.88249,0.09917,-27.22740,-95.89680,-238.80240,61.47395,0.66070,0.58828,-0.01628,0.46598,114.70810,-340.56160,-280.58720
1.25120,1.27713,-0.16650,6.90702,-8.89267,3.21004,26.56750,6.41025,-28.73883,-229.69530,-213.57010,5.99572,0.94677,0.19097,0.23505,0.10915,272.25670,-346.68700,-909.47440
1.07485,0.99393,-0.16678,3.12229,-11.20968,2.72787,40.09316,0.61222,-26.53381,-294.92290,-104.10730,-64.25751,0.83753,-0.35898,0.39362,-0.12144,428.60510,476.76160,-996.95450
0.84002,0.83252,-0.23555,-0.81381,-11.39615,1.22545,37.61697,-9.92623,-25.13280,-239.05870,66.97883,-106.30730,0.63037,-0.65492,0.40866,-0.08192,394.64850,741.13730,-258.13950
0.66646,0.79666,-0.31151,-3.10490,-9.62479,-0.09761,25.09789,-9.63142,-23.87133,-93.46459,150.88360,-60.06474,0.63587,-0.67884,0.35723,0.08508,-26.56000,764.34070,528.68160
0.58216,0.81056,-0.33714,-3.67632,-7.49039,-0.43840,15.39296,-7.21177,-18.52610,13.08316,121.74930,3.73732,0.67590,-0.60081,0.37084,0.21133,-280.19060,509.50900,543.38450
0.54715,0.79569,-0.32760,-3.43077,-6.17867,-0.20649,11.28156,-9.17827,-12.54599,24.66243,75.13036,25.32579,0.62289,-0.57347,0.48905,0.20971,-550.04720,75.77690,89.79272
0.52104,0.76689,-0.29894,-3.12564,-5.34104,0.22960,6.62159,-8.73889,-8.41101,10.40166,50.10526,34.48792,0.59376,-0.51602,0.56616,0.24623,-457.07080,76.11322,79.10930
0.48849,0.73595,-0.25303,-2.96346,-4.68205,0.83098,0.95560,-3.89051,-6.03007,4.42890,33.75241,35.59483,0.63163,-0.40179,0.54757,0.37388,-255.67160,415.34860,101.77920
0.44877,0.69519,-0.21503,-2.93754,-4.31113,1.20850,-1.87396,-0.22149,-5.19409,2.28117,33.18964,28.25453,0.65156,-0.33160,0.49475,0.46982,-153.84350,426.70380,35.10706
0.40958,0.66688,-0.17499,-2.93219,-3.84915,1.53406,-3.56019,2.53405,-4.92255,3.11251,35.84201,20.11173,0.65914,-0.27495,0.42940,0.55277,-49.57344,274.67420,-14.00894
0.37250,0.64684,-0.13807,-2.89256,-3.35626,1.74726,-4.23449,3.38258,-5.16440,7.20507,35.84809,12.31128,0.64156,-0.25676,0.38309,0.61296,-29.08351,105.98270,-37.45871
0.34095,0.63306,-0.10473,-2.77467,-2.87422,1.87217,-4.65909,2.92349,-5.04814,12.62785,34.14987,6.64630,0.60965,-0.25098,0.36886,0.65520,-31.88416,-1.82780,5.93281
0.31665,0.62315,-0.07488,-2.57881,-2.43572,1.92604,-5.08679,2.20949,-4.32144,15.50900,29.37320,1.16022,0.57647,-0.23625,0.37526,0.68633,-39.14569,-28.98060,62.17313
0.29765,0.61380,-0.04868,-2.34295,-2.07506,1.91472,-5.31960,2.05238,-3.10612,16.37891,23.24546,-3.13114,0.55655,-0.20245,0.38324,0.70879,-8.68883,13.47715,84.20549
0.28094,0.60431,-0.02652,-2.12122,-1.79093,1.84820,-5.27157,2.44116,-1.87604,13.77144,19.25234,-6.93172,0.54950,-0.15664,0.38369,0.72546,14.73596,47.22781,80.87837
0.26748,0.59860,-0.01015,-1.90726,-1.50327,1.70928,-4.68913,3.69752,-1.11103,10.75305,18.17162,-11.27727,0.56280,-0.10360,0.35575,0.73890,47.06246,83.15334,21.71673
0.25034,0.59150,0.00359,-1.78290,-1.29444,1.56026,-3.95451,4.74416,-1.07409,8.93949,17.77514,-14.15364,0.57633,-0.06378,0.31221,0.75253,58.74406,85.51949,-28.44170
0.23501,0.59285,0.00871,-1.65634,-1.00435,1.31401,-2.97729,5.28789,-1.21759,8.06959,18.97956,-16.72127,0.59385,-0.03810,0.26825,0.75758,59.06302,40.99799,-46.42903
0.21741,0.59413,0.01315,-1.58975,-0.77600,1.11015,-2.48005,4.88192,-1.26380,4.17682,18.60882,-17.30807,0.59580,-0.02648,0.24656,0.76389,41.59737,-24.31547,-12.68120
0.19871,0.59883,0.01241,-1.55352,-0.54694,0.87627,-1.74332,4.42175,-1.79831,0.35267,14.64231,-16.44241,0.60229,-0.03245,0.21478,0.76816,31.34637,-46.92392,-32.46679
0.17817,0.60374,0.00858,-1.54440,-0.36176,0.64050,-0.79611,3.84323,-2.66026,1.27679,9.36595,-13.50509,0.61376,-0.05589,0.17472,0.76789,37.07483,-43.85326,-71.83885
0.15886,0.60607,0.00639,-1.52165,-0.24931,0.47516,-0.15029,3.23736,-3.09799,2.40942,6.70564,-10.23594,0.62214,-0.07590,0.14435,0.76573,27.05806,-57.54763,-43.46239
0.14061,0.60661,0.00645,-1.48447,-0.18863,0.38050,0.27252,3.00826,-3.33719,4.46789,5.52290,-8.77269,0.63048,-0.08660,0.11119,0.76330,27.02150,-42.23624,-35.95045
0.12684,0.60920,0.00289,-1.38842,-0.11340,0.25501,0.85470,2.77776,-3.49206,7.64451,3.62641,-6.66506,0.64453,-0.09980,0.07891,0.75392,31.21991,-23.79947,-25.56271
0.11688,0.61151,-0.00033,-1.25337,-0.05564,0.15675,1.16125,2.41827,-3.23452,9.91962,2.86324,-5.47735,0.65514,-0.10729,0.06064,0.74539,19.43198,-23.85004,4.97560
0.10487,0.61252,-0.00092,-1.17628,-0.02984,0.11753,1.17639,2.07680,-2.94756,10.47093,2.66864,-4.35596,0.66007,-0.11284,0.04708,0.74118,9.75154,-33.77866,20.53497
0.10088,0.61555,-0.00297,-1.00398,0.01776,0.06733,0.92805,1.31837,-2.14019,11.71235,2.76473,-2.17468,0.65934,-0.11720,0.06190,0.74007,-17.53658,-50.27968,47.22370
0.10071,0.61857,-0.00338,-0.80605,0.05610,0.04925,0.49544,0.89517,-1.21851,12.61978,1.52407,0.33919,0.65482,-0.10952,0.07980,0.74354,-23.58082,-32.32779,57.80299
0.10165,0.62068,-0.00243,-0.62927,0.07424,0.05330,0.06863,0.92921,-0.52041,12.05663,1.28132,0.55556,0.64904,-0.09247,0.08820,0.74994,-28.55854,-3.45684,58.31039
0.10443,0.62228,-0.00162,-0.45994,0.08064,0.05545,-0.03430,1.35878,-0.18491,11.24714,0.73501,0.09876,0.64944,-0.07091,0.08100,0.75276,-11.92997,22.08041,34.56326
0.10731,0.62326,-0.00118,-0.32538,0.07703,0.05170,0.11623,2.04841,-0.28312,10.35290,-0.13576,-0.40938,0.65516,-0.04910,0.05522,0.75187,7.23326,48.55449,3.81772
0.11396,0.62343,-0.00133,-0.16412,0.06275,0.04019,0.41743,2.98816,-0.66539,10.00497,-1.16113,-1.04229,0.66438,-0.02433,0.01147,0.74691,18.82394,63.96769,-28.06963
0.12024,0.62362,-0.00180,-0.03707,0.05198,0.02668,0.44176,3.35256,-0.75412,9.50198,-1.23864,-1.35748,0.66705,-0.00433,-0.01694,0.74481,6.41615,37.20850,-13.99269
0.12855,0.62369,-0.00274,0.09582,0.04137,0.00874,0.20276,3.19533,-0.39900,8.50308,-1.10202,-1.41274,0.66367,0.01406,-0.02366,0.74752,-8.58042,-3.91543,20.09600
0.13692,0.62359,-0.00388,0.20231,0.03071,-0.00952,-0.09760,2.79559,0.10703,7.43575,-0.87382,-1.57530,0.65760,0.03048,-0.01838,0.75252,-14.01606,-26.57963,39.50599
0.14567,0.62317,-0.00574,0.29816,0.01694,-0.03399,-0.30439,2.40698,0.55748,6.53475,-0.78930,-1.69305,0.65196,0.04607,-0.01022,0.75679,-10.41212,-28.42919,38.02659
0.15505,0.62264,-0.00824,0.38316,0.00459,-0.06360,-0.38773,2.22814,0.82378,5.45806,-0.75433,-2.10104,0.64788,0.06275,-0.00722,0.75912,-3.87004,-19.34395,26.67466
0.16444,0.62176,-0.01096,0.44627,-0.00931,-0.09000,-0.35794,2.24289,0.80282,4.86905,-0.89339,-2.02246,0.64604,0.07819,-0.01387,0.75916,2.03697,-2.60031,5.16772
0.17449,0.62070,-0.01398,0.51225,-0.02162,-0.11547,-0.33649,2.34941,0.66029,4.77171,-0.45148,-1.53845,0.64401,0.09317,-0.02595,0.75888,0.99272,4.92008,-9.18758
0.18554,0.62029,-0.01719,0.57896,-0.02175,-0.13924,-0.37093,2.53945,0.49041,5.20962,0.39941,-1.74083,0.64034,0.10954,-0.04202,0.75908,-4.39816,12.28817,-13.66504
0.19824,0.62100,-0.02088,0.65049,-0.00656,-0.16505,-0.48587,2.71120,0.44119,5.46592,1.36404,-2.01553,0.63382,0.12840,-0.05649,0.76066,-8.11647,12.98531,-5.41066
0.21203,0.62300,-0.02532,0.73200,0.02432,-0.19947,-0.65670,2.81829,0.55212,5.50719,2.19020,-2.68611,0.62455,0.14964,-0.06652,0.76363,-10.37205,8.63876,5.72625
0.22526,0.62526,-0.02980,0.78306,0.05215,-0.22633,-0.73332,2.80027,0.73996,5.49904,3.07030,-3.17511,0.61641,0.17033,-0.07132,0.76547,-7.00174,2.30078,15.10796
0.24133,0.63046,-0.03695,0.86235,0.11670,-0.28501,-0.82847,2.74824,1.10828,4.66276,4.77353,-4.41015,0.60609,0.19492,-0.06940,0.76802,-1.83976,-2.18345,25.15987
0.25718,0.63722,-0.04619,0.92521,0.19505,-0.36305,-0.79660,2.74316,1.33193,3.37767,5.43278,-5.42686,0.59836,0.21871,-0.06982,0.76763,3.25525,-0.30171,17.13593
0.27235,0.64478,-0.05659,0.96534,0.26985,-0.44348,-0.70684,2.77932,1.39453,2.63895,5.45381,-6.00931,0.59248,0.24090,-0.07400,0.76515,6.04087,4.08568,3.49954
