posX, posY, posZ, velX, velY, velZ, angVelX, angVelY, angVelZ, accX, accY, accZ, rotX, rotY, rotZ, rotW, angAccX, angAccY, angAccZ
0.24875,1.22422,-0.48017,-0.24067,0.38416,-0.23204,0.50714,0.50889,0.20965,-2.16970,3.07847,-0.69725,0.08765,0.83546,-0.05165,0.54006,5.10462,-4.35220,-0.27655
0.24442,1.23248,-0.48438,-0.25623,0.42846,-0.24517,0.51172,0.57504,0.34308,-0.48174,4.29603,-1.21675,0.08437,0.83921,-0.04581,0.53527,-1.85823,0.88445,4.62619
0.24034,1.24271,-0.48900,-0.26619,0.49338,-0.26058,0.68862,0.66749,0.40890,-1.36099,3.56060,-0.68217,0.08512,0.84389,-0.03596,0.52850,8.07493,8.16444,6.23078
0.23508,1.25335,-0.49316,-0.29125,0.55205,-0.26733,1.07235,0.71410,0.39845,-1.76256,3.51076,-0.46613,0.09208,0.84790,-0.02065,0.52169,21.25559,3.52805,-1.62717
0.22979,1.26414,-0.49720,-0.31306,0.60311,-0.27073,1.58167,0.81838,0.30374,-1.56679,3.70188,-0.22634,0.10477,0.85257,-0.00140,0.51200,33.32924,7.68656,-5.94260
0.22439,1.27544,-0.50103,-0.33091,0.64909,-0.26988,2.03324,0.88443,0.19964,-1.68808,3.99535,0.41674,0.11936,0.85634,0.01908,0.50207,38.27390,9.55278,-10.17315
0.21827,1.28844,-0.50439,-0.35665,0.71287,-0.26215,2.55118,0.88308,0.06492,-1.72818,4.27407,0.68646,0.13813,0.85814,0.04335,0.49258,33.47124,2.54389,-10.67123
0.21213,1.30144,-0.50801,-0.38219,0.77224,-0.25722,2.84189,0.84541,-0.01131,-2.22493,4.76477,0.38078,0.15379,0.85882,0.06487,0.48433,24.16829,-1.07081,-8.41125
0.20514,1.31528,-0.51190,-0.41300,0.82786,-0.25719,2.94811,0.82373,-0.00131,-3.06158,5.09534,0.01918,0.16536,0.85957,0.08421,0.47613,12.65257,-1.60419,-2.90133
0.19631,1.33107,-0.51600,-0.46245,0.89675,-0.26176,2.98389,0.82732,0.10680,-3.93817,5.07294,-0.56296,0.17312,0.86073,0.10369,0.46736,2.72540,-2.82684,5.04522
0.18610,1.34795,-0.52013,-0.52142,0.96532,-0.26855,3.15789,0.97572,0.25920,-4.39929,4.68028,-0.71993,0.18125,0.86347,0.12765,0.45307,9.43882,5.33657,12.55877
0.17499,1.36547,-0.52420,-0.58064,1.02811,-0.27233,3.42942,1.23137,0.35690,-4.22750,4.23977,-0.05768,0.19238,0.86685,0.15433,0.43329,19.28609,15.77198,10.16882
0.16328,1.38323,-0.52780,-0.63687,1.08259,-0.26808,3.63594,1.45112,0.41573,-4.09084,3.63292,0.90859,0.20386,0.86938,0.18013,0.41251,17.78135,16.31033,7.19396
0.15167,1.40037,-0.53093,-0.68211,1.12063,-0.25663,3.65424,1.53320,0.45141,-3.84953,3.06272,1.63281,0.21302,0.87051,0.20184,0.39510,8.16217,10.16908,5.43295
0.13905,1.41796,-0.53345,-0.73205,1.15648,-0.23725,3.41102,1.44877,0.50181,-3.67743,2.42264,1.89741,0.21703,0.87090,0.21719,0.38375,-11.59663,-3.54943,4.15802
0.12549,1.43551,-0.53535,-0.78729,1.18836,-0.21107,3.15639,1.35542,0.54225,-3.51808,1.79744,1.31983,0.21983,0.87109,0.23060,0.37376,-19.82870,-10.31747,3.01529
0.11187,1.45220,-0.53715,-0.83889,1.21181,-0.18173,3.27558,1.52655,0.53412,-3.39630,1.29094,1.76980,0.22946,0.87125,0.25098,0.35395,4.31842,8.02939,1.89844
0.09825,1.46894,-0.53867,-0.87555,1.22333,-0.15595,3.49007,1.74899,0.51128,-3.14872,0.90298,2.37768,0.24160,0.87042,0.27387,0.33013,15.34894,18.34230,0.51923
0.08314,1.48620,-0.53829,-0.92241,1.23183,-0.11527,3.68909,1.99532,0.49654,-2.84117,0.23877,2.88875,0.25423,0.86900,0.29679,0.30352,14.27497,17.16026,0.88347
0.06852,1.50295,-0.53788,-0.95307,1.23176,-0.08279,3.71419,2.12058,0.48722,-2.48482,-0.11085,3.04820,0.26450,0.86707,0.31610,0.27984,6.40381,12.92631,1.58621
0.05308,1.51931,-0.53647,-0.98919,1.22565,-0.04076,3.50552,2.14368,0.51739,-2.15460,-0.59203,2.84961,0.27045,0.86636,0.32986,0.25976,-10.14223,1.82888,4.16714
0.03781,1.53528,-0.53483,-1.01493,1.21428,-0.00471,3.26016,2.11494,0.54177,-1.72990,-0.97759,2.54362,0.27502,0.86562,0.34146,0.24182,-17.89371,-4.45773,4.00561
0.02285,1.55080,-0.53306,-1.03153,1.20016,0.02633,3.12319,2.14089,0.53851,-1.35126,-1.25258,2.48419,0.28113,0.86406,0.35364,0.22207,-14.27956,-0.60838,2.41096
0.00756,1.56543,-0.53015,-1.04843,1.17435,0.06892,3.05257,2.26128,0.51389,-1.03241,-1.84039,2.70811,0.28908,0.86208,0.36560,0.19896,-5.22412,7.07734,0.87814
-0.00757,1.57973,-0.52720,-1.05896,1.14997,0.10257,3.01242,2.36122,0.50151,-0.86085,-2.14826,3.04054,0.29686,0.85932,0.37774,0.17537,-3.52513,8.90804,1.33507
-0.02282,1.59269,-0.52357,-1.07098,1.11548,0.14249,2.87281,2.37161,0.50943,-0.85099,-2.65966,3.17489,0.30245,0.85708,0.38736,0.15456,-5.64947,3.58183,1.71600
-0.03837,1.60258,-0.51795,-1.08519,1.03556,0.21332,2.28540,2.19892,0.53188,-0.24942,-3.00392,2.22828,0.30266,0.85945,0.38647,0.14275,-21.79812,-7.50386,2.16555
-0.06858,1.62849,-0.51035,-1.08668,0.99686,0.24032,2.14192,2.20386,0.53275,-0.15425,-3.28881,2.07175,0.31147,0.85508,0.40093,0.10524,-14.86646,-2.92640,2.40360
-0.08358,1.63865,-0.50512,-1.08519,0.94628,0.26976,2.06626,2.27858,0.51492,0.17686,-3.79061,1.99486,0.31693,0.85297,0.40599,0.08469,-6.94588,4.06618,1.37352
-0.09806,1.64722,-0.49897,-1.07729,0.88179,0.30274,2.05180,2.40118,0.46466,0.67310,-4.27187,2.03135,0.32437,0.84954,0.41134,0.06220,-1.72717,7.85990,-1.33646
-0.11217,1.65571,-0.49296,-1.06603,0.82915,0.32767,2.04391,2.48312,0.38599,1.05802,-4.56626,2.12587,0.33262,0.84509,0.41657,0.04070,-1.70944,7.86910,-3.08856
-0.12558,1.66196,-0.48588,-1.04573,0.75394,0.36295,2.04732,2.58133,0.23830,1.39915,-4.81417,2.31298,0.34376,0.83908,0.42119,0.01913,-0.44680,7.75779,-8.32666
-0.13860,1.66729,-0.47837,-1.02419,0.67893,0.39798,1.93118,2.55645,0.14165,1.49891,-4.76790,2.32749,0.35241,0.83445,0.42367,0.00162,-5.55673,1.79242,-6.03975
-0.15168,1.67293,-0.47115,-1.00820,0.62400,0.42209,1.73086,2.42875,0.11423,1.45468,-4.53137,2.01707,0.35785,0.83168,0.42439,-0.01205,-14.70863,-8.15881,-1.78820
-0.16435,1.67739,-0.46355,-0.98847,0.56318,0.44631,1.49312,2.28350,0.11913,1.38928,-4.17816,1.44867,0.36175,0.83028,0.42333,-0.02382,-18.34430,-11.72819,1.40942
-0.17624,1.68073,-0.45601,-0.96081,0.49697,0.46598,1.30889,2.27291,0.08982,1.93879,-3.99671,0.85689,0.36792,0.82821,0.42100,-0.03816,-13.26381,-3.03111,0.97247
-0.18765,1.68441,-0.44878,-0.93221,0.44965,0.47718,1.28569,2.38490,-0.00650,2.41058,-3.79782,0.72820,0.37782,0.82299,0.42044,-0.05638,-6.34323,6.88365,-4.02971
-0.19814,1.68726,-0.44143,-0.89588,0.39956,0.48694,1.29187,2.58720,-0.11474,2.63720,-3.28918,0.59742,0.39012,0.81626,0.41890,-0.07777,-0.56319,13.88647,-7.88703
-0.20825,1.69046,-0.43406,-0.86258,0.36377,0.49466,1.29361,2.77350,-0.18513,3.00149,-2.85316,0.81858,0.40211,0.80913,0.41665,-0.10007,-0.09141,17.10997,-4.38722
-0.21745,1.69311,-0.42616,-0.82403,0.32761,0.50837,1.22376,2.84034,-0.20743,2.87516,-2.66260,1.31685,0.41191,0.80329,0.41323,-0.11954,-3.16934,9.77000,-1.40060
-0.22602,1.69503,-0.41755,-0.78266,0.28814,0.52917,1.06396,2.79562,-0.19920,2.63709,-2.41175,1.35526,0.41962,0.79947,0.40807,-0.13508,-10.59537,-3.73937,3.13674
-0.23371,1.69671,-0.40847,-0.73596,0.25144,0.55277,1.01887,2.85591,-0.24463,3.01119,-2.29045,1.46966,0.42973,0.79288,0.40386,-0.15351,-3.47389,3.61406,-1.54183
-0.24146,1.69850,-0.39947,-0.70024,0.22486,0.57111,0.96032,2.85976,-0.25902,3.17695,-2.36980,1.66760,0.43858,0.78671,0.39950,-0.17071,-2.52530,4.05396,-1.97441
-0.24847,1.69968,-0.38986,-0.66020,0.19553,0.59439,0.79033,2.71839,-0.21993,3.02766,-2.10561,1.82994,0.44454,0.78361,0.39355,-0.18292,-9.99432,-6.71443,3.44184
-0.25506,1.70071,-0.37983,-0.62257,0.16993,0.61937,0.58659,2.47133,-0.12278,2.70292,-1.69695,1.76189,0.44713,0.78319,0.38747,-0.19122,-13.56810,-17.21562,7.81444
-0.26078,1.70149,-0.36951,-0.57953,0.14588,0.64406,0.42958,2.22923,-0.02746,2.62735,-1.28216,1.18368,0.44859,0.78317,0.38210,-0.19852,-10.65039,-17.64284,8.30963
-0.26611,1.70236,-0.35968,-0.53810,0.12791,0.65639,0.42016,2.20704,-0.04240,2.86257,-1.11703,0.46361,0.45414,0.77889,0.37761,-0.21093,-2.81023,-5.13260,1.34229
-0.27074,1.70314,-0.35028,-0.49508,0.11232,0.66020,0.47727,2.30811,-0.12713,2.92148,-1.04212,0.03701,0.46267,0.77155,0.37331,-0.22644,2.65414,6.27618,-5.49602
-0.27536,1.70389,-0.34117,-0.46182,0.10007,0.65919,0.52832,2.40217,-0.18306,2.73117,-1.06265,-0.23130,0.47089,0.76383,0.36881,-0.24250,4.56358,8.59954,-6.68922
-0.27911,1.70437,-0.33234,-0.42177,0.08649,0.65426,0.56139,2.46489,-0.22785,2.41975,-0.78504,-0.32853,0.47888,0.75597,0.36410,-0.25811,1.17507,4.64574,-3.57607
-0.28310,1.70484,-0.32357,-0.39295,0.07524,0.64946,0.58562,2.45351,-0.21906,2.03202,-0.91452,-0.36640,0.48477,0.74911,0.35993,-0.27253,2.07562,0.75325,-1.24890
-0.28713,1.70521,-0.31497,-0.37144,0.06526,0.64353,0.55010,2.36928,-0.15565,1.91976,-0.96937,-0.61022,0.48850,0.74442,0.35511,-0.28479,0.68443,-4.55009,3.54145
-0.29076,1.70525,-0.30697,-0.34632,0.05259,0.62985,0.41000,2.16650,-0.00007,1.48346,-0.85878,-1.07844,0.48870,0.74407,0.34873,-0.29312,-6.64838,-13.10975,10.10711
-0.29439,1.70522,-0.29937,-0.32619,0.04141,0.61324,0.32495,2.07027,0.10273,1.31170,-0.62906,-1.27870,0.49000,0.74233,0.34200,-0.30312,-7.19582,-9.49661,9.46427
-0.29771,1.70497,-0.29207,-0.30667,0.02916,0.59557,0.32192,2.04637,0.14995,1.37485,-1.06340,-1.32917,0.49219,0.73851,0.33630,-0.31504,0.64428,-1.94743,3.76697
-0.30094,1.70441,-0.28492,-0.29065,0.01494,0.57918,0.29136,1.99164,0.19870,1.50161,-1.41104,-1.38427,0.49387,0.73545,0.33028,-0.32575,-0.56518,-2.74899,3.20121
-0.30361,1.70310,-0.27837,-0.26960,-0.00734,0.55774,0.17806,1.80756,0.28997,1.24791,-1.39938,-1.27570,0.49340,0.73587,0.32381,-0.33196,-6.25309,-11.49829,6.79411
-0.30740,1.70178,-0.27163,-0.25767,-0.02563,0.54220,0.17101,1.72787,0.34379,0.71981,-1.06456,-1.18853,0.49335,0.73419,0.31845,-0.34084,-2.77313,-8.61725,5.05695
-0.31210,1.70069,-0.26474,-0.25354,-0.03687,0.53089,0.19923,1.72926,0.36804,0.76248,-1.14458,-1.37671,0.49408,0.73088,0.31299,-0.35176,3.40192,-1.72112,2.03998
-0.31747,1.69897,-0.25852,-0.24972,-0.05457,0.51121,0.20247,1.68610,0.43583,0.61212,-1.29738,-1.31225,0.49320,0.72906,0.30726,-0.36168,1.60096,-1.71021,3.18809
-0.32163,1.69700,-0.25232,-0.24682,-0.07240,0.49587,0.18489,1.59786,0.53448,0.40924,-1.35477,-1.03693,0.49073,0.72881,0.30136,-0.37042,-0.45637,-5.75593,7.03694
-0.32616,1.69458,-0.24601,-0.24601,-0.09385,0.48389,0.20539,1.48279,0.65452,0.16646,-1.48660,-0.70701,0.48635,0.72929,0.29658,-0.37900,2.35077,-6.98562,6.34936
-0.33061,1.69197,-0.23956,-0.24790,-0.11352,0.47677,0.21644,1.32657,0.78968,0.15812,-1.39980,-0.55816,0.48039,0.73119,0.29221,-0.38627,1.69611,-9.41081,9.25879
-0.33410,1.68901,-0.23316,-0.24834,-0.13365,0.47324,0.27027,1.15663,0.93466,-0.13548,-1.32748,-0.01249,0.47235,0.73376,0.28915,-0.39353,3.50564,-13.07479,10.43936
-0.33770,1.68568,-0.22628,-0.25047,-0.15499,0.47760,0.41991,0.99014,1.06673,-0.13888,-1.56396,0.41700,0.46219,0.73576,0.28905,-0.40186,10.74214,-11.16138,8.85610
-0.34129,1.68179,-0.21964,-0.25193,-0.18054,0.47727,0.55881,0.84474,1.18605,-0.06196,-1.50924,-0.56365,0.45120,0.73785,0.28942,-0.41017,11.14314,-10.73976,7.51128
-0.34451,1.67782,-0.21405,-0.24752,-0.20226,0.46106,0.58235,0.81219,1.24703,0.47416,-2.01725,-1.47504,0.44299,0.73904,0.28658,-0.41887,5.30638,-1.38267,4.24386
-0.34734,1.67361,-0.20903,-0.23831,-0.22284,0.44037,0.50148,0.72562,1.26728,0.96153,-1.77627,-1.80240,0.43617,0.74166,0.28253,-0.42413,-4.17371,-6.26968,3.47171
-0.34964,1.66882,-0.20456,-0.22355,-0.24731,0.41658,0.42951,0.68698,1.19858,1.04450,-1.46316,-1.62752,0.43192,0.74270,0.27890,-0.42902,-6.80350,-5.76698,-2.39180
-0.35165,1.66404,-0.20021,-0.20756,-0.26649,0.39546,0.39057,0.65782,1.09524,1.18720,-1.23688,-1.45421,0.42873,0.74266,0.27641,-0.43388,-2.61686,-0.61061,-8.03922
-0.35351,1.65949,-0.19618,-0.19259,-0.27858,0.37402,0.34011,0.64844,0.99744,0.87323,-0.45067,-1.64707,0.42627,0.74242,0.27346,-0.43854,-3.68300,-4.02348,-6.17235
-0.35518,1.65543,-0.19257,-0.17820,-0.28118,0.35139,0.32425,0.81541,0.82947,0.99855,0.12511,-1.92793,0.42754,0.73793,0.26970,-0.44713,-3.18809,7.51240,-10.28023
-0.35582,1.65173,-0.18992,-0.15171,-0.27786,0.31924,0.30916,1.17414,0.53864,2.21366,0.39536,-1.88557,0.43499,0.72746,0.26461,-0.45996,-3.37178,23.05389,-16.95977
-0.35542,1.64826,-0.18694,-0.11528,-0.27208,0.29833,0.30055,1.39435,0.21237,3.07849,0.53961,-1.20114,0.44394,0.71641,0.26205,-0.47011,-3.79217,18.63228,-21.92759
-0.35405,1.64500,-0.18355,-0.07224,-0.26448,0.28754,0.31739,1.48193,-0.10285,3.38597,0.64584,-0.60370,0.45298,0.70548,0.26234,-0.47779,-1.39905,9.61862,-23.41218
-0.35105,1.64251,-0.17999,-0.01268,-0.24647,0.28099,0.33335,1.41206,-0.42264,3.51032,1.36743,-0.30624,0.46213,0.69566,0.26576,-0.48152,-0.99745,-2.91656,-17.73367
-0.34855,1.64028,-0.17623,0.02761,-0.22828,0.27874,0.35609,1.32633,-0.60398,3.35424,1.69497,-0.08041,0.46889,0.68731,0.26879,-0.48528,-0.36668,-6.52280,-16.48724
-0.34513,1.63892,-0.17225,0.07252,-0.20139,0.28035,0.41077,1.19995,-0.75223,3.27789,2.23367,0.32675,0.47465,0.67939,0.27374,-0.48806,1.42302,-8.53279,-12.39384
-0.34060,1.63862,-0.16757,0.12541,-0.16349,0.29214,0.57229,1.07734,-0.94247,3.31293,2.61012,1.12695,0.47991,0.66952,0.28279,-0.49139,6.99880,-8.21839,-12.43900
-0.33629,1.63835,-0.16246,0.16393,-0.13349,0.30793,0.74627,0.96745,-1.07843,3.25273,2.53700,1.37480,0.48381,0.65945,0.29290,-0.49524,12.40897,-8.22966,-13.82500
-0.33110,1.63894,-0.15677,0.20691,-0.09730,0.32883,0.93253,0.73584,-1.17578,3.18990,2.56437,1.46871,0.48522,0.65127,0.30629,-0.49659,12.24427,-13.29810,-9.73513
-0.32595,1.63974,-0.15088,0.23981,-0.06593,0.34768,1.06716,0.42751,-1.17049,2.68930,2.51769,1.48667,0.48358,0.64656,0.32018,-0.49557,10.29150,-23.94494,-5.16400
-0.32018,1.64142,-0.14473,0.27456,-0.02856,0.36642,1.20126,0.08634,-1.14064,2.31374,2.81649,1.32190,0.47962,0.64364,0.33586,-0.49284,7.18058,-27.73204,0.82408
-0.31382,1.64380,-0.13835,0.31149,0.01165,0.38523,1.39620,-0.10332,-1.17658,2.10535,2.32360,1.23849,0.47620,0.63711,0.35294,-0.49271,11.06566,-14.46299,-3.52719
-0.30766,1.64569,-0.13200,0.33785,0.03664,0.39930,1.55221,-0.20605,-1.20322,2.31741,1.84174,1.16617,0.47308,0.62946,0.36908,-0.49371,12.08521,-8.59886,-3.13787
-0.30072,1.64770,-0.12524,0.36982,0.05797,0.41650,1.69084,-0.42688,-1.22027,2.56206,1.12205,1.11412,0.46786,0.62375,0.38766,-0.49170,10.03395,-11.94376,-4.21245
-0.29307,1.64965,-0.11811,0.40637,0.07436,0.43600,1.73004,-0.93884,-1.17105,2.42239,0.78047,1.12924,0.45830,0.62526,0.40874,-0.48160,0.33070,-31.08401,-0.27583
-0.28519,1.65128,-0.11105,0.43887,0.08307,0.45030,1.74129,-1.34219,-1.19337,2.07028,0.57538,1.00509,0.45001,0.62556,0.43005,-0.47034,-1.79936,-32.88404,-3.95032
-0.27679,1.65281,-0.10413,0.47239,0.08847,0.45978,1.81263,-1.48325,-1.31958,2.31520,0.40561,0.71490,0.44491,0.62009,0.45135,-0.46241,2.97920,-14.22855,-8.71156
-0.26799,1.65402,-0.09734,0.50495,0.08815,0.46559,1.90512,-1.48498,-1.50535,2.87083,-0.29767,0.44014,0.44233,0.61051,0.47282,-0.45614,8.89123,-0.50970,-12.66062
-0.25723,1.65432,-0.09033,0.55936,0.07409,0.47306,1.99659,-1.50343,-1.84888,3.13897,-1.29178,0.40191,0.44293,0.59730,0.49763,-0.44656,7.17949,1.30720,-18.52335
-0.24524,1.65274,-0.08312,0.62837,0.03024,0.48333,1.90543,-1.88635,-2.25776,2.34484,-1.97248,0.29885,0.44259,0.58893,0.52504,-0.42615,-5.27918,-13.94059,-17.54720
-0.22582,1.65168,-0.06917,0.65660,0.00209,0.49063,1.77344,-2.23425,-2.43197,1.24675,-1.64626,0.54702,0.43517,0.57578,0.56977,-0.39302,-11.35111,-20.86057,-15.43491
-0.21565,1.65033,-0.06202,0.67176,-0.01823,0.49536,1.74956,-2.34254,-2.56490,0.93403,-1.54873,0.48050,0.43205,0.56698,0.59291,-0.37460,-4.77489,-11.95633,-13.32337
-0.20528,1.64836,-0.05468,0.68616,-0.04337,0.50148,1.85520,-2.30132,-2.74126,0.68985,-1.88361,0.64270,0.43025,0.55248,0.61713,-0.35889,6.74210,0.54577,-11.39313
-0.19511,1.64556,-0.04720,0.69483,-0.07544,0.50849,2.06722,-2.16756,-2.91094,0.39023,-2.47513,0.51166,0.42863,0.53311,0.64207,-0.34615,16.81965,6.52045,-8.66961
-0.18517,1.64193,-0.03962,0.69936,-0.11320,0.51643,2.31495,-2.04883,-3.06527,0.29541,-2.92522,0.63938,0.42615,0.51107,0.66754,-0.33406,21.06158,7.71660,-6.83181
-0.17553,1.63744,-0.03179,0.69813,-0.15592,0.52593,2.47937,-2.09115,-3.20665,-0.13556,-3.42914,0.54527,0.42122,0.49031,0.69365,-0.31783,15.75434,-1.19279,-8.08997
-0.16625,1.63211,-0.02392,0.69144,-0.20167,0.53359,2.54387,-2.25703,-3.36449,-0.54391,-3.30423,0.42902,0.41455,0.47106,0.71998,-0.29645,5.11612,-10.46273,-11.89304
-0.15737,1.62616,-0.01614,0.68043,-0.24738,0.53871,2.63605,-2.38926,-3.52128,-1.22505,-3.24822,0.32114,0.40716,0.44971,0.74610,-0.27444,3.68010,-9.87359,-12.95534
-0.14915,1.61948,-0.00857,0.66248,-0.29464,0.53985,2.82074,-2.42205,-3.62637,-1.57699,-3.35461,-0.05147,0.39901,0.42456,0.77157,-0.25537,11.90985,-5.70850,-7.80318
-0.14135,1.61200,-0.00123,0.64162,-0.34365,0.53719,3.05866,-2.40364,-3.70487,-1.62958,-3.64210,-0.22042,0.39012,0.39597,0.79648,-0.23798,16.38662,-2.49308,-3.32335
-0.13415,1.60346,0.00604,0.61657,-0.39826,0.53438,3.30683,-2.42634,-3.79984,-1.90444,-4.20062,-0.13887,0.37949,0.36492,0.82136,-0.21952,18.80613,-3.60454,-2.64128
-0.12796,1.59318,0.01336,0.58095,-0.46788,0.53233,3.54086,-2.54868,-3.95206,-2.47147,-4.61824,-0.22213,0.36616,0.33179,0.84672,-0.19729,14.89229,-9.21868,-8.79760
-0.12203,1.58287,0.02061,0.54940,-0.52388,0.53010,3.72130,-2.65860,-4.08021,-2.91453,-4.75226,-0.16816,0.35189,0.29814,0.87003,-0.17415,12.35178,-10.16152,-11.06058
-0.11793,1.57015,0.02755,0.49702,-0.60366,0.52362,4.04861,-2.82266,-4.18180,-3.71307,-5.17499,-0.59048,0.33280,0.25904,0.89394,-0.15173,18.56468,-13.42672,-6.27250
-0.11474,1.55673,0.03400,0.44106,-0.67804,0.51062,4.33533,-3.00553,-4.24090,-4.35241,-5.58777,-1.38012,0.31090,0.21896,0.91582,-0.12915,17.91425,-17.29289,-4.16709
-0.11246,1.54270,0.03972,0.38439,-0.74539,0.49018,4.48605,-3.18562,-4.33920,-5.07320,-5.96462,-2.26263,0.28826,0.17987,0.93480,-0.10349,12.35949,-16.96317,-7.69410
-0.11313,1.52595,0.04354,0.29617,-0.83916,0.44596,4.60066,-3.41270,-4.55927,-5.97801,-5.94540,-3.47930,0.26356,0.13902,0.95182,-0.07239,5.93706,-11.98743,-15.95306
-0.11484,1.50876,0.04589,0.20933,-0.92042,0.38812,4.77838,-3.55732,-4.73572,-6.60632,-5.53102,-4.86266,0.23831,0.09472,0.96564,-0.04226,10.64942,-10.01506,-15.30825
-0.11804,1.49097,0.04605,0.11866,-0.99399,0.31008,5.00761,-3.63860,-4.84529,-6.60024,-4.89045,-6.30969,0.21248,0.04757,0.97591,-0.01415,15.29963,-9.52381,-7.77213
-0.12170,1.47351,0.04487,0.04100,-1.04725,0.22972,5.19795,-3.64991,-4.91349,-6.63846,-3.97407,-7.36772,0.18756,-0.00003,0.98217,0.01292,16.43616,-6.78908,-3.93800
-0.12763,1.45573,0.04043,-0.05261,-1.09247,0.11955,5.37911,-3.62727,-4.93590,-7.04286,-2.44112,-8.63598,0.16272,-0.04866,0.98471,0.03869,13.80082,-3.64907,0.09229
-0.13625,1.43887,0.03204,-0.16775,-1.11598,-0.02752,5.61610,-3.64239,-4.81559,-7.68138,-0.17229,-9.76545,0.13581,-0.09864,0.98402,0.05940,10.73110,-5.40741,6.75868
-0.14568,1.42391,0.02192,-0.27280,-1.10755,-0.17176,5.92908,-3.87845,-4.45554,-7.74888,1.98646,-10.31875,0.10080,-0.14992,0.98098,0.07105,9.58408,-22.91714,16.40317
-0.15555,1.41050,0.01066,-0.36089,-1.07740,-0.30085,6.22146,-4.37807,-3.91354,-7.44170,3.72654,-10.56260,0.05494,-0.20080,0.97531,0.07371,2.71633,-50.42115,24.44659
-0.16749,1.40005,-0.00432,-0.46001,-1.01154,-0.45565,6.45816,-5.29890,-3.18436,-7.05901,6.23598,-11.34971,-0.00830,-0.24960,0.96613,0.06502,-10.54529,-78.56243,19.25847
-0.18039,1.39339,-0.02236,-0.55329,-0.90489,-0.62374,6.48347,-6.42618,-2.52702,-6.38081,9.17543,-12.75436,-0.08363,-0.29196,0.95132,0.05245,-24.19384,-89.88017,3.59135
-0.19379,1.39114,-0.04391,-0.63429,-0.75562,-0.80786,6.37471,-7.55269,-2.10062,-4.95334,12.08355,-13.79292,-0.16572,-0.32950,0.92859,0.04119,-25.25152,-85.35579,-14.04088
-0.20698,1.39580,-0.06997,-0.69666,-0.53442,-1.02275,6.08200,-8.70591,-1.90594,-2.49616,15.75684,-13.47916,-0.25433,-0.35871,0.89756,0.03212,-21.12755,-68.38931,-29.70728
-0.21797,1.40220,-0.09448,-0.71540,-0.33350,-1.17189,5.66712,-9.40103,-1.95304,-0.29877,17.92766,-11.98965,-0.33432,-0.37989,0.86200,0.02934,-22.35101,-51.24176,-41.47663
-0.22699,1.41800,-0.12198,-0.70063,-0.03680,-1.33245,4.83607,-9.95528,-2.29196,2.79443,19.59233,-9.00481,-0.41528,-0.38218,0.82485,0.03324,-25.79913,-21.50067,-57.41002
-0.23330,1.43644,-0.14743,-0.64954,0.24178,-1.43319,3.94466,-9.97892,-2.74539,5.35472,20.85709,-6.26338,-0.48278,-0.37493,0.79024,0.04322,-25.03264,13.25770,-63.51033
-0.23731,1.45709,-0.17142,-0.57660,0.49219,-1.49195,3.11606,-9.76040,-3.11269,7.33665,21.91945,-4.06473,-0.54136,-0.36190,0.75706,0.05308,-24.24121,36.97865,-61.82504
-0.22725,1.50630,-0.19649,-0.27956,1.17582,-1.55633,0.56059,-9.62102,-3.71728,12.09307,25.17738,-0.51715,-0.60354,-0.29630,0.73852,0.05038,-64.02612,18.02777,-60.84623
-0.22393,1.56020,-0.23982,-0.11904,1.48205,-1.55683,-0.77529,-9.85969,-4.07086,14.29176,27.10502,0.46207,-0.72090,-0.23026,0.65236,0.04136,-64.29316,4.43352,-88.79675
-0.21065,1.60754,-0.26073,0.09369,1.86122,-1.54502,-2.41316,-10.02229,-4.78417,16.67980,28.04670,1.26365,-0.77972,-0.14845,0.60750,0.03075,-58.07069,1.39224,-112.55110
-0.19273,1.66071,-0.28168,0.32981,2.24780,-1.53763,-3.56620,-10.16116,-6.01179,16.14221,26.70459,-1.46482,-0.83244,-0.05626,0.55003,0.03665,-32.78257,17.04197,-134.56080
-0.16601,1.72337,-0.30190,0.64588,2.69603,-1.52135,-5.26938,-9.53822,-7.27935,26.81703,35.69674,0.74466,-0.85967,0.06233,0.50577,0.03585,-13.24403,3.64423,-130.48080
-0.13208,1.79110,-0.32339,0.99548,3.11705,-1.52537,-6.13300,-8.96387,-8.91958,32.61631,34.37301,-1.14008,-0.87294,0.18307,0.44851,0.05741,39.29653,-8.96069,-163.74560
-0.07415,1.87302,-0.34634,1.61508,3.65485,-1.54938,-6.57149,-8.28147,-11.05139,46.22573,32.32491,-1.21520,-0.86266,0.31581,0.38251,0.09885,55.91211,-39.36842,-130.95820
0.00040,1.95459,-0.36779,2.35655,4.09030,-1.54767,-6.28038,-7.41262,-12.85314,60.93039,28.39478,2.16506,-0.82970,0.43229,0.31920,0.15110,78.16118,-55.55630,-98.27908
0.08978,2.03352,-0.38619,3.14630,4.39383,-1.50244,-5.37045,-6.67175,-14.40960,72.20127,21.00487,6.98127,-0.77721,0.53337,0.25366,0.21707,108.80530,-83.76880,-82.96520
0.23484,2.11207,-0.39190,4.58367,4.63324,-1.28251,-2.93371,-5.79016,-16.58163,88.78201,3.50780,19.19791,-0.68384,0.61974,0.19506,0.33200,104.20960,-131.12480,-46.88948
0.38874,2.17115,-0.38528,5.89818,4.55179,-0.92390,-0.03209,-5.88091,-18.17096,100.84800,-17.45177,34.96976,-0.57227,0.67022,0.12106,0.45679,74.45502,-212.02200,-54.12849
0.54254,2.21532,-0.37005,6.90732,4.27608,-0.52563,2.01187,-6.36059,-19.52183,103.37200,-39.48358,45.67688,-0.43703,0.70284,0.02972,0.56047,28.72312,-246.32170,-55.55972
0.76112,2.18987,-0.30246,8.62742,3.05640,0.54018,3.38570,-6.33851,-21.69711,86.13934,-97.30375,71.15218,-0.24912,0.73297,-0.07200,0.62890,31.31147,-88.16768,-116.20310
0.94037,2.13648,-0.23085,9.47195,1.68060,1.45800,4.24169,-5.16635,-22.84497,55.77969,-133.78860,80.28863,-0.06512,0.75046,-0.13775,0.64311,96.86710,-79.07301,-48.30674
1.09977,2.01075,-0.13116,9.84159,-0.42739,2.57394,5.66828,-2.94902,-23.70116,-7.17165,-164.76100,80.49587,0.13985,0.75556,-0.16501,0.61834,138.49660,-133.47380,-79.47685
1.20369,1.83452,-0.01875,9.36294,-2.82482,3.64856,9.64239,-1.42705,-22.55349,-63.88295,-176.47640,70.52408,0.33842,0.70646,-0.10492,0.61268,61.31313,-291.96210,28.19196
1.22557,1.60072,0.09520,7.79994,-5.59910,4.54086,15.96396,0.49845,-20.63205,-130.20130,-174.13590,33.77822,0.56259,0.61172,0.04372,0.55443,82.47906,-355.08310,-138.96800
1.18254,1.36096,0.17407,5.59526,-7.93043,4.75480,24.45421,2.51981,-17.62325,-178.31090,-159.17500,-10.38573,0.76989,0.43279,0.26710,0.38551,195.37950,-440.97190,-347.67780
1.10117,1.13134,0.21825,3.32519,-9.62251,4.43466,33.62392,0.92110,-14.31684,-203.60280,-127.96750,-49.41532,0.86453,0.09145,0.47080,0.15023,360.81740,-218.77460,-673.64420
0.91366,0.90165,0.16981,0.00004,-10.95568,2.84231,40.17502,-6.61342,-11.35367,-194.53140,-16.60658,-126.25330,0.74453,-0.34140,0.57161,-0.04887,494.95170,278.39790,-468.77790
0.76250,0.87022,0.09006,-2.27426,-10.34824,0.91325,34.27739,-12.92411,-10.33789,-125.13360,84.68340,-119.41530,0.60280,-0.53058,0.59567,-0.01713,82.72733,541.68310,-337.81450
0.67242,0.90219,0.03893,-3.30350,-8.84732,-0.35249,24.56786,-11.46616,-11.67518,-36.05676,114.11000,-54.12650,0.60002,-0.56480,0.55623,0.10760,-238.81070,661.20360,158.53840
0.62529,0.92768,0.02460,-3.51026,-7.56162,-0.69865,16.65330,-8.42184,-11.02672,-1.44389,104.64650,-10.05768,0.61759,-0.53665,0.53200,0.21807,-349.99590,587.46300,268.87500
0.59096,0.94302,0.02586,-3.43327,-6.28063,-0.65272,10.68079,-5.38944,-8.90781,15.14540,84.93359,14.01514,0.64313,-0.46946,0.52502,0.30057,-337.08670,409.35460,228.10840
0.52997,0.78156,-0.00084,-3.23026,-5.25007,-0.33014,6.22818,-3.89951,-5.50406,11.19927,50.88942,26.90801,0.64911,-0.38220,0.56434,0.33778,-290.44840,134.70050,203.64160
0.48010,0.68700,-0.00316,-3.16606,-4.64705,0.00672,2.32781,-2.75540,-4.67678,-2.04620,40.04602,20.09829,0.62634,-0.33100,0.57251,0.41276,-275.72680,130.48460,63.30993
0.42952,0.62708,-0.00032,-3.20026,-4.10055,0.23946,0.06838,-0.24250,-4.50553,-5.59557,41.02423,12.90717,0.63790,-0.28461,0.52765,0.48339,-120.04790,228.17410,22.94815
0.37757,0.59241,0.00543,-3.27418,-3.55650,0.36526,-0.90893,2.08367,-5.26356,-2.19766,38.30506,6.00685,0.65045,-0.26772,0.45025,0.55002,-28.44394,198.92890,-63.80586
0.32964,0.56651,0.01119,-3.29339,-3.13386,0.41304,-1.08073,2.66544,-5.49789,3.17356,35.67825,3.77028,0.64816,-0.27237,0.40357,0.58552,8.16884,110.58720,-39.16101
0.28667,0.55670,0.01873,-3.23896,-2.60059,0.46268,-1.29705,2.02955,-5.41581,7.14620,31.93957,3.64962,0.62684,-0.28834,0.38947,0.61012,-24.67617,-32.37100,6.47893
0.25814,0.55522,0.02845,-3.07486,-2.12549,0.53614,-1.79144,1.48610,-4.71106,12.95145,27.64638,5.72953,0.60602,-0.28625,0.39044,0.63116,-32.27477,-25.41456,43.45310
0.22497,0.54378,0.04058,-2.93375,-1.86494,0.60039,-2.22723,1.68913,-4.08864,13.63379,24.91990,6.45164,0.59423,-0.26988,0.37853,0.65632,-36.38034,7.74082,67.33556
0.20038,0.54309,0.05684,-2.69364,-1.50671,0.70788,-2.88417,2.82332,-3.20039,15.15854,20.54764,5.79719,0.59327,-0.21962,0.35369,0.68899,-9.98725,91.54035,41.51599
0.17454,0.54196,0.07033,-2.51665,-1.22154,0.75523,-3.25912,3.45119,-2.59397,11.54944,21.46607,0.88789,0.58733,-0.17938,0.33192,0.71603,-10.66858,66.04536,43.08080
0.14918,0.54977,0.07915,-2.37038,-0.86158,0.72601,-3.15850,3.94544,-2.43842,6.97350,24.65949,-4.89960,0.58509,-0.15197,0.30032,0.73782,8.87282,35.29186,10.32981
0.12041,0.56080,0.08331,-2.29620,-0.52406,0.63663,-2.52963,4.17593,-3.20090,4.52225,24.37171,-8.01256,0.58433,-0.15363,0.24832,0.75716,23.57133,4.64651,-53.12697
0.09137,0.57255,0.08566,-2.24310,-0.25046,0.54071,-1.81411,4.11838,-4.07158,5.90808,22.03587,-8.26845,0.58286,-0.16856,0.19260,0.77121,31.58707,-20.29047,-82.59885
0.06812,0.59021,0.08513,-2.11832,0.05070,0.42293,-1.01241,3.78142,-4.86006,11.23201,14.88861,-6.23088,0.58240,-0.19419,0.13806,0.77720,28.54777,-36.04923,-69.34370
0.04786,0.60148,0.08675,-1.97419,0.20034,0.36136,-0.80200,3.25255,-4.86324,14.85800,8.55877,-3.37474,0.57471,-0.20838,0.10741,0.78406,16.31701,-54.17318,-27.07747
0.03842,0.61124,0.08893,-1.69666,0.29474,0.31918,-0.85964,2.42988,-3.74787,16.60836,0.67873,-0.57755,0.56890,-0.20886,0.11508,0.78708,-9.76595,-47.54200,56.49886
0.02863,0.61441,0.09312,-1.48654,0.27836,0.31486,-0.94945,1.92281,-2.49037,13.90860,-2.22398,-0.61333,0.56615,-0.19749,0.12883,0.78986,0.43052,-23.29168,96.22321
0.01780,0.61648,0.09660,-1.33629,0.25022,0.30215,-0.92785,1.38217,-1.66274,11.56577,-1.44139,-2.01298,0.56331,-0.19364,0.14115,0.79074,2.70554,-37.33788,85.02054
0.00935,0.61928,0.09847,-1.18421,0.23878,0.26872,-0.81048,0.66853,-1.11239,10.35586,0.38741,-2.54921,0.56049,-0.20026,0.15614,0.78827,7.16434,-49.76030,45.98913
0.00323,0.62400,0.09903,-1.02771,0.25815,0.22298,-0.83414,-0.07578,-0.76337,10.15137,0.78797,-1.76176,0.55291,-0.21252,0.17283,0.78693,6.92579,-51.21213,31.80524
-0.00255,0.62916,0.10060,-0.89642,0.27967,0.20156,-1.25916,-0.76390,-0.21282,9.41418,1.61278,-1.11030,0.53546,-0.21935,0.20036,0.79059,-29.93986,-38.86818,39.65498
-0.00803,0.63461,0.10255,-0.79067,0.30109,0.19016,-1.63758,-1.16879,0.19370,8.02923,2.09540,-0.66142,0.51680,-0.22281,0.22502,0.79538,-37.40570,-38.16233,41.32740
-0.01051,0.64054,0.10423,-0.66390,0.32499,0.17746,-1.85353,-1.31115,0.35018,7.08756,1.57135,-0.92522,0.50007,-0.22521,0.24137,0.80059,-18.43331,-11.45403,14.10396
-0.01331,0.64621,0.10554,-0.56562,0.33981,0.16204,-1.83541,-1.27439,0.28840,6.75911,1.02742,-1.31113,0.48828,-0.22846,0.24844,0.80478,-0.17387,1.47012,-3.12568
-0.01671,0.65170,0.10673,-0.49964,0.34944,0.14801,-1.86033,-1.25749,0.22669,6.66701,0.75066,-1.39144,0.47519,-0.23192,0.25545,0.80942,2.55927,2.32465,-6.54684
-0.01552,0.65733,0.10641,-0.38098,0.35888,0.11486,-2.05576,-1.33428,0.29376,6.84567,-0.15410,-2.19685,0.45712,-0.23426,0.26817,0.81502,-10.86176,-3.87861,1.54160
-0.01472,0.66186,0.10566,-0.28952,0.35009,0.08109,-2.17549,-1.39838,0.43271,6.41593,-1.10137,-2.58432,0.44039,-0.23535,0.28307,0.81886,-11.84913,-4.81654,10.88504
-0.01426,0.66564,0.10494,-0.22439,0.33332,0.05530,-2.15755,-1.37453,0.47622,6.39975,-1.94072,-2.71336,0.42689,-0.23642,0.29406,0.82182,-5.04856,-0.47660,7.87183
-0.01000,0.66731,0.10251,-0.11896,0.28887,0.01111,-1.98034,-1.23667,0.51392,6.70142,-3.32107,-2.97869,0.41920,-0.23558,0.30188,0.82319,8.89138,8.66717,2.11842
-0.00508,0.66786,0.09968,-0.02349,0.23570,-0.03001,-1.71219,-1.03232,0.50581,6.83414,-4.20058,-2.99595,0.41563,-0.23402,0.30628,0.82382,16.69897,13.27799,0.28963
0.00216,0.66608,0.09594,0.08780,0.15882,-0.07664,-1.27686,-0.72178,0.47610,7.08447,-5.34906,-2.89244,0.41953,-0.23094,0.30614,0.82277,25.27623,19.48418,-2.84274
0.00917,0.66393,0.09251,0.17259,0.09155,-0.10942,-0.90534,-0.47592,0.51418,7.24543,-5.92392,-2.59154,0.42468,-0.22720,0.30747,0.82066,29.65428,21.81225,-0.04999
0.01928,0.65921,0.08828,0.28521,-0.00126,-0.14580,-0.47183,-0.16148,0.68822,7.15857,-5.86028,-1.75788,0.43601,-0.21937,0.30991,0.81592,28.12603,21.43431,9.13189
0.02904,0.65498,0.08468,0.36968,-0.06574,-0.16716,-0.22275,0.08195,0.84118,7.08362,-5.18126,-1.69651,0.44458,-0.21051,0.31363,0.81220,20.32728,21.29424,12.74391
0.04096,0.64985,0.08065,0.46680,-0.13082,-0.18996,0.03277,0.38368,0.98377,6.77015,-4.27608,-1.42420,0.45607,-0.19878,0.31579,0.80794,17.99494,22.11372,11.11631
0.05398,0.64481,0.07646,0.55939,-0.18320,-0.20975,0.23351,0.68846,1.10167,6.47904,-3.46335,-1.29513,0.46805,-0.18509,0.31697,0.80387,14.51086,23.67232,8.01461
0.06790,0.63975,0.07200,0.64711,-0.22422,-0.23008,0.39537,1.01366,1.17783,5.95386,-2.49640,-1.31127,0.48055,-0.16939,0.31630,0.80020,9.41412,21.95100,6.81084
0.08392,0.63501,0.06789,0.74751,-0.25433,-0.24215,0.71602,1.59821,0.98767,6.33080,-1.31765,-0.43341,0.49962,-0.15067,0.30212,0.79775,17.33430,37.35629,-11.28615
0.09966,0.63120,0.06379,0.82338,-0.26385,-0.25205,0.80265,1.99639,0.94837,6.59717,-0.81510,-1.25329,0.51389,-0.13015,0.29280,0.79576,9.22290,39.59562,-9.70689
0.11664,0.62755,0.05833,0.90112,-0.26829,-0.27979,0.73171,2.24355,1.10747,5.15850,-0.33465,-2.45197,0.52450,-0.10682,0.29060,0.79312,-2.28612,21.00576,10.40621
0.13361,0.62396,0.05179,0.96450,-0.26940,-0.31792,0.71831,2.46361,1.16709,3.93297,0.28869,-3.20061,0.53564,-0.08446,0.28593,0.79006,-4.13868,11.86184,11.05476
0.15105,0.62062,0.04415,1.02134,-0.26631,-0.36407,0.84022,2.78775,1.03590,3.76586,0.42704,-3.54795,0.55066,-0.06228,0.27254,0.78652,4.07322,22.74828,-7.01179
0.16840,0.61740,0.03600,1.06537,-0.26054,-0.40754,0.94763,3.08664,0.89997,3.51903,0.58873,-3.78620,0.56582,-0.03962,0.25709,0.78242,5.24247,25.68425,-10.92539
0.18708,0.61492,0.02601,1.11843,-0.24831,-0.46954,1.08116,3.51395,0.70084,3.11290,0.90693,-4.08737,0.58291,-0.01382,0.23502,0.77768,3.59491,27.68395,-12.27841
0.20586,0.61304,0.01504,1.16278,-0.22923,-0.53423,1.14241,3.88033,0.56137,2.61121,1.32832,-4.10627,0.59828,0.01330,0.21306,0.77233,1.82090,25.81442,-9.24241
0.22392,0.61131,0.00419,1.18880,-0.20975,-0.58388,1.11870,4.05962,0.55251,2.11696,1.68615,-4.25822,0.61040,0.03978,0.19610,0.76641,-2.27518,17.91591,-1.76485
0.24234,0.61080,-0.00795,1.21270,-0.18158,-0.64279,1.07854,4.18065,0.65376,1.46314,2.23548,-4.24379,0.62122,0.06786,0.18231,0.75911,-1.51742,9.99085,6.68228
0.26042,0.61124,-0.02076,1.22631,-0.14530,-0.69889,1.00279,4.26416,0.77920,0.40499,2.86867,-3.85700,0.63011,0.09683,0.16983,0.75149,-1.73597,4.97832,11.43812
