posX, posY, posZ, velX, velY, velZ, angVelX, angVelY, angVelZ, accX, accY, accZ, rotX, rotY, rotZ, rotW, angAccX, angAccY, angAccZ
0.10756,1.29798,-0.47377,-0.41213,0.36739,-0.47148,0.69206,1.19160,0.19523,-0.48453,-0.40649,0.69012,0.14839,0.90761,0.12794,0.37128,-5.43015,-0.71906,0.42523
0.10149,1.30225,-0.47966,-0.41878,0.35791,-0.46124,0.57544,1.17311,0.21317,-0.38929,-0.72122,0.61849,0.14775,0.91062,0.12832,0.36396,-7.50300,-1.42003,1.33597
0.09556,1.30612,-0.48537,-0.42289,0.34529,-0.45002,0.51176,1.20353,0.20730,-0.26458,-0.70419,0.68097,0.14829,0.91389,0.12909,0.35518,-5.56877,0.82199,0.43898
0.08956,1.31030,-0.49089,-0.42597,0.33789,-0.43882,0.51153,1.24286,0.19786,-0.32884,-0.51616,1.09417,0.14973,0.91700,0.13127,0.34563,-0.55522,3.48314,-0.45169
0.08335,1.31443,-0.49574,-0.43127,0.33119,-0.42034,0.54646,1.26349,0.19584,-0.46874,-0.38366,1.46191,0.15142,0.91977,0.13464,0.33612,1.27425,1.87314,-0.17065
0.07705,1.31854,-0.49979,-0.43772,0.32635,-0.39381,0.61526,1.28786,0.18206,-0.43819,-0.10864,1.82341,0.15401,0.92225,0.13909,0.32619,5.14268,2.08467,-1.31648
0.07064,1.32296,-0.50386,-0.44309,0.32539,-0.37282,0.61104,1.25285,0.20251,-0.46332,-0.00384,1.93584,0.15468,0.92447,0.14240,0.31803,2.18504,-0.58918,0.40144
0.06420,1.32730,-0.50767,-0.44837,0.32394,-0.35328,0.48312,1.12881,0.25204,-0.39470,-0.07916,1.80222,0.15234,0.92636,0.14268,0.31351,-5.91485,-6.96822,2.96642
0.05772,1.33137,-0.51107,-0.45374,0.31938,-0.33189,0.20339,0.89495,0.33657,-0.33030,-0.43463,1.09128,0.14575,0.92784,0.13853,0.31414,-17.15662,-15.61652,7.31673
0.05138,1.33540,-0.51471,-0.45511,0.31427,-0.31785,0.01234,0.74743,0.34949,-0.06925,-0.30435,0.73552,0.14153,0.92931,0.13453,0.31346,-15.26162,-12.24391,2.89519
0.04520,1.33954,-0.51821,-0.45455,0.31167,-0.30493,-0.01648,0.69232,0.30471,-0.11570,-0.15232,0.63492,0.14075,0.93059,0.13343,0.31047,-6.17632,-7.03961,-1.60990
0.03894,1.34388,-0.52134,-0.45512,0.31270,-0.28923,0.19537,0.76953,0.17924,-0.18092,0.23760,0.91542,0.14603,0.93161,0.13810,0.30284,9.36445,3.36069,-8.19770
0.03248,1.34862,-0.52405,-0.45767,0.31873,-0.27009,0.59581,0.96014,-0.00765,-0.31071,0.56490,1.27259,0.15723,0.93220,0.14859,0.29018,25.80590,12.22439,-13.72452
0.02596,1.35375,-0.52646,-0.46147,0.32965,-0.25071,1.01099,1.16846,-0.20375,-0.30726,0.97305,1.56825,0.17120,0.93215,0.16138,0.27523,30.82771,16.89258,-16.50547
0.01933,1.35914,-0.52885,-0.46569,0.34179,-0.23505,1.20960,1.22894,-0.32777,-0.33742,1.22014,1.66136,0.18221,0.93159,0.17090,0.26408,21.44150,10.42065,-12.91803
0.01245,1.36541,-0.53078,-0.47263,0.36424,-0.21593,1.21703,1.10370,-0.42918,-0.53233,1.71594,1.43832,0.19086,0.93012,0.17656,0.25939,2.40150,-5.02976,-7.95087
0.00513,1.37248,-0.53253,-0.48518,0.39458,-0.19727,1.18772,0.92421,-0.50457,-1.16860,2.19924,0.90694,0.19830,0.92813,0.18149,0.25750,-5.88571,-12.59792,-4.72239
-0.00297,1.38039,-0.53388,-0.50715,0.43211,-0.17613,1.45320,1.00643,-0.63568,-1.74162,2.51796,1.07368,0.21158,0.92564,0.19320,0.24717,12.76615,2.83533,-8.11702
-0.01143,1.38841,-0.53527,-0.52935,0.46308,-0.15979,1.75178,1.15815,-0.73491,-2.06764,2.73555,1.30773,0.22597,0.92282,0.20718,0.23328,24.12749,11.35732,-9.50552
-0.02118,1.39768,-0.53603,-0.56728,0.50709,-0.13735,2.15630,1.40286,-0.83690,-2.70597,2.86780,1.45970,0.24309,0.91885,0.22512,0.21434,25.76427,14.46033,-7.14408
-0.03123,1.40691,-0.53678,-0.60110,0.54105,-0.11939,2.39925,1.58064,-0.85703,-2.83355,2.91324,1.77099,0.25740,0.91501,0.24117,0.19580,24.14954,15.70953,-3.85622
-0.04223,1.41699,-0.53704,-0.64105,0.58004,-0.09788,2.45709,1.63807,-0.79948,-2.65303,2.73854,2.02587,0.26787,0.91168,0.25434,0.18000,10.90220,7.89451,2.83467
-0.05383,1.42772,-0.53685,-0.68292,0.62227,-0.07322,2.24512,1.50322,-0.68004,-2.51799,2.60735,1.74715,0.27291,0.90981,0.26154,0.17137,-11.09227,-8.27813,7.46279
-0.06523,1.43819,-0.53651,-0.71251,0.65100,-0.05185,2.09684,1.35817,-0.63147,-2.71765,2.08701,1.81555,0.27901,0.90707,0.26911,0.16419,-15.14887,-12.72067,7.49593
-0.07738,1.44933,-0.53543,-0.74565,0.68252,-0.02488,2.04507,1.39682,-0.65359,-2.14112,2.98361,1.54681,0.28854,0.90384,0.27681,0.15227,-8.61139,-2.34006,-3.10199
-0.08942,1.46142,-0.53392,-0.77061,0.72188,0.00322,2.30013,1.59121,-0.59517,-1.80787,2.71872,1.90852,0.29862,0.89884,0.29246,0.13184,15.05728,10.50238,5.46704
-0.10171,1.47346,-0.53194,-0.79446,0.75230,0.03227,2.59097,1.82203,-0.64708,-1.85131,1.88789,2.12451,0.31258,0.89155,0.30916,0.10889,21.38577,15.49010,-2.45394
-0.11432,1.48527,-0.52966,-0.81844,0.77442,0.06152,2.82219,2.02497,-0.67986,-1.53736,1.34309,2.29682,0.32624,0.88341,0.32549,0.08495,19.68389,15.92545,-2.71880
-0.12668,1.49677,-0.52748,-0.83303,0.78670,0.08214,2.89907,2.11445,-0.68446,-1.26544,1.09239,2.29633,0.33786,0.87564,0.33914,0.06399,13.21581,10.96537,-1.13058
-0.13949,1.50865,-0.52423,-0.85126,0.80201,0.11387,2.81540,2.12335,-0.63216,-0.85231,0.79595,2.19641,0.34639,0.86950,0.34911,0.04587,-1.92453,2.03840,2.93358
-0.15213,1.52044,-0.52085,-0.86263,0.81203,0.14042,2.59518,2.03759,-0.55273,-0.70219,0.50022,1.99377,0.35224,0.86519,0.35545,0.03193,-13.69309,-5.08894,7.04106
-0.16479,1.53201,-0.51692,-0.87250,0.81759,0.17021,2.33353,1.93257,-0.47827,-0.62610,0.20231,1.76989,0.35708,0.86185,0.35959,0.02001,-16.79106,-7.98155,6.46279
-0.17730,1.54333,-0.51303,-0.87826,0.81747,0.19274,2.23436,1.92777,-0.47576,-0.65765,-0.00980,1.66509,0.36463,0.85631,0.36572,0.00514,-12.93973,-3.89148,3.85197
-0.18997,1.55434,-0.50814,-0.88428,0.81165,0.22338,2.36547,2.13176,-0.56024,-0.49756,-0.40298,1.65928,0.37717,0.84659,0.37512,-0.01744,5.27422,10.45209,-3.53179
-0.20249,1.56502,-0.50324,-0.88749,0.80256,0.24860,2.59907,2.41480,-0.66922,-0.14113,-0.77799,1.76446,0.39204,0.83368,0.38638,-0.04465,16.72942,21.27069,-6.78608
-0.21496,1.57524,-0.49828,-0.88967,0.78975,0.27099,2.72245,2.62327,-0.72936,0.11052,-1.17030,1.72615,0.40552,0.82095,0.39569,-0.07089,12.35246,17.88696,-4.54168
-0.22740,1.58518,-0.49351,-0.88996,0.77647,0.28766,2.67832,2.67250,-0.72916,0.20881,-1.32706,1.53833,0.41607,0.81030,0.40218,-0.09254,1.47269,8.60744,-0.35316
-0.23984,1.59455,-0.48855,-0.89039,0.75830,0.30397,2.47341,2.60340,-0.67488,0.03530,-1.53109,1.18491,0.42371,0.80278,0.40504,-0.10933,-11.65097,-3.37550,4.75324
-0.25221,1.60309,-0.48361,-0.88994,0.73231,0.31806,2.16198,2.50673,-0.60699,0.07463,-1.76689,0.78001,0.43032,0.79768,0.40418,-0.12317,-18.97932,-6.75840,7.23233
-0.26449,1.61155,-0.47903,-0.88708,0.71057,0.32555,1.94899,2.48022,-0.58883,0.22790,-1.68581,0.61769,0.43851,0.79104,0.40350,-0.13844,-18.83785,-3.65754,5.14239
-0.27654,1.61974,-0.47433,-0.88172,0.68998,0.33322,1.81240,2.54016,-0.59381,0.42276,-1.42280,0.76891,0.44804,0.78300,0.40227,-0.15605,-13.94682,1.91768,3.62180
-0.28774,1.62767,-0.46812,-0.87178,0.66679,0.35193,1.73833,2.65162,-0.59698,0.47940,-1.37543,1.46887,0.45814,0.77361,0.40086,-0.17593,-4.13520,8.50650,1.00566
-0.29839,1.63584,-0.46049,-0.86310,0.64814,0.37730,1.67932,2.69951,-0.54530,0.49601,-1.04536,1.91859,0.46599,0.76478,0.39979,-0.19526,-3.96123,3.60260,4.50305
-0.30850,1.64393,-0.45175,-0.84952,0.63211,0.41351,1.68800,2.76610,-0.47906,0.66979,-0.83139,2.29317,0.47302,0.75489,0.39947,-0.21638,0.45115,2.75214,4.69592
-0.31944,1.65182,-0.44413,-0.83831,0.62047,0.44155,1.73031,2.83985,-0.44231,1.11127,-1.01264,2.42560,0.48019,0.74365,0.39959,-0.23818,4.48562,4.99165,3.52339
-0.32922,1.65906,-0.43558,-0.81301,0.60255,0.47831,1.78269,2.93613,-0.46132,1.91684,-1.19575,2.31069,0.48869,0.73054,0.39954,-0.26049,3.58419,6.06982,-0.32379
-0.33833,1.66606,-0.42691,-0.78156,0.58360,0.50900,1.81643,3.01948,-0.52723,2.55344,-1.49307,2.22359,0.49832,0.71611,0.39919,-0.28197,2.94541,7.18958,-3.75671
-0.34643,1.67252,-0.41753,-0.74096,0.56004,0.54342,1.71478,2.94745,-0.55717,2.74952,-1.69260,2.20601,0.50640,0.70468,0.39762,-0.29814,-4.97124,-1.61719,-2.25816
-0.35434,1.67879,-0.40805,-0.70561,0.53867,0.57299,1.57946,2.78524,-0.53137,2.53114,-1.41776,2.08375,0.51218,0.69567,0.39598,-0.31130,-10.35189,-10.86568,2.19024
-0.36218,1.68509,-0.39849,-0.67637,0.52153,0.59640,1.49685,2.66775,-0.49797,2.30557,-1.32568,1.84599,0.51740,0.68621,0.39455,-0.32518,-7.77940,-11.44885,2.94907
-0.36932,1.69108,-0.38863,-0.64349,0.50351,0.61899,1.47285,2.60330,-0.48499,2.19724,-1.07586,1.40766,0.52272,0.67546,0.39359,-0.34002,-3.78608,-6.67465,1.30115
-0.37607,1.69694,-0.37890,-0.61159,0.48714,0.63525,1.51478,2.63499,-0.49202,2.15707,-1.14382,0.95987,0.52863,0.66226,0.39260,-0.35753,2.08520,0.62785,-0.17671
-0.38247,1.70259,-0.36932,-0.58100,0.47113,0.64587,1.55140,2.68897,-0.47992,2.26145,-1.15199,0.61824,0.53418,0.64859,0.39078,-0.37587,3.46699,4.03792,-0.01059
-0.38834,1.70810,-0.35983,-0.54917,0.45643,0.65359,1.56051,2.67404,-0.42057,2.42845,-1.12759,0.51890,0.53778,0.63653,0.38883,-0.39298,1.63572,-0.18408,3.15447
-0.39377,1.71331,-0.35016,-0.51686,0.44008,0.66165,1.54218,2.57020,-0.32367,2.46138,-1.39043,0.55615,0.53923,0.62659,0.38727,-0.40820,0.62927,-5.65387,5.45630
-0.39861,1.71817,-0.34035,-0.48399,0.42194,0.66948,1.46363,2.37950,-0.18898,2.49590,-1.31096,0.46914,0.53868,0.61999,0.38550,-0.42052,-3.40340,-13.17927,8.58886
-0.40266,1.72299,-0.33022,-0.45298,0.40665,0.67569,1.38400,2.19321,-0.07747,2.49821,-1.28730,0.36315,0.53770,0.61416,0.38382,-0.43171,-5.09807,-16.60516,8.99239
-0.40515,1.72726,-0.32004,-0.40824,0.38694,0.68057,1.29051,1.98491,0.03142,2.82422,-1.01082,0.15058,0.53584,0.60996,0.38225,-0.44126,-5.16758,-14.36331,7.52800
-0.40735,1.73155,-0.31027,-0.36082,0.37112,0.68342,1.25841,1.78203,0.11299,2.95178,-0.99622,0.19152,0.53314,0.60539,0.38223,-0.45073,-2.05897,-12.57952,4.26154
-0.41002,1.73584,-0.30050,-0.32639,0.35816,0.68690,1.26640,1.62207,0.16544,2.83639,-1.06919,0.37051,0.53019,0.60001,0.38297,-0.46068,0.26322,-13.08644,2.97918
-0.41204,1.73973,-0.29049,-0.29016,0.34232,0.69321,1.30733,1.39200,0.25132,2.47913,-1.19476,0.42609,0.52434,0.59650,0.38575,-0.46952,3.22493,-16.41534,3.77231
-0.41318,1.74299,-0.28054,-0.24742,0.32032,0.69783,1.34307,1.10811,0.37135,2.35084,-1.32782,0.03715,0.51611,0.59526,0.38950,-0.47706,3.31392,-16.35589,4.98274
-0.41476,1.74641,-0.27095,-0.21933,0.30449,0.69557,1.32726,0.93492,0.43042,2.34223,-1.43268,-0.36274,0.50994,0.59308,0.39179,-0.48448,0.95301,-16.10133,3.68336
-0.41509,1.74925,-0.26188,-0.17843,0.28354,0.68637,1.25816,0.75710,0.46445,2.69315,-1.29419,-0.61326,0.50431,0.59211,0.39376,-0.48992,-3.41342,-11.86966,2.29237
-0.41532,1.75206,-0.25279,-0.14474,0.26664,0.67979,1.23524,0.67553,0.43785,2.81147,-1.40843,-0.35618,0.50002,0.58886,0.39607,-0.49633,-3.41454,-8.89872,-0.81850
-0.41469,1.75425,-0.24343,-0.10572,0.24413,0.67797,1.25784,0.61118,0.35538,2.69142,-1.62539,0.14086,0.49631,0.58393,0.40013,-0.50259,0.23718,-4.15183,-6.37640
-0.41328,1.75586,-0.23374,-0.06276,0.21746,0.68183,1.36112,0.58844,0.24849,2.71996,-1.55968,0.31085,0.49230,0.57662,0.40598,-0.51022,5.72087,-1.46722,-7.07185
-0.41194,1.75762,-0.22403,-0.02965,0.19861,0.68543,1.43870,0.56216,0.16322,2.86425,-1.65299,0.25408,0.48818,0.56939,0.41185,-0.51754,7.13630,-0.12125,-7.13721
-0.40972,1.75886,-0.21420,0.00908,0.17599,0.68929,1.48988,0.47816,0.08159,2.89675,-1.64092,0.19878,0.48356,0.56301,0.41883,-0.52323,4.36552,-3.86726,-6.35796
-0.40699,1.75990,-0.20437,0.04721,0.15540,0.69273,1.51744,0.35353,0.01394,2.64594,-1.41513,0.21547,0.47837,0.55772,0.42656,-0.52740,2.05544,-7.96601,-6.50440
-0.40391,1.76086,-0.19453,0.08270,0.13781,0.69556,1.54524,0.23989,-0.03007,2.51188,-1.16255,0.21041,0.47257,0.55275,0.43443,-0.53143,1.71424,-8.61112,-4.29718
-0.40040,1.76178,-0.18464,0.11726,0.12315,0.69858,1.58941,0.12785,-0.08116,2.44099,-0.94837,0.24391,0.46629,0.54749,0.44326,-0.53512,2.98866,-6.88541,-4.15744
-0.39687,1.76268,-0.17468,0.14465,0.11151,0.70193,1.64624,0.02763,-0.11231,2.20372,-1.00818,0.28976,0.45914,0.54217,0.45251,-0.53896,4.10155,-8.13163,-4.40596
-0.39271,1.76330,-0.16471,0.17534,0.09820,0.70507,1.72191,-0.06439,-0.16071,2.24311,-0.85290,0.13937,0.45159,0.53614,0.46286,-0.54257,4.92492,-6.39021,-3.86115
-0.38814,1.76381,-0.15482,0.20546,0.08601,0.70579,1.77458,-0.18728,-0.20652,2.21022,-0.93922,-0.10940,0.44343,0.53087,0.47395,-0.54491,4.65468,-7.04343,-4.24256
-0.38291,1.76419,-0.14512,0.23960,0.07425,0.70390,1.72756,-0.43129,-0.22939,2.24791,-0.75798,-0.24022,0.43438,0.52977,0.48530,-0.54326,-1.67229,-13.11985,-3.40211
-0.37763,1.76469,-0.13537,0.26809,0.06661,0.70364,1.62930,-0.72954,-0.24890,2.00135,-0.38278,0.14046,0.42476,0.53150,0.49699,-0.53860,-8.06562,-21.33129,-3.80491
-0.37184,1.76528,-0.12530,0.29792,0.06159,0.70732,1.63368,-0.89646,-0.30448,2.11719,-0.07374,0.62764,0.41524,0.52993,0.50966,-0.53573,-3.26184,-14.43967,-4.62375
-0.36555,1.76580,-0.11484,0.32919,0.05663,0.71644,1.77227,-0.94507,-0.42213,2.16452,-0.42979,0.85583,0.40577,0.52324,0.52464,-0.53509,8.95424,-4.37618,-7.89655
-0.35893,1.76597,-0.10406,0.35904,0.04765,0.72848,1.92943,-0.99675,-0.54055,2.15818,-0.82831,0.89221,0.39549,0.51534,0.54086,-0.53430,12.29696,-1.63025,-7.70559
-0.35207,1.76569,-0.09292,0.38589,0.03376,0.74269,2.06667,-1.08199,-0.65503,1.76646,-1.15122,1.08356,0.38437,0.50749,0.55811,-0.53219,10.07492,-5.42722,-8.79471
-0.34503,1.76509,-0.08160,0.41008,0.01819,0.75698,2.22085,-1.13651,-0.76015,1.69429,-1.04215,1.04338,0.37268,0.49819,0.57588,-0.53036,10.73983,-4.13205,-7.66039
-0.33767,1.76437,-0.07013,0.43420,0.00416,0.77090,2.41540,-1.16629,-0.86794,1.66952,-1.00015,0.94045,0.36011,0.48662,0.59472,-0.52898,13.90652,-1.14573,-6.95978
-0.33053,1.76367,-0.05879,0.44942,-0.00661,0.77879,2.53963,-1.21000,-0.93462,1.48637,-1.26353,0.56999,0.34706,0.47586,0.61282,-0.52683,14.64917,-2.71514,-6.40448
-0.32258,1.76201,-0.04752,0.47330,-0.02870,0.78478,2.62198,-1.33929,-1.05082,1.18844,-1.39348,-0.00723,0.33336,0.46595,0.63257,-0.52116,6.00486,-6.47514,-6.61485
-0.31504,1.76044,-0.03668,0.48720,-0.04573,0.78388,2.62109,-1.44532,-1.14749,0.82866,-1.14228,-0.12296,0.32080,0.45730,0.65079,-0.51423,0.01655,-7.19493,-8.84981
-0.30764,1.75906,-0.02596,0.49593,-0.05616,0.78120,2.63806,-1.47433,-1.19654,0.76076,-0.96401,-0.28507,0.30830,0.44739,0.66781,-0.50875,0.97494,-4.50065,-6.89107
-0.29967,1.75716,-0.01553,0.51062,-0.07174,0.77456,2.67193,-1.51655,-1.30481,0.69411,-0.87796,-0.40396,0.29592,0.43617,0.68618,-0.50134,2.49548,-1.27832,-6.02067
-0.29204,1.75520,-0.00517,0.51808,-0.08584,0.76834,2.70104,-1.52754,-1.37269,0.33920,-1.17570,-0.45856,0.28352,0.42458,0.70347,-0.49445,2.02484,-0.81616,-5.56899
-0.28452,1.75275,0.00502,0.52279,-0.10399,0.76140,2.75741,-1.50731,-1.42270,0.27944,-1.41862,-0.49157,0.27094,0.41152,0.72038,-0.48816,4.62343,1.56854,-3.15117
-0.27693,1.74959,0.01521,0.52699,-0.12916,0.75511,2.83202,-1.49937,-1.46113,0.27356,-1.75198,-0.26996,0.25740,0.39763,0.73730,-0.48170,4.37730,1.11152,-1.56316
-0.26948,1.74610,0.02556,0.52876,-0.15427,0.75275,2.91359,-1.53086,-1.48532,0.08443,-1.84396,-0.12514,0.24236,0.38365,0.75420,-0.47462,6.15031,-1.62573,-1.85825
-0.26212,1.74223,0.03596,0.52891,-0.18000,0.75191,2.95592,-1.62351,-1.51657,0.07297,-2.00258,-0.13096,0.22611,0.37089,0.77097,-0.46575,4.35127,-4.72339,-1.69496
-0.25486,1.73770,0.04648,0.52708,-0.20989,0.75229,2.91941,-1.77884,-1.62491,-0.16145,-2.39964,0.03205,0.20994,0.36001,0.78830,-0.45266,-1.46330,-8.72334,-8.25166
-0.24782,1.73260,0.05703,0.52262,-0.24178,0.75340,2.90590,-1.90619,-1.74296,-0.54279,-2.91433,0.21836,0.19358,0.34831,0.80565,-0.43833,-2.69225,-9.50827,-12.65059
-0.24105,1.72609,0.06767,0.51562,-0.28728,0.75599,2.98957,-1.97358,-1.86665,-0.56266,-3.46801,0.43176,0.17666,0.33306,0.82347,-0.42398,3.91538,-4.75521,-9.97224
-0.23434,1.71841,0.07853,0.50867,-0.34021,0.76048,3.18278,-1.97681,-1.97817,-0.56864,-4.04038,0.45409,0.15882,0.31302,0.84168,-0.41034,12.95659,-1.34528,-6.43690
-0.22801,1.70881,0.08940,0.49762,-0.41120,0.76461,3.46282,-1.96755,-2.09801,-0.85780,-4.86395,0.15176,0.13953,0.28871,0.86033,-0.39625,18.58691,-0.26630,-4.98107
-0.22194,1.69888,0.10005,0.48535,-0.47273,0.76501,3.70724,-1.96617,-2.18513,-1.22676,-5.44207,-0.00656,0.11955,0.26358,0.87778,-0.38175,19.57061,-1.26092,-5.51152
-0.21679,1.68587,0.11032,0.46147,-0.56612,0.75886,4.08010,-1.97683,-2.26858,-1.76785,-6.28578,-0.71651,0.09644,0.23277,0.89554,-0.36678,23.23255,-3.11783,-2.34708
-0.21228,1.67180,0.11981,0.43307,-0.65741,0.74275,4.37922,-2.01095,-2.37148,-2.23234,-6.93200,-1.66348,0.07293,0.20165,0.91199,-0.34970,23.06181,-4.25283,-4.15066
-0.20869,1.65592,0.12813,0.39726,-0.75690,0.71313,4.66810,-2.03525,-2.54771,-2.79849,-7.40172,-2.61175,0.04964,0.16809,0.92784,-0.32923,21.16357,-3.10750,-9.04044
-0.20607,1.63822,0.13507,0.35424,-0.86211,0.66858,4.99646,-2.04405,-2.72648,-3.44438,-7.71026,-3.83911,0.02551,0.13074,0.94236,-0.30694,24.00511,-1.17278,-10.59553
-0.20430,1.61985,0.14061,0.30820,-0.95450,0.61382,5.28227,-2.06800,-2.87264,-4.31765,-7.80807,-5.44285,0.00053,0.09239,0.95453,-0.28345,24.88474,-2.03577,-9.00581
-0.20544,1.59830,0.14179,0.22936,-1.07441,0.50654,5.66367,-2.11974,-3.01312,-5.70705,-7.18711,-8.00043,-0.02710,0.04924,0.96445,-0.25820,24.62088,-4.04605,-8.32033
-0.20795,1.57685,0.14048,0.14534,-1.16893,0.38322,6.01497,-2.25739,-3.00700,-6.77023,-6.17777,-9.70168,-0.05883,0.00578,0.97018,-0.23507,22.79749,-12.25199,-3.55480
-0.21164,1.55590,0.13705,0.06256,-1.23635,0.25622,6.35540,-2.49948,-2.82265,-7.74243,-4.87267,-11.42553,-0.09602,-0.03815,0.97084,-0.21631,22.34875,-22.70567,5.02282
-0.21944,1.53456,0.12664,-0.06295,-1.29587,0.05363,6.77389,-3.10699,-2.36374,-8.61979,-2.34021,-13.99350,-0.14842,-0.08272,0.96387,-0.20512,16.28214,-47.37487,11.42899
-0.22860,1.51546,0.11318,-0.18434,-1.31005,-0.15480,6.98514,-3.90806,-1.94184,-9.04226,0.48378,-16.14043,-0.20860,-0.12089,0.95083,-0.19441,5.09161,-64.38631,5.22037
-0.23865,1.49874,0.09700,-0.29219,-1.28770,-0.35733,7.00616,-4.72399,-1.72417,-8.74806,3.38519,-18.22975,-0.27197,-0.15238,0.93301,-0.17974,-4.84916,-69.24010,-11.69180
-0.25177,1.48670,0.07090,-0.42239,-1.20217,-0.66267,6.87175,-5.69757,-1.77934,-6.87315,7.27428,-20.30198,-0.34278,-0.17498,0.90938,-0.15786,-8.53344,-55.10795,-33.55523
-0.26342,1.47846,0.04216,-0.50577,-1.07671,-0.94748,6.73316,-6.27485,-2.09050,-4.38867,10.95321,-20.98500,-0.40522,-0.19668,0.88365,-0.12761,-1.55575,-30.62453,-39.93804
-0.27348,1.47565,0.00937,-0.54907,-0.89812,-1.23334,6.57686,-6.63680,-2.51605,-1.50516,14.79092,-20.13121,-0.46256,-0.21529,0.85512,-0.09195,4.58293,-10.12695,-41.86900
-0.28086,1.47843,-0.02575,-0.54477,-0.67494,-1.49535,6.30322,-6.97202,-2.88335,2.16561,17.76982,-17.92238,-0.51839,-0.22729,0.82239,-0.05726,-1.94994,-6.20565,-39.67809
-0.28455,1.48702,-0.06244,-0.48683,-0.41195,-1.72521,5.89711,-7.13461,-3.19636,6.29023,20.38987,-15.42110,-0.56873,-0.23286,0.78850,-0.02417,-12.72855,0.79465,-37.56808
-0.28308,1.50339,-0.10096,-0.36391,-0.08543,-1.93813,5.50901,-7.18230,-3.74484,10.40291,21.04951,-11.56091,-0.61518,-0.23189,0.75333,0.01646,-8.08123,17.05761,-43.07381
-0.27809,1.52073,-0.13611,-0.21505,0.18862,-2.05916,4.99045,-6.74798,-3.62421,13.91655,24.61638,-9.05886,-0.64503,-0.23466,0.72619,0.03896,-18.18409,30.15084,2.53151
-0.26680,1.54556,-0.17173,-0.00699,0.51081,-2.15843,4.34613,-6.42371,-3.59585,15.54954,22.21967,-5.36474,-0.67444,-0.22886,0.69945,0.05935,-36.25394,39.39968,-10.36605
-0.24900,1.57564,-0.20575,0.25715,0.84875,-2.21593,3.44001,-6.36293,-3.53475,16.80699,20.89932,-2.23927,-0.70744,-0.21261,0.67040,0.06989,-45.74329,23.67292,-13.99701
-0.23111,1.60364,-0.23753,0.46809,1.08728,-2.23050,2.46725,-6.70846,-3.59525,17.55540,20.30404,-0.80962,-0.74856,-0.18671,0.63184,0.07469,-63.88084,5.90970,-34.45500
-0.20401,1.64022,-0.26859,0.77114,1.40210,-2.22919,0.88146,-7.58184,-4.04685,19.92747,19.78782,0.54073,-0.80154,-0.13077,0.57950,0.06785,-84.38345,-22.79247,-74.69578
-0.17038,1.68064,-0.29848,1.11901,1.71875,-2.21143,-0.61067,-8.43779,-4.90642,24.53208,20.71653,1.72229,-0.85187,-0.05987,0.51623,0.06509,-63.70914,-30.46908,-97.07275
-0.13373,1.72123,-0.32731,1.43926,1.97191,-2.18271,-1.72056,-9.08539,-5.74970,28.84307,21.69019,3.02331,-0.89261,0.01256,0.44593,0.06508,-54.21763,-31.53863,-105.33550
-0.08821,1.76564,-0.35478,1.81350,2.21989,-2.13817,-2.63096,-9.88025,-6.55098,35.83268,22.75004,6.42880,-0.92687,0.08919,0.35899,0.06385,-31.78136,-66.28587,-106.85510
-0.01560,1.82481,-0.37366,2.52047,2.64067,-1.97411,-4.27953,-10.14398,-8.09299,43.00682,22.97622,13.10022,-0.93807,0.20534,0.27387,0.05343,-35.38188,-18.21957,-127.19580
0.05305,1.87932,-0.39052,3.02841,2.90950,-1.81426,-4.24098,-9.63485,-9.35514,43.61914,20.51287,16.85045,-0.92952,0.29542,0.20671,0.07734,44.53738,-11.58047,-106.57570
0.13087,1.93675,-0.40186,3.54910,3.15549,-1.60900,-3.13099,-8.72058,-10.54269,45.12141,19.19281,20.72948,-0.90474,0.37389,0.15558,0.13207,126.44730,-29.33857,-40.50064
0.23080,1.99969,-0.39873,4.28892,3.43175,-1.23323,-0.89027,-7.73304,-11.98749,48.03698,14.37497,27.72423,-0.85735,0.44677,0.11544,0.22808,172.52630,-70.41801,-5.59907
0.34427,2.05981,-0.37803,5.10234,3.61739,-0.65889,1.64467,-6.59322,-13.27929,54.84756,8.05314,44.21925,-0.78528,0.51356,0.08871,0.33426,163.45720,-85.15616,3.49763
0.45244,2.11348,-0.35447,5.65022,3.66381,-0.17255,3.30955,-5.93009,-14.16005,56.41005,0.85594,53.16965,-0.69983,0.57422,0.05319,0.42151,166.52870,-107.84600,-10.07920
0.59501,2.15789,-0.28856,6.58393,3.56241,0.82940,6.59364,-5.01847,-15.90462,62.35677,-16.26647,72.68144,-0.54873,0.62963,0.03718,0.54870,175.42520,-141.81170,-42.45586
0.75359,2.17373,-0.18931,7.59309,3.04625,2.15362,10.28498,-4.33911,-18.44162,65.85235,-52.79932,94.76191,-0.32675,0.67085,0.01585,0.66554,185.91510,-162.28910,-118.94310
0.90139,2.16912,-0.09220,8.21090,2.34553,3.14595,12.88625,-3.88964,-20.58894,61.63285,-92.22175,105.21080,-0.08119,0.67959,-0.01732,0.72888,182.09090,-170.71020,-187.36800
1.06242,2.05239,0.07023,8.87745,0.14204,4.87264,16.71669,-0.66522,-24.40820,18.95159,-189.64080,102.85640,0.27242,0.67165,-0.00944,0.68890,262.62100,-122.45510,-227.55160
1.15504,1.81187,0.22390,8.38857,-3.51361,6.14203,23.59884,6.73227,-25.05413,-80.59591,-262.19510,44.83184,0.62753,0.59161,0.13856,0.48683,419.83180,-343.68320,-293.36630
1.15411,1.51773,0.31366,6.57356,-7.23447,6.18175,33.72363,10.11208,-20.47421,-176.11210,-257.12330,-48.06041,0.85142,0.31927,0.35119,0.22319,270.29530,-223.10150,-674.86540
1.05338,1.21530,0.30849,3.64465,-10.27051,4.77307,45.09749,7.91522,-11.25775,-225.48600,-160.27590,-147.37640,0.82394,-0.10316,0.54800,-0.10089,404.39410,347.03780,-855.22920
0.89568,0.98781,0.20518,0.49165,-11.51862,2.18757,48.19780,-3.57124,-5.94126,-209.90520,-18.35487,-183.94670,0.59638,-0.49093,0.59258,-0.22839,572.80220,751.33060,-563.31920
0.77138,0.92096,0.09746,-1.47394,-10.78567,-0.04015,37.12771,-8.80288,-11.40075,-134.67740,106.07560,-153.32220,0.54911,-0.63588,0.53868,-0.06297,11.20135,1057.49500,123.09900
0.67457,0.87303,-0.00867,-2.50523,-8.87954,-1.46459,22.32857,-1.86451,-15.96232,-27.06255,151.53830,-54.09959,0.70182,-0.55917,0.39868,0.18928,-60.99793,924.23370,1007.83300
0.62375,0.85084,-0.06065,-2.65229,-7.11007,-1.76884,16.90194,0.77417,-11.41519,22.09476,119.75820,8.18300,0.76268,-0.48771,0.38200,0.18585,-207.38860,165.96300,660.22430
0.59405,0.83326,-0.07349,-2.48606,-5.81950,-1.47916,13.99832,-4.95083,-6.25679,15.39559,69.32853,34.48763,0.66505,-0.49966,0.54385,0.11084,-412.99480,-401.42880,-84.05804
0.56815,0.80388,-0.06324,-2.33167,-5.03677,-0.97365,9.32713,-8.42947,-5.83056,1.73624,40.43615,32.87344,0.53848,-0.52676,0.64110,0.14684,-371.41860,-148.09410,-321.13580
0.54165,0.76053,-0.05160,-2.23163,-4.64498,-0.57997,5.35444,-7.21181,-5.09576,3.15349,29.30176,28.18816,0.50974,-0.50093,0.66875,0.20495,-262.84920,169.40500,-160.43060
0.51660,0.73176,-0.03360,-2.20383,-4.26402,-0.19545,2.13802,-3.86953,-3.95054,-2.26259,24.51148,21.28883,0.54429,-0.43905,0.66011,0.27430,-170.63350,262.74850,58.59528
0.48105,0.69735,-0.01890,-2.28791,-3.91124,0.06330,0.62420,-2.69373,-3.73975,-6.03083,26.69128,19.75650,0.53802,-0.42395,0.65683,0.31524,-79.92880,167.99950,18.47365
0.44217,0.66581,-0.00535,-2.40070,-3.59319,0.24777,-0.32824,-2.77124,-4.15376,-10.13227,24.99774,13.53440,0.49874,-0.43372,0.66383,0.34996,-85.10856,18.17106,-33.46698
0.40119,0.64192,0.01232,-2.52238,-3.22619,0.45295,-1.48049,-1.98436,-4.47825,-5.77572,22.27987,12.35775,0.47346,-0.42584,0.65779,0.40226,-45.11252,60.80013,-45.53808
0.36545,0.61535,0.02840,-2.56261,-2.97815,0.59266,-2.54211,-1.35838,-4.27595,-3.05545,19.38347,10.38583,0.45167,-0.40393,0.65886,0.44580,-62.59791,75.81355,-13.63350
0.33197,0.59760,0.04687,-2.57836,-2.65043,0.73826,-3.81535,0.18654,-3.57045,-0.94876,19.05607,5.21598,0.45348,-0.34897,0.65240,0.49694,-51.42245,107.49090,13.44243
0.29739,0.58017,0.06035,-2.58142,-2.37210,0.78028,-4.26775,1.29027,-3.12588,-0.17388,21.35807,1.01708,0.45558,-0.30944,0.63921,0.53676,-18.23917,102.42170,10.59028
0.26563,0.57102,0.07061,-2.56744,-2.04440,0.76323,-4.22270,1.86847,-2.97634,1.07645,25.23674,-2.79689,0.45358,-0.28529,0.62337,0.56946,8.48058,54.18028,-1.31200
0.23451,0.56576,0.07752,-2.54076,-1.72457,0.70664,-3.98836,2.01230,-3.01811,1.83016,27.19633,-6.66728,0.44547,-0.27246,0.60812,0.59793,14.88594,16.77664,-4.70674
0.20447,0.57079,0.07829,-2.48877,-1.30109,0.57137,-3.19995,2.35180,-3.24984,3.29195,25.77682,-10.72789,0.44940,-0.27211,0.57952,0.62302,41.31256,0.28223,-21.87143
0.17605,0.57424,0.07649,-2.41855,-0.97713,0.42561,-2.15545,3.01572,-3.59798,5.38282,21.06193,-10.83814,0.46661,-0.27513,0.53598,0.64754,72.70627,21.42157,-43.94294
0.15009,0.57744,0.07284,-2.32151,-0.72429,0.28412,-1.06129,3.56115,-3.84147,8.29019,15.92054,-9.29977,0.48895,-0.28115,0.48856,0.66573,79.75038,19.68327,-45.49017
0.12759,0.57980,0.06924,-2.19281,-0.53679,0.16977,-0.24378,3.69601,-3.80929,10.62521,11.05818,-6.39390,0.50712,-0.28707,0.45023,0.67655,67.30339,1.94322,-22.73334
0.10873,0.58034,0.06622,-2.04174,-0.41226,0.08892,0.08289,3.33686,-3.38818,11.15440,6.76959,-4.56174,0.51540,-0.28945,0.43156,0.68142,30.89980,-23.46254,15.72305
0.09009,0.57870,0.06400,-1.91609,-0.34646,0.03938,0.04452,2.60011,-2.89212,10.55883,4.03112,-2.77658,0.51202,-0.29340,0.42815,0.68442,8.87961,-47.63424,37.08876
0.07556,0.57819,0.06104,-1.75777,-0.27883,-0.01499,-0.59550,0.89787,-1.98368,9.94319,4.57009,-3.74026,0.48278,-0.30268,0.46235,0.67936,-49.33722,-94.75908,61.89698
0.06046,0.57808,0.05777,-1.63737,-0.21791,-0.06180,-0.92362,-0.25059,-1.44718,8.76876,6.16159,-4.72598,0.45768,-0.31374,0.48648,0.67486,-50.50577,-100.81020,62.85284
0.04880,0.58086,0.05338,-1.49216,-0.12843,-0.11405,-0.92652,-0.89785,-1.22091,9.60476,6.97213,-4.05180,0.44005,-0.32703,0.49886,0.67122,-14.79475,-60.38620,26.16801
0.03961,0.58479,0.04931,-1.33664,-0.04420,-0.15201,-0.50831,-0.71925,-1.22008,10.30400,5.64643,-2.86615,0.44226,-0.33523,0.49117,0.67141,18.98649,-5.04608,5.66680
0.03282,0.58805,0.04639,-1.17571,0.01351,-0.16525,0.24680,0.08720,-1.36192,11.02279,3.09773,0.23520,0.46409,-0.33803,0.46439,0.67431,58.29759,41.15454,-9.21726
0.02958,0.59049,0.04623,-0.98905,0.04714,-0.13439,0.88318,1.21505,-1.45590,11.99485,0.91372,3.70743,0.49419,-0.32929,0.42893,0.68071,52.98359,70.04171,-7.42332
0.02735,0.59193,0.04835,-0.82310,0.05678,-0.07562,1.06947,1.92963,-1.32575,12.62171,-0.40277,5.86076,0.51511,-0.31595,0.40423,0.68661,26.47266,50.15176,-3.37016
0.03162,0.59122,0.05418,-0.58994,0.03187,0.02706,0.41903,2.18847,-0.25634,33.42601,-6.40395,11.38229,0.52449,-0.28156,0.41451,0.68834,-13.00685,41.84919,44.11579
0.05519,0.58538,0.06702,-0.12438,-0.06246,0.21140,0.16966,3.14200,1.31200,22.90389,-6.07901,12.69648,0.55524,-0.22059,0.42693,0.67881,-14.19424,10.85808,157.37810
0.07175,0.57973,0.08200,0.14203,-0.13439,0.38765,-0.07710,5.43866,1.09731,14.82934,-0.92397,7.11758,0.58900,-0.14521,0.37450,0.70125,-19.98525,182.76720,25.38565
0.08485,0.58099,0.09142,0.30470,-0.08843,0.44466,0.05204,6.61994,0.49486,10.23627,6.94468,1.44302,0.61458,-0.09749,0.31795,0.71532,-2.96521,98.26432,-51.46487
0.09576,0.58826,0.09724,0.40186,0.03500,0.43680,-0.26012,7.19471,-0.31339,5.24981,8.80576,-1.57117,0.62120,-0.05862,0.26310,0.73583,-41.43271,47.22243,-36.69001
0.10657,0.59684,0.10135,0.47972,0.15054,0.40277,-0.65668,7.50613,-1.20651,5.64182,5.80692,-3.04967,0.61898,-0.02659,0.20459,0.75782,-50.08115,25.39702,-43.37620
0.11702,0.60261,0.10469,0.53437,0.20166,0.36670,-0.90386,7.50023,-1.53925,6.34737,4.49987,-4.55897,0.61684,0.00518,0.15878,0.77089,-43.83651,9.38781,-24.43398
0.13233,0.60921,0.10339,0.65058,0.25170,0.26791,-1.20873,7.28925,-1.79706,7.42281,0.95089,-6.79263,0.60898,0.03258,0.11704,0.78382,-25.92018,-7.63779,-6.66584
0.14767,0.61284,0.10089,0.74540,0.24685,0.16853,-1.28768,6.86122,-1.56724,7.00705,-1.65041,-7.85798,0.60499,0.06011,0.09075,0.78876,-5.57106,-23.24804,14.97186
0.16152,0.61538,0.09922,0.79466,0.23027,0.10785,-1.26512,6.49922,-1.28965,6.34596,-2.60073,-8.09101,0.60245,0.08803,0.06769,0.79040,6.91309,-33.82706,25.93769
0.18003,0.61549,0.09053,0.89910,0.17277,-0.04790,-1.02976,5.40504,-0.31622,4.68993,-3.09486,-7.78076,0.60374,0.10854,0.08160,0.78553,28.05672,-51.80933,43.57940
0.19594,0.61682,0.08473,0.94622,0.14442,-0.13206,-0.84620,4.71536,0.38643,3.13134,-1.84541,-6.67039,0.60424,0.13256,0.08910,0.78063,35.83629,-54.53797,53.65348
0.21206,0.61924,0.07741,0.98415,0.13724,-0.21949,-0.67128,4.13964,0.92681,1.39119,0.91237,-5.67196,0.60465,0.15538,0.09739,0.77509,31.53219,-44.48640,43.05012
0.22751,0.62378,0.06887,1.00819,0.16870,-0.30674,-0.63092,3.94541,0.95346,0.43267,3.22457,-4.78626,0.60328,0.17724,0.08949,0.77242,7.71571,-17.22989,7.34187
0.24251,0.63017,0.06060,1.02092,0.22004,-0.37376,-0.71518,4.11094,0.59357,0.35693,4.24273,-4.54746,0.60021,0.19998,0.06456,0.77174,-10.19379,6.01916,-18.48311
0.25750,0.63769,0.05162,1.03033,0.28061,-0.43430,-0.84410,4.39912,0.12506,0.70220,4.49634,-4.06685,0.59584,0.22312,0.03102,0.77086,-18.84913,18.82526,-31.75323
0.27265,0.64692,0.04272,1.04014,0.35069,-0.48253,-1.03486,4.55737,-0.12801,0.98437,5.15268,-3.38245,0.58795,0.24673,0.00130,0.77035,-19.41028,13.98552,-20.00109
0.28797,0.65807,0.03349,1.05024,0.43357,-0.52634,-1.25659,4.56788,-0.12758,0.79705,6.15739,-3.44064,0.57649,0.27119,-0.02130,0.77049,-16.50190,2.91968,0.33194
0.30339,0.67170,0.02305,1.05875,0.53898,-0.57764,-1.49873,4.44653,0.13350,0.53181,6.55152,-3.34765,0.56119,0.29736,-0.03535,0.77162,-10.59698,-4.71644,18.30985
0.31861,0.68534,0.01293,1.06321,0.62001,-0.61503,-1.61919,4.29542,0.45317,0.25333,6.68954,-3.33180,0.54631,0.32375,-0.04489,0.77118,-4.43696,-8.61265,27.23522
0.33376,0.70124,0.00186,1.06510,0.71488,-0.65822,-1.69704,4.11340,0.89006,-0.03199,6.64225,-3.11748,0.52976,0.35164,-0.04822,0.77031,3.12811,-10.00056,31.72181
0.34862,0.71715,-0.00961,1.06306,0.79493,-0.69409,-1.73030,3.97099,1.28607,-0.43803,6.63872,-3.02340,0.51258,0.38023,-0.04990,0.76824,7.47031,-8.08351,34.31600
0.36301,0.73672,-0.02193,1.05174,0.89981,-0.73916,-1.74905,3.83227,1.78324,-1.44113,6.39876,-2.67529,0.49298,0.41095,-0.04619,0.76548,8.85016,-4.93533,32.44271
0.37623,0.75623,-0.03444,1.02689,0.98662,-0.77666,-1.82711,3.77658,2.06841,-2.59230,6.08702,-2.60503,0.47195,0.44020,-0.04717,0.76241,2.93718,-1.77465,24.17010
0.38841,0.77537,-0.04744,0.99290,1.05557,-0.80978,-1.94268,3.75297,2.22174,-3.48465,5.47807,-2.81306,0.44936,0.46813,-0.05106,0.75916,-4.22797,-1.54529,16.65599
0.39839,0.79737,-0.06181,0.92966,1.13575,-0.85577,-2.05152,3.67533,2.40556,-4.78540,4.29904,-2.92555,0.42499,0.49491,-0.05271,0.75609,-4.42661,-2.72469,12.77708
0.40743,0.81769,-0.07597,0.86946,1.18251,-0.88815,-2.06197,3.57880,2.53477,-5.55175,3.21813,-2.59140,0.40250,0.51992,-0.05319,0.75156,1.99312,-5.70734,12.35281
0.41342,0.83748,-0.09091,0.77808,1.22142,-0.92470,-2.03111,3.42723,2.62858,-6.09224,1.67187,-2.05942,0.38073,0.54256,-0.05206,0.74697,4.63329,-7.88068,7.91071
0.41784,0.85546,-0.10561,0.68117,1.23567,-0.95193,-1.96513,3.31215,2.61781,-6.36997,0.32083,-1.35042,0.36098,0.56365,-0.05262,0.74110,5.75893,-6.64511,0.96852
0.42232,0.87249,-0.11973,0.60590,1.23364,-0.96544,-1.94952,3.24740,2.51532,-6.47543,-0.43920,-0.80404,0.34154,0.58345,-0.05649,0.73468,2.85781,-6.18724,-5.52448
0.42286,0.89756,-0.13213,0.50080,1.23237,-0.97213,-1.97361,3.14141,2.34041,-6.28413,-1.14163,-0.36527,0.32264,0.60045,-0.06272,0.72899,-3.25672,-7.96863,-10.75181
0.42150,0.92860,-0.14338,0.40653,1.23485,-0.97092,-1.94713,3.05102,2.26787,-6.11711,-1.74156,-0.21201,0.30362,0.61785,-0.06653,0.72226,0.07724,-7.87295,-6.16807
0.41857,0.95798,-0.15503,0.31551,1.22692,-0.96728,-1.84908,2.95899,2.22292,-6.43124,-2.54200,0.07210,0.28618,0.63465,-0.06828,0.71460,7.65348,-6.07935,-2.02111
0.41806,0.97281,-0.16843,0.24229,1.19221,-0.96664,-1.87366,2.90651,2.08535,-6.07300,-3.10335,0.32938,0.26785,0.64997,-0.07453,0.70728,-0.06586,-5.81119,-11.52443
0.41572,0.98587,-0.18133,0.15868,1.13958,-0.95958,-2.07776,2.81983,1.77171,-5.56705,-3.98663,0.92993,0.24898,0.66105,-0.08897,0.70221,-16.92064,-9.89888,-17.22329
0.41227,0.99743,-0.19277,0.07464,1.07507,-0.93223,-2.20589,2.61038,1.56956,-5.40544,-4.26625,2.14743,0.23045,0.66929,-0.10007,0.69923,-9.04038,-14.34252,-10.68666
0.40901,1.00903,-0.20382,0.01148,1.02340,-0.90341,-2.25517,2.37105,1.44263,-5.16728,-4.50399,2.46134,0.21264,0.67607,-0.10864,0.69707,-6.84517,-20.68659,-7.53024
0.40459,1.01920,-0.21362,-0.05455,0.96244,-0.86319,-2.13464,2.09328,1.35825,-4.17148,-4.61743,2.88806,0.19874,0.68125,-0.11271,0.69548,5.53307,-21.55330,-4.00736
0.39974,1.02791,-0.22210,-0.11471,0.89224,-0.81109,-1.78993,1.87657,1.27541,-3.38922,-4.47486,3.40542,0.19122,0.68734,-0.11195,0.69171,21.56539,-13.57631,-6.27306
0.39498,1.03643,-0.23032,-0.16036,0.83158,-0.76418,-1.43983,1.70843,1.20957,-3.00059,-4.35235,3.16209,0.18526,0.69382,-0.10966,0.68722,23.42898,-11.51180,-7.02740
0.39015,1.04479,-0.23844,-0.19751,0.78292,-0.72704,-1.03599,1.63659,1.21298,-2.90879,-4.07619,2.85183,0.18103,0.70240,-0.10355,0.68054,30.35297,-6.32451,-4.56848
0.38403,1.05199,-0.24543,-0.24641,0.72764,-0.68070,-0.26651,1.61928,1.29954,-2.79398,-3.09351,2.69635,0.18520,0.71384,-0.08578,0.66990,44.60707,2.31375,-1.55131
0.37782,1.05990,-0.25240,-0.28648,0.69292,-0.64173,0.41698,1.64559,1.43863,-2.82632,-1.99478,2.97264,0.18896,0.72643,-0.06469,0.65758,54.01426,7.88080,4.56592
0.37113,1.06758,-0.25917,-0.32552,0.66211,-0.60861,0.74974,1.64680,1.46510,-2.91150,-1.87400,2.40164,0.18981,0.73699,-0.04978,0.64679,31.93640,2.66177,1.20592
0.36357,1.07459,-0.26598,-0.37068,0.62767,-0.58314,0.72583,1.64885,1.41636,-2.82570,-1.91208,1.50509,0.18587,0.74624,-0.04290,0.63776,3.77124,1.27106,-2.29091
0.35624,1.08175,-0.27363,-0.40155,0.60169,-0.57469,0.42604,1.66699,1.31079,-2.37443,-1.98049,0.57297,0.17717,0.75475,-0.04428,0.63008,-19.39898,-1.01791,-5.43977
0.34867,1.08858,-0.28159,-0.42905,0.57774,-0.57340,0.05154,1.70604,1.19114,-2.12144,-1.83300,-0.05379,0.16616,0.76306,-0.05034,0.62257,-31.79111,0.18249,-6.71215
0.34002,1.09530,-0.28998,-0.46652,0.55627,-0.57818,-0.35289,1.77805,1.13911,-1.86118,-0.71416,-0.57851,0.15171,0.77197,-0.05850,0.61451,-25.61838,1.56878,-1.94415
0.33159,1.10296,-0.29837,-0.49343,0.55323,-0.58174,-0.45255,1.84000,1.23380,-2.35466,-0.20713,-0.28377,0.13877,0.78199,-0.05820,0.60485,-11.58748,4.88166,6.93052
0.32283,1.11070,-0.30666,-0.51923,0.55253,-0.58381,-0.42889,1.89837,1.31986,-2.60086,-0.28786,-0.45879,0.12754,0.79225,-0.05511,0.59416,-3.81906,3.56676,9.87761
0.31178,1.11814,-0.31492,-0.57191,0.54527,-0.58333,-0.35177,2.12060,1.41064,-2.58784,-0.61390,0.96906,0.11663,0.80602,-0.05059,0.57808,7.88083,13.37869,5.25761
0.30193,1.12500,-0.32202,-0.59683,0.53040,-0.56533,-0.81348,1.89844,1.35709,-1.65714,-0.91119,2.69030,0.09930,0.81033,-0.05991,0.57438,-23.28880,-4.26791,-1.20170
