posX, posY, posZ, velX, velY, velZ, angVelX, angVelY, angVelZ, accX, accY, accZ, rotX, rotY, rotZ, rotW, angAccX, angAccY, angAccZ
0.25237,1.13516,-0.38266,-0.13475,0.17774,0.00094,0.93277,0.36796,0.53031,-1.87774,3.02576,-1.72169,0.12961,0.84771,0.01860,0.51405,-9.69262,-1.78302,15.28043
0.24921,1.13996,-0.38498,-0.15491,0.21524,-0.03283,0.63024,0.31437,0.59178,-0.97821,1.77326,-2.38568,0.12278,0.84881,0.01848,0.51392,-20.92877,-4.79706,5.54765
0.24638,1.14432,-0.38766,-0.16561,0.23700,-0.06628,0.55776,0.35211,0.54218,-0.73065,1.08443,-2.91064,0.12161,0.85079,0.02096,0.51082,-9.51930,-0.60456,-1.63157
0.24351,1.14849,-0.39082,-0.17472,0.25107,-0.09965,0.66533,0.48453,0.44224,-0.86337,1.02973,-3.33949,0.12505,0.85419,0.02660,0.50400,3.09502,8.17852,-6.27372
0.24004,1.15345,-0.39539,-0.19112,0.27459,-0.14721,1.04496,0.76888,0.29303,-1.02279,1.84948,-2.92791,0.13558,0.85990,0.03854,0.49062,21.50510,19.51846,-9.77599
0.23654,1.15913,-0.39995,-0.20450,0.30387,-0.18526,1.37270,0.93754,0.17218,-1.17020,2.31389,-2.52952,0.14651,0.86420,0.05148,0.47858,24.31434,14.91501,-8.57837
0.23246,1.16555,-0.40488,-0.22429,0.33815,-0.22083,1.53689,0.98319,0.05026,-1.84396,2.94863,-2.04881,0.15663,0.86686,0.06186,0.46925,16.97181,8.38001,-9.79685
0.22772,1.17260,-0.40988,-0.24945,0.37416,-0.24957,1.55617,0.91761,0.00472,-2.38894,3.35255,-2.56577,0.16332,0.86810,0.07028,0.46345,0.38868,-4.02412,-6.04079
0.22138,1.18169,-0.41608,-0.29397,0.43416,-0.29081,1.80097,1.00282,-0.03464,-3.16829,4.01662,-2.94079,0.17387,0.87061,0.08447,0.45242,13.27613,3.58584,-3.41638
0.21415,1.19140,-0.42258,-0.34383,0.49235,-0.32839,2.16323,1.16812,-0.03881,-3.86040,4.29239,-3.02709,0.18632,0.87375,0.10334,0.43723,22.10874,10.57980,-1.23807
0.20634,1.20160,-0.42942,-0.39071,0.54461,-0.36247,2.61233,1.39643,-0.03690,-4.00351,4.33791,-3.13531,0.20121,0.87696,0.12654,0.41767,33.90779,15.09640,0.18168
0.19677,1.21349,-0.43717,-0.45506,0.61260,-0.40349,3.29805,1.71605,-0.08263,-4.17625,4.27869,-2.37681,0.22241,0.87904,0.15752,0.39117,41.91396,21.48308,-3.00920
0.18687,1.22570,-0.44480,-0.51253,0.67304,-0.43433,3.88007,1.96126,-0.10939,-4.39778,4.54538,-1.98434,0.24338,0.87891,0.18942,0.36387,44.09520,18.57910,-3.90657
0.17675,1.23779,-0.45230,-0.55891,0.71631,-0.45553,4.08183,2.05430,-0.08286,-4.97390,4.55814,-1.34626,0.25873,0.87794,0.21517,0.34057,35.83099,15.88537,-1.15945
0.16311,1.25244,-0.46123,-0.65115,0.79549,-0.49414,3.73107,1.88840,0.10898,-5.37356,4.74409,-2.02233,0.26120,0.87833,0.23006,0.32770,-16.81224,-11.98170,9.36156
0.14942,1.26683,-0.47027,-0.72780,0.85788,-0.52545,3.42018,1.85482,0.31702,-5.73267,4.53766,-2.63413,0.26193,0.88022,0.24370,0.31179,-25.43725,-11.91399,16.42320
0.13407,1.28228,-0.47964,-0.81295,0.92155,-0.55486,3.37045,1.99947,0.39620,-5.05415,3.91584,-2.54863,0.26812,0.88114,0.26050,0.28956,-0.62940,-2.80414,9.76992
0.11935,1.29742,-0.48906,-0.87724,0.98186,-0.57957,3.52621,2.50367,0.46950,-3.93330,3.36623,-0.76919,0.27841,0.88326,0.27910,0.25387,11.35646,32.43507,11.57029
0.10477,1.31196,-0.49791,-0.92273,1.01437,-0.58761,3.50042,2.67290,0.44916,-4.04340,2.42913,0.10929,0.28794,0.88282,0.29439,0.22596,4.41029,21.18328,4.49530
0.08896,1.32710,-0.50643,-0.97491,1.04433,-0.58830,3.25005,2.71406,0.44770,-3.60799,2.08779,0.39549,0.29411,0.88326,0.30385,0.20255,-15.37418,4.11534,3.05447
0.07308,1.34223,-0.51432,-1.01570,1.06606,-0.58193,3.01871,2.75682,0.42589,-3.53789,1.79843,0.80926,0.30051,0.88341,0.31165,0.17931,-20.61779,1.02424,3.75067
0.05607,1.35750,-0.52117,-1.06709,1.08903,-0.55858,2.81548,2.83516,0.37710,-3.24038,1.30902,1.98070,0.30790,0.88321,0.31786,0.15521,-14.12577,4.19503,0.98074
0.03913,1.37309,-0.52710,-1.10119,1.10192,-0.52753,2.71921,2.88302,0.31352,-2.69369,1.01925,3.17256,0.31636,0.88131,0.32571,0.13085,-9.42470,5.91272,-1.39589
0.02197,1.38852,-0.53115,-1.13352,1.11298,-0.47609,2.59444,2.85107,0.23016,-2.15677,0.75781,4.36694,0.32473,0.87872,0.33232,0.10940,-10.01764,0.89455,-3.68659
0.00471,1.40385,-0.53357,-1.16001,1.11974,-0.41012,2.48301,2.75141,0.15151,-1.70602,0.43309,5.10534,0.33260,0.87532,0.33914,0.09045,-9.47540,-6.10401,-4.76982
-0.01245,1.41932,-0.53434,-1.17774,1.12352,-0.33424,2.51087,2.70708,0.04349,-1.23789,0.45079,5.44020,0.34252,0.86971,0.34846,0.06978,-4.05793,-4.47980,-7.52896
-0.02955,1.43449,-0.53301,-1.19296,1.12390,-0.24167,2.81649,2.87502,-0.09571,-0.96212,-0.13687,5.74969,0.35673,0.85981,0.36306,0.04071,15.66395,9.59132,-9.71189
-0.04624,1.44932,-0.53187,-1.19772,1.11732,-0.17157,3.01642,3.01428,-0.21001,0.04437,-0.92449,6.16391,0.37053,0.84920,0.37608,0.01170,19.69439,16.86380,-10.55602
-0.06234,1.46349,-0.52835,-1.19046,1.09998,-0.08105,2.95018,2.97366,-0.34494,0.97228,-1.51313,5.83132,0.38317,0.83989,0.38427,-0.01019,-1.91875,1.52099,-8.49431
-0.07774,1.47733,-0.52519,-1.17527,1.08204,-0.01538,2.79687,2.89291,-0.46645,1.43951,-1.46693,5.42556,0.39512,0.83128,0.38989,-0.02896,-14.70827,-6.07852,-7.09312
-0.09221,1.49043,-0.51993,-1.14856,1.05658,0.06891,2.61942,2.82647,-0.59385,1.69009,-1.56283,5.13431,0.40776,0.82249,0.39379,-0.04666,-12.95554,-1.85931,-7.26909
-0.10659,1.50343,-0.51456,-1.12498,1.03361,0.13757,2.52661,2.83945,-0.67616,1.60891,-1.48258,4.64655,0.42031,0.81269,0.39800,-0.06684,-9.73714,0.02740,-4.63801
-0.12051,1.51595,-0.50854,-1.10041,1.01033,0.20250,2.50180,2.91511,-0.72007,1.85598,-1.56220,4.70874,0.43267,0.80178,0.40239,-0.08958,-3.11223,5.64465,-1.69598
-0.13424,1.52840,-0.50206,-1.07684,0.98924,0.25946,2.51914,2.97579,-0.77758,2.05465,-1.73261,4.88274,0.44538,0.78926,0.40748,-0.11257,0.55469,5.67918,-2.72740
-0.14679,1.54012,-0.49323,-1.04051,0.96130,0.33912,2.57129,3.02124,-0.86004,2.47669,-1.70079,5.13467,0.45859,0.77494,0.41331,-0.13543,3.07530,4.92725,-5.61854
-0.15902,1.55183,-0.48409,-1.00697,0.93955,0.40793,2.52297,2.96227,-0.86576,2.69218,-1.57450,4.91477,0.46895,0.76251,0.41785,-0.15514,-1.05086,-1.17683,-2.57846
-0.17137,1.56388,-0.47535,-0.98201,0.92600,0.45403,2.37668,2.83599,-0.81297,2.71874,-1.42146,4.67934,0.47691,0.75251,0.42041,-0.17187,-8.67865,-7.69681,2.67679
-0.18267,1.57555,-0.46435,-0.94773,0.90857,0.52141,1.98066,2.48242,-0.59090,1.94598,-1.03394,3.91782,0.47787,0.75080,0.41901,-0.17994,-22.37857,-23.23774,13.34314
-0.19395,1.58721,-0.45350,-0.92010,0.89460,0.57330,1.72543,2.26930,-0.37166,1.86587,-0.79634,3.47712,0.47827,0.74843,0.41778,-0.19124,-20.52433,-20.38623,18.01093
-0.20470,1.59852,-0.44211,-0.88958,0.87741,0.62206,1.64131,2.18220,-0.22750,2.19655,-1.28084,3.33465,0.47992,0.74312,0.41827,-0.20615,-6.79114,-9.05598,12.37687
-0.21508,1.60949,-0.43071,-0.86055,0.85948,0.66088,1.62520,2.13268,-0.15342,2.51495,-1.55668,3.07617,0.48247,0.73610,0.41978,-0.22173,-1.20205,-5.08177,6.94305
-0.22429,1.61977,-0.41814,-0.81938,0.83398,0.70684,1.54311,2.02976,-0.02187,2.74492,-1.72764,2.75103,0.48268,0.73140,0.42011,-0.23575,-2.22493,-5.60663,6.91919
-0.23353,1.63004,-0.40597,-0.78790,0.81453,0.73914,1.42617,1.90743,0.09866,2.59276,-1.54230,2.65274,0.48214,0.72806,0.41951,-0.24795,-8.02334,-10.79847,10.75259
-0.24217,1.63971,-0.39349,-0.75498,0.79399,0.77448,1.43658,1.87978,0.22797,2.03860,-1.19175,2.43679,0.48076,0.72318,0.41996,-0.26366,-2.64523,-7.15952,8.40863
-0.25048,1.64905,-0.38084,-0.72173,0.77173,0.80482,1.43990,1.89067,0.36311,2.85159,-2.12092,2.06130,0.47896,0.71822,0.41935,-0.28091,5.75953,2.93203,10.06122
-0.25793,1.65767,-0.36812,-0.68258,0.74249,0.82854,1.30665,1.78819,0.46689,2.90161,-2.33145,1.52133,0.47678,0.71616,0.41709,-0.29297,-7.15154,-7.86163,8.06108
-0.26352,1.66522,-0.35514,-0.63136,0.70208,0.84781,1.16392,1.70845,0.52297,3.28149,-2.77030,0.96784,0.47564,0.71407,0.41401,-0.30408,-8.38909,-5.68349,4.95740
-0.26788,1.67176,-0.34243,-0.57680,0.65392,0.85884,0.99563,1.64204,0.52218,3.29562,-3.22081,0.49287,0.47613,0.71190,0.41004,-0.31364,-10.10120,-4.71422,1.01332
-0.27234,1.67778,-0.33007,-0.53026,0.60694,0.86343,0.81398,1.54280,0.49075,2.92469,-3.27450,0.24438,0.47715,0.71029,0.40593,-0.32098,-13.60223,-8.49678,0.84898
-0.27681,1.68259,-0.31848,-0.48692,0.55418,0.86122,0.67344,1.49377,0.43113,3.27280,-4.01891,-0.35467,0.47937,0.70763,0.40180,-0.32868,-5.95077,-0.89261,-3.87595
-0.28098,1.68714,-0.30718,-0.44867,0.50902,0.85488,0.61783,1.55219,0.34370,2.84399,-3.56521,-0.45523,0.48331,0.70257,0.39763,-0.33868,-13.15751,-1.35954,-4.96874
-0.28407,1.68990,-0.29601,-0.40174,0.44575,0.84607,0.56328,1.60391,0.24024,3.19586,-4.22028,-0.73377,0.48822,0.69674,0.39348,-0.34838,-1.58102,6.27704,-6.75109
-0.28698,1.69253,-0.28514,-0.36129,0.39265,0.83387,0.42908,1.57257,0.14993,2.46014,-3.20455,-0.80211,0.49318,0.69293,0.38843,-0.35459,-12.77133,-4.71241,-4.10084
-0.29010,1.69540,-0.27420,-0.33329,0.35495,0.82559,0.55092,1.77020,0.04062,1.65398,-2.49087,-0.47448,0.49938,0.68261,0.38539,-0.36898,-0.07541,7.65617,-8.13759
-0.29268,1.69743,-0.26328,-0.30243,0.31201,0.81749,0.83143,2.09548,-0.05923,2.40078,-2.71283,-0.61857,0.50578,0.66678,0.38376,-0.39027,19.56104,26.39638,-9.77556
-0.29525,1.69968,-0.25237,-0.27774,0.28039,0.81116,0.86314,1.98897,0.02930,1.99112,-2.53196,-0.48325,0.50573,0.66081,0.38191,-0.40215,6.05989,-0.96297,1.54105
-0.29792,1.70178,-0.24151,-0.25993,0.25368,0.80581,0.79387,1.72189,0.21007,1.66334,-2.41354,-0.62039,0.50179,0.66050,0.37967,-0.40962,-1.60900,-19.07705,12.29650
-0.29999,1.70288,-0.23123,-0.23666,0.21735,0.79194,0.64288,1.28377,0.48340,1.44032,-2.32291,-1.15311,0.49317,0.66670,0.37746,-0.41209,-7.01120,-29.18601,17.01477
-0.30205,1.70409,-0.22142,-0.21819,0.19013,0.77441,0.52530,1.01038,0.64388,1.47985,-2.26567,-1.71168,0.48674,0.67094,0.37461,-0.41543,-7.59030,-26.78543,15.29286
-0.30342,1.70463,-0.21269,-0.19367,0.15928,0.74532,0.42691,0.84291,0.72880,1.59704,-1.92194,-2.18079,0.48190,0.67401,0.37127,-0.41909,-7.88670,-17.38380,9.02599
-0.30413,1.70475,-0.20464,-0.16176,0.12766,0.71061,0.53950,1.03428,0.59225,1.71771,-1.49601,-1.87492,0.48332,0.66674,0.36939,-0.43059,3.00006,7.58967,-5.67818
-0.30444,1.70493,-0.19658,-0.12826,0.10258,0.68230,0.81743,1.35844,0.38367,2.54571,-1.52067,-1.76517,0.48643,0.65267,0.37012,-0.44767,16.52503,24.50974,-14.83323
-0.30452,1.70537,-0.18830,-0.10029,0.08722,0.66397,0.91345,1.37910,0.31723,2.88050,-1.56883,-1.60034,0.48605,0.64488,0.37069,-0.45877,11.94495,11.08090,-9.96941
-0.30608,1.70566,-0.17990,-0.07086,0.07072,0.64736,0.90536,1.17853,0.31671,2.92727,-1.29577,-1.34887,0.48302,0.64222,0.37235,-0.46433,0.57547,-11.61465,-1.50868
-0.30720,1.70583,-0.17154,-0.03747,0.05606,0.63246,0.89349,0.94434,0.28983,3.12570,-1.00716,-1.18863,0.47968,0.64042,0.37550,-0.46774,-1.00675,-16.98343,-1.83946
-0.30660,1.70576,-0.16337,0.00201,0.04209,0.61963,0.92092,0.75317,0.20369,3.27324,-0.96819,-0.86871,0.47710,0.63718,0.38044,-0.47080,0.69518,-14.06570,-5.65968
-0.30349,1.70533,-0.15540,0.04771,0.02703,0.60966,0.96514,0.52599,0.08982,3.32691,-1.15620,-0.66262,0.47416,0.63396,0.38776,-0.47213,3.57135,-14.03073,-8.54544
-0.29987,1.70471,-0.14749,0.09156,0.01220,0.60111,1.02978,0.32602,-0.07763,2.80237,-0.79439,-0.52061,0.47210,0.62949,0.39718,-0.47235,2.56232,-16.95660,-12.15085
-0.29593,1.70409,-0.13985,0.13110,0.00057,0.59011,1.16607,0.30001,-0.29199,2.63720,-0.66557,-0.94289,0.47205,0.62036,0.40749,-0.47569,9.38961,-2.76229,-15.34169
-0.29163,1.70360,-0.13272,0.16777,-0.00676,0.57420,1.28790,0.33148,-0.51087,2.44769,-0.40835,-1.22042,0.47340,0.60931,0.41789,-0.47959,8.40279,2.25592,-15.77463
-0.28713,1.70321,-0.12599,0.19957,-0.01108,0.55524,1.37985,0.35805,-0.66758,2.23903,-0.41713,-1.50397,0.47439,0.59831,0.42787,-0.48364,8.60173,5.53633,-13.17629
-0.28257,1.70283,-0.11952,0.22609,-0.01440,0.53694,1.38402,0.23711,-0.74670,1.88762,-0.33198,-1.23713,0.47354,0.59129,0.43790,-0.48413,0.66717,-5.81852,-6.70784
-0.27757,1.70222,-0.11312,0.25372,-0.02064,0.52059,1.42420,0.07751,-0.84691,1.71844,-0.41275,-1.02516,0.47184,0.58406,0.45019,-0.48328,1.79132,-9.08621,-7.00158
-0.27274,1.70150,-0.10673,0.27320,-0.02711,0.50772,1.43193,-0.05887,-0.91387,1.51938,-0.89614,-1.31022,0.46999,0.57744,0.46190,-0.48199,2.18622,-10.30128,-6.90492
-0.26728,1.70066,-0.10102,0.29787,-0.03397,0.48774,1.39800,-0.21025,-1.01068,1.87650,-0.38641,-1.37536,0.46896,0.57138,0.47410,-0.47835,-4.48268,-10.44531,-7.77234
-0.26132,1.69948,-0.09558,0.32485,-0.04457,0.46772,1.36651,-0.43058,-1.10753,1.70277,-1.06353,-1.33701,0.46680,0.56636,0.48799,-0.47244,-0.78049,-10.01695,-7.36731
-0.25564,1.69806,-0.08994,0.34194,-0.05667,0.45445,1.27570,-0.68863,-1.17917,1.35530,-1.05097,-1.00913,0.46412,0.56374,0.50176,-0.46372,-8.60464,-19.60262,-7.76107
-0.24962,1.69622,-0.08445,0.36042,-0.07206,0.44220,1.28500,-0.86887,-1.29693,0.98204,-0.90689,-0.55711,0.46142,0.55844,0.51753,-0.45542,-4.93314,-16.49203,-9.38747
-0.24365,1.69397,-0.07897,0.37465,-0.09052,0.43249,1.44226,-0.88308,-1.42895,0.85269,-1.45389,-0.75284,0.45888,0.54772,0.53455,-0.45132,10.90112,-2.49106,-9.11155
-0.23769,1.69151,-0.07365,0.38512,-0.10785,0.42198,1.56006,-0.92443,-1.54117,0.80006,-1.51214,-1.02176,0.45589,0.53710,0.55191,-0.44619,11.48624,-1.80629,-9.14544
-0.23175,1.68817,-0.06919,0.39347,-0.13503,0.40114,1.59700,-1.06110,-1.64390,0.42971,-1.80826,-1.47093,0.45207,0.52855,0.56971,-0.43783,4.26981,-5.89697,-6.58492
-0.22613,1.68490,-0.06488,0.39540,-0.15594,0.38158,1.43124,-1.29532,-1.69086,0.12366,-1.51867,-1.54343,0.44829,0.52569,0.58507,-0.42470,-10.33497,-13.14901,-6.22911
-0.22059,1.68169,-0.06103,0.39608,-0.17151,0.35957,1.23383,-1.52766,-1.71537,-0.02311,-0.83415,-1.63753,0.44417,0.52485,0.59948,-0.40973,-16.48633,-16.13176,-5.36468
-0.21499,1.67871,-0.05744,0.39736,-0.18025,0.33851,1.08219,-1.65678,-1.74496,0.07753,-0.55936,-1.65632,0.44085,0.52288,0.61308,-0.39544,-14.70350,-11.18776,-4.29178
-0.20930,1.67557,-0.05412,0.39994,-0.18963,0.31843,1.06985,-1.64250,-1.81724,-0.05893,-0.42399,-1.09976,0.43885,0.51636,0.62731,-0.38375,-5.79121,-1.93652,-6.56499
-0.20342,1.67224,-0.05088,0.40439,-0.19972,0.30087,1.18564,-1.50077,-1.88315,0.37699,-0.79124,-1.19332,0.43751,0.50510,0.64184,-0.37617,10.14256,7.54148,-2.22732
-0.19729,1.66850,-0.04772,0.41177,-0.21390,0.28574,1.38729,-1.30554,-1.95196,0.52047,-0.90752,-0.68444,0.43653,0.49009,0.65688,-0.37115,14.18060,12.04773,-1.95744
-0.19125,1.66485,-0.04432,0.41656,-0.22393,0.27728,1.48030,-1.26951,-1.98130,0.65087,-1.00717,-0.90979,0.43348,0.47815,0.67188,-0.36338,13.56836,6.18784,-1.43767
-0.18508,1.66106,-0.04095,0.42172,-0.23373,0.27023,1.36140,-1.42686,-2.03350,0.52382,-0.89995,-0.34627,0.42947,0.47205,0.68643,-0.34862,-6.05614,-5.94977,-4.06315
-0.17905,1.65709,-0.03727,0.42397,-0.24412,0.26901,1.11588,-1.74885,-2.11331,0.17666,-0.87530,-0.01253,0.42345,0.47096,0.70136,-0.32710,-17.78850,-18.11050,-9.03415
-0.17311,1.65266,-0.03341,0.42474,-0.25961,0.27088,0.85089,-2.09933,-2.27982,-0.01028,-1.05979,0.18589,0.41733,0.47058,0.71700,-0.30050,-19.13786,-19.40164,-13.20780
-0.16715,1.64777,-0.02941,0.42516,-0.27868,0.27426,0.69583,-2.35146,-2.49544,-0.14222,-1.64204,0.29928,0.41177,0.46681,0.73344,-0.27311,-12.74101,-16.16318,-16.85781
-0.16119,1.64211,-0.02557,0.42580,-0.30553,0.27450,0.76571,-2.38366,-2.70985,0.03844,-1.67631,0.29374,0.40808,0.45593,0.75043,-0.24992,-0.36765,-5.64197,-16.04910
-0.15508,1.63583,-0.02157,0.42867,-0.33618,0.27740,1.39055,-2.15545,-2.83583,-0.52486,-1.26142,0.20224,0.40327,0.42973,0.77168,-0.23920,36.83836,4.98718,-7.91177
-0.14926,1.63017,-0.01788,0.42623,-0.35080,0.27451,1.81399,-1.95860,-2.78869,-0.10453,-1.43015,-0.69887,0.39725,0.40632,0.78966,-0.23137,46.42798,9.79100,13.41872
-0.14365,1.62447,-0.01432,0.42133,-0.36306,0.27071,2.12341,-1.82126,-2.73456,-0.54413,-0.90824,-0.04235,0.39078,0.38342,0.80653,-0.22312,23.56060,6.56639,6.98640
-0.13862,1.61856,-0.01055,0.40894,-0.37595,0.27099,2.33760,-1.82546,-2.69268,-0.89658,-1.13345,-0.01705,0.38154,0.36182,0.82360,-0.21258,18.81888,-1.88150,6.72082
-0.13408,1.61239,-0.00654,0.39136,-0.38987,0.27441,2.40103,-1.94249,-2.68681,-1.37547,-1.30210,0.23848,0.37046,0.34306,0.84017,-0.19797,5.91190,-7.46495,1.07342
-0.13025,1.60580,-0.00224,0.36718,-0.40726,0.28172,2.35731,-2.15391,-2.74434,-1.82225,-1.47034,0.62676,0.35750,0.32656,0.85652,-0.17867,-4.48971,-12.40800,-6.06687
-0.12683,1.59885,0.00208,0.34224,-0.42611,0.28741,2.20917,-2.35854,-2.87895,-2.06024,-2.04234,-0.09725,0.34501,0.31181,0.87165,-0.15484,-7.31301,-13.88059,-9.86625
-0.12454,1.59098,0.00637,0.30597,-0.45453,0.29175,1.83546,-2.62239,-3.19757,-2.61177,-1.71097,0.49760,0.33372,0.30181,0.88494,-0.12007,-27.42343,-7.53770,-29.55552
-0.12262,1.58261,0.01057,0.27129,-0.48525,0.29389,1.78018,-2.76947,-3.39245,-2.61993,-2.24201,0.15870,0.32091,0.28497,0.89863,-0.09098,-7.16936,-8.12259,-16.78867
-0.12097,1.57381,0.01448,0.24009,-0.51524,0.29112,1.80969,-2.83766,-3.53470,-2.90811,-2.42818,-0.38399,0.30825,0.26544,0.91131,-0.06351,1.43217,-6.67304,-13.08032
-0.12062,1.56364,0.01773,0.19630,-0.55892,0.27904,1.97457,-2.89513,-3.64860,-2.57615,-2.97665,-1.30494,0.29413,0.24126,0.92405,-0.03753,11.46910,-6.45430,-4.01783
-0.12026,1.55302,0.02013,0.16106,-0.60099,0.25679,2.06907,-2.87623,-3.82589,-2.44586,-3.26967,-2.23397,0.28257,0.21653,0.93444,-0.00926,10.61339,-1.63268,-9.12643
-0.12003,1.54199,0.02186,0.13184,-0.64024,0.22978,2.17123,-2.82674,-4.01479,-2.50429,-3.19789,-2.32022,0.27209,0.19001,0.94311,0.02003,9.36666,4.42383,-14.84433
-0.12090,1.52943,0.02183,0.09228,-0.69305,0.18238,2.45207,-2.73858,-4.16213,-2.55557,-3.15307,-3.38936,0.26190,0.15683,0.95112,0.04682,19.03049,1.83948,-6.04503
-0.12221,1.51647,0.02050,0.05327,-0.74266,0.12420,2.83182,-2.63029,-4.19508,-2.53770,-2.85708,-3.76019,0.25161,0.11980,0.95789,0.06920,23.17023,0.46406,1.29992
-0.12347,1.50395,0.01894,0.02331,-0.77577,0.07473,3.23530,-2.59475,-4.09499,-2.69206,-2.31015,-4.42338,0.23857,0.08068,0.96385,0.08704,29.34813,-6.23927,8.85043
-0.12553,1.49114,0.01571,-0.01196,-0.80489,0.01172,3.79210,-2.65843,-3.73572,-2.50886,-1.50284,-4.21672,0.22068,0.03621,0.97009,0.09440,32.02383,-15.32237,24.08867
-0.12778,1.47851,0.01171,-0.04248,-0.82565,-0.04982,4.32010,-2.87654,-3.27222,-1.86222,-1.41318,-4.64267,0.19642,-0.00981,0.97578,0.09584,28.03216,-33.99471,33.64598
-0.12989,1.46594,0.00673,-0.06478,-0.84191,-0.11309,4.71947,-3.07152,-2.87387,-1.40527,-1.11576,-4.66164,0.17152,-0.05516,0.97891,0.09626,18.72692,-28.83202,27.57974
-0.13206,1.45316,0.00078,-0.08348,-0.85726,-0.17747,5.07899,-3.34987,-2.48217,-1.31160,-1.11856,-4.54259,0.14244,-0.10182,0.98005,0.09402,16.25515,-30.49429,23.60952
-0.13582,1.43901,-0.01001,-0.12702,-0.89322,-0.31462,5.60550,-4.14752,-1.78340,-2.00865,-1.12856,-5.38869,0.09700,-0.15359,0.98016,0.07925,10.22343,-36.63493,15.60248
-0.14119,1.41353,-0.02332,-0.15355,-0.90204,-0.38046,5.67960,-4.52118,-1.65136,-2.24768,-0.55256,-5.85090,0.02985,-0.23852,0.96727,0.08130,2.35669,-35.72238,1.73553
-0.14531,1.40085,-0.03357,-0.18142,-0.90368,-0.45021,5.64594,-4.83361,-1.58398,-2.40085,0.18099,-6.11853,-0.01102,-0.27840,0.95701,0.08063,-2.93134,-27.84497,-5.79487
-0.15079,1.38880,-0.04689,-0.22318,-0.89642,-0.54980,5.49167,-5.29275,-1.51746,-2.88751,0.78383,-6.59421,-0.05904,-0.31337,0.94453,0.07858,-11.29362,-25.02724,-10.05847
-0.15670,1.37755,-0.06171,-0.26305,-0.87819,-0.65198,5.35694,-5.79290,-1.50670,-2.74947,1.99381,-8.04270,-0.11149,-0.34748,0.92790,0.07635,-10.64494,-31.16759,-16.73839
-0.16249,1.36765,-0.07812,-0.29277,-0.84524,-0.75514,5.25927,-6.17576,-1.53538,-2.10381,3.69706,-9.37196,-0.16307,-0.38052,0.90722,0.07454,-7.88581,-28.37355,-18.51873
-0.16845,1.36226,-0.10127,-0.31915,-0.75390,-0.93576,5.06049,-6.80296,-1.50065,-0.92024,6.54095,-10.59777,-0.22389,-0.40846,0.88232,0.06740,-9.86148,-29.48193,-15.27610
-0.17315,1.35770,-0.12340,-0.32259,-0.66779,-1.06652,4.92726,-7.31941,-1.50065,0.30384,8.20395,-11.14440,-0.28404,-0.43549,0.85212,0.05976,-12.33536,-37.07531,-18.91937
-0.17656,1.35771,-0.14908,-0.30669,-0.53493,-1.21996,4.70231,-7.73268,-1.60681,2.36770,10.60031,-11.12931,-0.34437,-0.45630,0.81869,0.05421,-11.18583,-31.43004,-24.71523
-0.17759,1.36339,-0.17717,-0.25965,-0.34539,-1.37996,4.35025,-7.75740,-1.88774,4.33242,13.84316,-9.57212,-0.39617,-0.46916,0.78721,0.05685,-7.19555,5.59042,-25.68314
-0.17617,1.37279,-0.20491,-0.18542,-0.13749,-1.50348,3.86809,-7.72814,-2.25430,6.95239,16.33615,-8.39060,-0.44767,-0.47341,0.75606,0.06202,-15.58123,13.28746,-34.28996
-0.17263,1.38325,-0.23161,-0.09845,0.03800,-1.58533,3.96229,-7.74312,-1.97616,9.79168,19.03687,-7.19227,-0.48972,-0.49444,0.71620,0.05255,-8.73515,9.47752,-21.03385
-0.16081,1.40805,-0.25968,0.08858,0.38177,-1.66916,3.59793,-7.76138,-1.83326,10.71569,19.27005,-2.08856,-0.53252,-0.50103,0.68097,0.04094,-20.00861,2.31797,-3.12326
-0.14912,1.43165,-0.28312,0.24070,0.64773,-1.67037,3.06409,-7.96543,-1.84986,10.57505,19.75242,2.28326,-0.58065,-0.49814,0.64341,0.02689,-28.27423,-1.07143,-17.64922
-0.13689,1.45653,-0.30305,0.36778,0.87492,-1.62200,2.27858,-8.41036,-2.07919,9.69756,19.39412,6.21506,-0.63697,-0.48024,0.60296,0.00833,-38.61946,-19.15967,-43.03020
-0.12175,1.48920,-0.31668,0.51087,1.16835,-1.49261,0.84501,-8.93101,-2.87656,8.64306,19.08066,10.30908,-0.70361,-0.42886,0.56648,-0.01079,-45.79206,-18.71232,-94.36333
-0.10709,1.52419,-0.32616,0.62021,1.44038,-1.32777,-0.54825,-8.96794,-3.68635,7.91423,20.69023,13.45439,-0.75917,-0.36693,0.53694,-0.02673,-43.15639,3.66106,-104.46480
-0.09146,1.56481,-0.33110,0.72154,1.73946,-1.13114,-2.00612,-8.54961,-4.57746,7.09046,23.53743,14.81174,-0.80345,-0.29040,0.51825,-0.03933,-36.91702,36.83801,-113.66950
-0.07593,1.60947,-0.33441,0.80013,2.03279,-0.95395,-3.22048,-8.26624,-5.70012,5.58519,25.89952,14.37230,-0.84536,-0.20045,0.49291,-0.04717,-25.00054,30.87233,-121.67030
-0.05777,1.66873,-0.33146,0.90036,2.47529,-0.72183,-5.12848,-7.92272,-8.02937,7.57195,31.70424,14.55286,-0.88169,-0.05095,0.46682,-0.04596,-11.65339,-4.51941,-180.09520
-0.03754,1.73036,-0.33059,1.01121,2.86472,-0.56675,-6.36546,-7.51711,-10.10190,12.11921,34.10957,12.25389,-0.89684,0.09906,0.42959,-0.03630,-0.34801,-22.85603,-207.08620
-0.00500,1.81075,-0.32690,1.27732,3.44192,-0.40229,-7.08377,-6.33932,-12.69040,24.43192,38.70894,11.33464,-0.87726,0.26660,0.39917,0.00160,49.85584,-36.58938,-183.77570
0.04705,1.90335,-0.32299,1.78509,4.09749,-0.26353,-6.37998,-3.82491,-15.07968,42.26765,41.05846,9.08605,-0.81513,0.41127,0.40073,0.07641,140.67860,-26.78088,-152.78250
0.11931,1.99675,-0.31975,2.49494,4.63817,-0.16105,-4.12846,-1.93176,-16.92282,60.04387,33.98854,8.05665,-0.73633,0.51844,0.39395,0.18394,183.09250,-111.42140,-119.54130
0.21930,2.08761,-0.31313,3.46871,5.02539,-0.02838,-1.06075,-1.01786,-18.48534,80.26883,20.29294,12.07727,-0.63913,0.59629,0.36813,0.31690,139.13270,-192.98740,-91.76012
0.35111,2.16627,-0.29925,4.70977,5.14585,0.18501,1.56149,-1.27717,-20.42784,98.38912,-4.26633,17.17295,-0.51232,0.66451,0.30135,0.45293,48.81395,-207.28230,-119.14780
0.51279,2.21478,-0.27450,6.13606,4.79321,0.51605,2.22907,-2.16091,-22.51353,105.42370,-46.76060,27.78055,-0.36361,0.73329,0.18784,0.54295,-47.34618,-84.36957,-180.25330
0.69406,2.21549,-0.23354,7.55611,3.80676,1.01966,2.73337,-2.18309,-23.64547,94.42103,-95.06590,44.02303,-0.20289,0.77140,0.09323,0.59589,8.64269,-3.73478,-90.78490
0.87555,2.16042,-0.17374,8.67404,2.19604,1.69700,4.76892,-2.84473,-24.17725,62.30039,-138.86050,57.10558,-0.02829,0.74792,0.01350,0.66305,-23.34843,-99.38474,-76.81829
1.03644,2.04337,-0.09648,9.25675,0.00504,2.48969,7.28657,-3.21405,-24.19127,21.90705,-175.97040,50.58046,0.15486,0.68587,-0.03788,0.71005,-101.40480,-194.05300,-50.16774
1.15370,1.86492,-0.01824,9.07469,-2.63934,3.13049,9.64461,0.90961,-25.02468,-42.24174,-203.77700,31.00557,0.39512,0.66759,-0.04146,0.62967,176.23480,-137.63230,-62.49382
1.22893,1.68695,0.04277,8.33127,-4.66301,3.37646,13.73581,5.59546,-24.37822,-100.41970,-203.49040,11.42072,0.63362,0.60768,0.02292,0.47826,334.37280,-341.90370,-162.81260
1.18571,1.41326,0.08337,6.06052,-7.60071,3.27412,26.42410,10.98317,-18.99382,-174.37850,-162.60130,-28.70117,0.85618,0.37184,0.31830,0.16546,342.24550,-372.44120,-699.37710
1.05856,1.15732,0.06988,2.98118,-9.76870,2.39816,41.68262,5.91290,-12.42670,-207.63950,-103.90210,-81.38573,0.80640,-0.15982,0.55155,-0.14130,557.89100,397.34900,-934.18090
0.95486,0.97450,0.02289,0.90286,-10.42430,1.24196,43.65430,-2.21129,-12.58761,-208.60490,-31.07563,-119.04150,0.64334,-0.51994,0.51552,-0.22362,623.13650,702.68460,-390.64200
0.79426,0.95493,-0.06517,-1.52565,-9.73379,-0.60403,34.87257,-8.13458,-16.34057,-134.92220,104.89130,-110.43660,0.55930,-0.68691,0.45715,-0.07969,137.91630,768.02930,344.03560
0.69380,1.02111,-0.12164,-2.74347,-7.73892,-1.64614,24.08292,-5.28034,-16.90800,-25.05589,129.58220,-21.99534,0.61319,-0.67970,0.39645,0.06951,-174.18660,473.12740,569.78830
0.65873,1.07226,-0.12817,-2.79350,-6.25198,-1.58600,18.39863,-4.61551,-13.57598,20.37931,93.81065,26.41043,0.61105,-0.66935,0.41184,0.09476,-365.36220,200.45670,340.80660
0.63769,1.02372,-0.12933,-2.48882,-5.27998,-1.09424,14.08678,-6.73954,-9.12618,26.19776,52.42085,43.32360,0.55985,-0.64911,0.51040,0.06864,-440.82350,-1.84805,-7.43329
0.60655,0.88619,-0.12210,-2.20091,-4.74777,-0.36291,8.10156,-8.31280,-4.67248,6.53908,17.88408,44.03454,0.51198,-0.55971,0.64750,0.07303,-484.13410,-86.58746,-33.36661
0.56779,0.79508,-0.10368,-2.19016,-4.62254,0.08378,3.56708,-6.98031,-3.75873,-7.50247,6.66685,38.91090,0.49122,-0.50513,0.69534,0.14157,-447.29350,119.62640,-31.82817
0.51481,0.71509,-0.06846,-2.36038,-4.43136,0.64955,-2.36570,-3.13531,-2.17048,-17.35038,20.90982,29.96758,0.52857,-0.35509,0.71902,0.27846,-340.15970,307.01020,-62.21324
0.45320,0.67186,-0.03633,-2.70260,-3.98824,1.01673,-4.50014,2.22710,-3.50943,-20.81324,34.38138,18.15962,0.58513,-0.29109,0.62437,0.42784,-76.01552,303.16220,-207.06080
0.39578,0.64391,-0.01088,-2.95452,-3.51975,1.19206,-5.00317,5.91410,-4.27531,-12.54756,35.73718,10.59976,0.62855,-0.24053,0.51906,0.52692,-17.00214,306.31080,-111.98500
0.34187,0.62498,0.01065,-3.11223,-3.04458,1.27148,-4.57722,6.65424,-5.44201,-3.93306,34.13933,6.04121,0.62600,-0.24143,0.44476,0.59331,11.01804,71.10911,-132.43520
0.30156,0.61175,0.02775,-3.15326,-2.71077,1.29894,-4.44467,5.58308,-5.92824,0.90116,33.95285,2.52576,0.59488,-0.25206,0.41836,0.63840,-25.35321,-66.55013,-55.50468
0.26045,0.61017,0.04498,-3.11099,-2.20539,1.28523,-4.45726,3.43530,-5.64813,4.82825,30.11264,-3.34913,0.54750,-0.26873,0.43540,0.66216,-46.29874,-120.22060,63.91061
0.23236,0.60730,0.06019,-2.99895,-1.81021,1.23244,-4.35408,2.45645,-5.12645,7.42345,27.59169,-6.18783,0.51836,-0.26966,0.43704,0.68380,-21.43282,-71.58072,66.50166
0.20854,0.60673,0.07235,-2.84583,-1.44698,1.15606,-4.04344,2.33977,-4.58669,11.08256,25.21935,-6.72467,0.50673,-0.26076,0.42331,0.70429,22.34460,-13.44816,38.49976
0.18508,0.60879,0.08216,-2.66605,-1.11975,1.06505,-3.72566,2.55400,-4.00006,12.99413,21.82324,-7.67414,0.50301,-0.24375,0.40537,0.72336,31.84956,11.63991,32.33492
0.16325,0.61467,0.08932,-2.45093,-0.81289,0.94725,-3.29133,3.15029,-3.37778,13.32827,17.58271,-8.71085,0.51071,-0.21756,0.38049,0.73964,41.76089,33.16284,24.24578
0.14210,0.61806,0.09406,-2.26786,-0.60025,0.81843,-2.40265,4.07045,-3.08292,11.46269,13.81410,-10.60894,0.53329,-0.19307,0.33779,0.75115,71.18413,48.19722,4.57342
0.12118,0.62082,0.09525,-2.11432,-0.43969,0.66681,-1.19471,4.77291,-3.19524,10.73912,9.52586,-11.13626,0.56196,-0.18146,0.28231,0.75602,90.20777,43.27692,-41.69867
0.10062,0.62379,0.09269,-1.98462,-0.30721,0.49004,-0.25029,4.10704,-3.12724,8.73045,7.54392,-10.68948,0.57675,-0.19407,0.25520,0.75138,59.32004,-34.97486,-18.60925
0.07880,0.62677,0.09080,-1.90038,-0.20109,0.36058,-0.02420,2.65012,-2.85142,8.21651,9.20803,-10.31492,0.57090,-0.21808,0.25720,0.74858,13.58631,-106.62500,12.51125
0.06011,0.63363,0.08665,-1.78530,-0.06205,0.22741,-0.01032,0.88898,-2.49295,8.74566,9.90966,-8.45720,0.55525,-0.25285,0.27642,0.74253,-19.20056,-131.15510,28.47768
0.04479,0.64197,0.08300,-1.64377,0.06869,0.12881,-0.06497,-0.41417,-2.25488,10.81130,8.77414,-5.69465,0.53813,-0.28520,0.29237,0.73729,-20.80046,-102.69160,18.91155
0.03223,0.64967,0.08109,-1.49463,0.16278,0.07586,-0.10183,-1.01230,-2.11963,13.00500,6.80886,-2.85534,0.52545,-0.30779,0.29802,0.73509,-15.91973,-68.41450,10.52825
0.02730,0.65782,0.08055,-1.26433,0.24341,0.05417,-0.20192,-1.08754,-1.88947,14.41454,3.40697,0.37544,0.51703,-0.31703,0.29957,0.73650,-8.77078,-6.71295,15.83779
0.02212,0.66315,0.08221,-1.08266,0.26738,0.06798,-0.18405,-0.71978,-1.79412,15.04102,0.47861,2.09486,0.51499,-0.31839,0.28963,0.74130,-6.46832,12.47548,-0.09091
0.02139,0.66567,0.08605,-0.87726,0.24641,0.10959,0.05045,0.09307,-1.35132,14.13672,-2.79470,3.54019,0.52884,-0.30135,0.27732,0.74338,22.77994,56.93140,35.49643
0.02408,0.66535,0.09168,-0.66114,0.18999,0.16994,0.32445,1.02855,-0.98140,12.91991,-4.10566,4.17196,0.54717,-0.27775,0.25892,0.74593,24.01959,55.35848,23.14962
0.02657,0.66437,0.09752,-0.48755,0.13463,0.22250,0.47867,1.78665,-0.72697,12.24194,-4.22381,3.61541,0.56246,-0.25382,0.23967,0.74951,18.41541,55.96273,18.30924
0.03069,0.66269,0.10390,-0.32608,0.08042,0.27212,0.44900,2.34522,-0.40272,11.69835,-3.88306,3.56661,0.57390,-0.22703,0.22566,0.75377,7.86103,42.33074,22.52752
0.03616,0.66109,0.11007,-0.17687,0.03855,0.30861,0.34300,2.77287,-0.16357,10.20887,-2.46955,1.83765,0.58217,-0.19992,0.21207,0.75904,-2.38520,33.80217,22.19416
0.04310,0.65979,0.11535,-0.03156,0.00721,0.32635,0.13418,3.04873,0.01421,8.82309,-1.79622,0.57160,0.58593,-0.17375,0.20025,0.76576,-9.50135,19.47021,13.68481
0.04996,0.65866,0.11980,0.08109,-0.01378,0.32641,-0.07835,3.16549,0.14089,7.84985,-1.35110,-0.50697,0.58712,-0.15027,0.19028,0.77233,-12.63581,9.28187,13.14887
0.05678,0.65740,0.12334,0.16950,-0.02880,0.31439,-0.21319,3.25911,0.21732,7.29603,-1.08056,-1.45708,0.58848,-0.12744,0.17930,0.77801,-11.24994,7.42418,10.45813
0.06540,0.65592,0.12565,0.26518,-0.04366,0.28674,-0.30891,3.35434,0.25548,6.81441,-0.88324,-2.54697,0.58964,-0.10439,0.16698,0.78329,-7.14647,7.56783,5.28054
0.07526,0.65449,0.12660,0.35755,-0.05495,0.24416,-0.35475,3.40397,0.27665,6.85076,-0.67290,-3.58538,0.59100,-0.08251,0.15459,0.78741,-3.46206,4.07433,1.83735
0.08681,0.65311,0.12516,0.46280,-0.06263,0.17665,-0.35891,3.42469,0.39577,6.91280,-0.28819,-4.95706,0.59327,-0.05933,0.14504,0.78960,0.40790,1.95088,6.36235
0.09890,0.65207,0.12223,0.55446,-0.06355,0.09918,-0.28983,3.44803,0.54104,6.64722,0.11963,-6.10047,0.59727,-0.03525,0.13618,0.78961,5.64034,1.04027,8.84479
0.11239,0.65165,0.11726,0.64494,-0.05525,0.00677,-0.10197,3.60613,0.56077,5.90860,1.33829,-6.89377,0.60451,-0.01028,0.12159,0.78719,11.99980,6.36136,3.75573
0.12573,0.65164,0.11127,0.71581,-0.04137,-0.07974,0.18425,3.95292,0.29537,5.55439,1.70979,-7.30874,0.61480,0.01415,0.09429,0.78290,15.76018,24.07230,-18.77272
0.14096,0.65265,0.10215,0.79988,-0.01421,-0.19411,0.49980,4.54120,-0.20438,5.01366,1.86412,-6.87510,0.62667,0.04096,0.05221,0.77645,11.01591,37.10153,-33.77817
0.15613,0.65405,0.09305,0.86384,0.01211,-0.28710,0.67371,5.07166,-0.65066,4.47045,1.78817,-6.33120,0.63502,0.06865,0.00799,0.76940,4.33948,39.99688,-34.44465
0.17126,0.65570,0.08337,0.91689,0.03987,-0.36912,0.72442,5.44558,-0.93515,4.04342,1.95276,-5.50245,0.63969,0.09664,-0.03324,0.76181,-1.33756,32.96939,-25.28026
0.18602,0.65780,0.07480,0.94987,0.06574,-0.41727,0.61593,5.51612,-0.94328,3.86804,2.44232,-4.50214,0.63945,0.12357,-0.06381,0.75615,-4.87925,18.80643,-9.39905
0.20243,0.66213,0.06481,0.99955,0.11822,-0.47534,0.22427,5.28717,-0.56393,3.38894,3.28116,-3.35773,0.63044,0.15162,-0.07772,0.75731,-14.46737,-10.18808,27.60941
0.21866,0.66678,0.05529,1.03825,0.16666,-0.51624,-0.13809,4.91001,-0.04758,2.80433,3.37100,-2.86137,0.61947,0.17870,-0.08186,0.76001,-12.50568,-24.58722,42.29168
0.23537,0.67234,0.04522,1.07616,0.21963,-0.55782,-0.43636,4.43765,0.56367,2.18349,3.63020,-2.62880,0.60741,0.20529,-0.07755,0.76347,-5.53466,-29.88374,44.47652
0.25203,0.67862,0.03478,1.10335,0.26991,-0.59726,-0.61351,4.18980,0.89231,1.46390,4.04538,-2.71188,0.59640,0.23138,-0.08034,0.76440,-2.67736,-21.51989,32.86399
0.26849,0.68551,0.02375,1.12311,0.32163,-0.63669,-0.76275,4.12774,1.00292,1.15627,3.98003,-2.63808,0.58475,0.25756,-0.09024,0.76393,-6.29051,-6.99063,14.04212
0.28477,0.69291,0.01256,1.13502,0.36860,-0.67058,-0.90467,4.14034,1.03205,0.82570,4.23794,-2.94737,0.57191,0.28375,-0.10322,0.76273,-9.78996,-1.19862,6.91875
