posX, posY, posZ, velX, velY, velZ, angVelX, angVelY, angVelZ, accX, accY, accZ, rotX, rotY, rotZ, rotW, angAccX, angAccY, angAccZ
0.34154,0.96806,-0.25696,-0.04057,-0.03689,-0.24933,0.40748,0.75001,-0.32199,-0.70062,1.47527,-1.35671,0.20018,0.74935,-0.22198,0.59087,4.57837,6.76582,2.55125
0.34069,0.96899,-0.26170,-0.04424,-0.01952,-0.26657,0.29887,0.78864,-0.29247,-0.15873,1.64793,-1.17310,0.19903,0.75279,-0.22461,0.58586,-6.74718,3.99263,3.30460
0.33964,0.97083,-0.26670,-0.05060,0.00840,-0.28422,0.08223,0.77100,-0.22790,-0.46676,1.49268,-0.87539,0.19454,0.75456,-0.22940,0.58325,-13.11530,-0.58598,4.55246
0.33867,0.97242,-0.27132,-0.05467,0.02840,-0.29343,-0.01324,0.73869,-0.17884,-0.34218,1.69905,-0.75547,0.19190,0.75646,-0.23215,0.58056,-9.02506,-2.11404,3.61334
0.33763,0.97486,-0.27603,-0.05892,0.05633,-0.30207,-0.03666,0.67915,-0.12045,-0.33636,2.12513,-0.61657,0.19006,0.75818,-0.23300,0.57857,-3.88123,-3.86319,4.10860
0.33660,0.97853,-0.28074,-0.06210,0.09792,-0.30886,0.06920,0.57022,-0.02978,-0.13835,2.92746,-0.47248,0.19009,0.75997,-0.22944,0.57764,5.67753,-6.64968,4.91663
0.33549,0.98293,-0.28565,-0.06574,0.14248,-0.31774,0.19567,0.48366,0.07324,-0.34116,3.43373,-0.88997,0.19019,0.76225,-0.22419,0.57666,9.43856,-7.23198,6.64616
0.33427,0.98744,-0.29079,-0.07025,0.17864,-0.32807,0.32752,0.43890,0.15713,-0.48427,3.68194,-1.36471,0.19066,0.76523,-0.21808,0.57490,9.92281,-5.23876,7.44136
0.33258,0.99438,-0.29716,-0.08114,0.24192,-0.35336,0.69519,0.41494,0.30490,-0.85971,3.96924,-2.00504,0.19416,0.77084,-0.20337,0.57161,21.26915,-2.40968,8.93216
0.33068,1.00172,-0.30404,-0.09412,0.29954,-0.38121,1.00636,0.40146,0.39223,-1.13645,4.44646,-1.81606,0.19875,0.77631,-0.18885,0.56760,25.93269,0.28837,5.80519
0.32868,1.00909,-0.31075,-0.10486,0.34439,-0.40018,1.13828,0.34985,0.46795,-1.18065,4.90285,-1.74348,0.20112,0.78007,-0.17685,0.56547,17.47278,-2.61405,5.71019
0.32593,1.02062,-0.31862,-0.12417,0.43938,-0.43167,1.44175,0.22556,0.64639,-1.20682,5.83869,-1.94848,0.20472,0.78393,-0.15649,0.56485,15.82231,-7.52275,9.16164
0.32260,1.03291,-0.32685,-0.14898,0.52930,-0.46339,1.70007,0.15782,0.78519,-2.53162,7.20479,-2.51847,0.20843,0.78815,-0.13611,0.56290,22.37592,-5.65878,9.59981
0.31777,1.04811,-0.33652,-0.19005,0.64291,-0.50923,1.74536,0.21844,1.00266,-2.62338,9.86123,-3.80692,0.20555,0.79404,-0.11881,0.55959,6.17442,-3.07480,5.35599
0.31163,1.06676,-0.34757,-0.24248,0.78452,-0.56595,1.70516,0.36482,1.42388,-4.43064,10.34561,-4.35842,0.19338,0.80281,-0.09924,0.55521,-3.98111,6.45012,34.39510
0.30382,1.08868,-0.36011,-0.30978,0.94765,-0.63345,1.80935,0.57704,1.76930,-4.13871,9.78461,-4.30959,0.18305,0.81345,-0.07663,0.54674,3.13965,11.23329,23.77023
0.29636,1.10957,-0.37216,-0.35661,1.06023,-0.67972,2.10427,0.73000,1.96467,-3.98870,8.66884,-3.89124,0.17894,0.82343,-0.04952,0.53618,16.91274,12.12418,19.40457
0.28732,1.13301,-0.38546,-0.41795,1.18774,-0.73461,2.66038,0.92496,2.14195,-3.95712,7.17883,-3.27611,0.17974,0.83460,-0.01356,0.52052,32.77493,14.81916,12.47912
0.27800,1.15548,-0.39859,-0.47174,1.27682,-0.77704,3.11086,1.07838,2.22102,-4.01063,5.59333,-2.79542,0.18216,0.84396,0.02135,0.50408,32.13238,14.57115,7.98075
0.26797,1.17786,-0.41193,-0.52341,1.34465,-0.81318,3.56422,1.24071,2.19422,-3.66244,4.20725,-2.29005,0.18834,0.85216,0.05716,0.48486,30.27739,16.16855,1.01691
0.25810,1.19944,-0.42492,-0.56337,1.38920,-0.83684,3.86572,1.36398,2.08728,-3.40671,3.47327,-1.43029,0.19585,0.85844,0.08983,0.46545,25.93185,18.28471,-5.75071
0.24740,1.22146,-0.43780,-0.60739,1.43114,-0.85365,4.12298,1.44838,1.95232,-3.23524,2.64027,-0.78418,0.20495,0.86278,0.12215,0.44573,17.39174,11.69703,-8.54981
0.23573,1.24367,-0.45037,-0.65650,1.46748,-0.86245,4.35914,1.53424,1.77028,-3.15431,2.15283,-0.32002,0.21631,0.86548,0.15391,0.42481,12.04677,9.66445,-10.58138
0.22419,1.26529,-0.46239,-0.69530,1.49130,-0.86217,4.60767,1.65893,1.66041,-3.44235,1.80712,0.18049,0.22732,0.86737,0.18737,0.40110,15.46956,14.01180,-8.52666
0.21151,1.28680,-0.47392,-0.74330,1.50987,-0.85431,4.89737,1.85821,1.54265,-3.49048,1.00488,0.85646,0.24053,0.86822,0.22205,0.37286,19.59178,18.41009,-5.18989
0.19781,1.30784,-0.48474,-0.79560,1.51687,-0.83741,5.01076,2.05858,1.37935,-3.33255,0.02190,1.63436,0.25381,0.86823,0.25177,0.34404,8.14564,18.22753,-5.89069
0.18431,1.32759,-0.49516,-0.83688,1.50823,-0.81811,4.82233,2.08822,1.23218,-2.76108,-0.92044,1.59329,0.26287,0.86739,0.27391,0.32171,-12.25505,5.86791,-5.29523
0.17123,1.34689,-0.50542,-0.86287,1.49362,-0.79985,4.63450,2.15198,1.04317,-2.01047,-1.47784,1.71383,0.27362,0.86595,0.29320,0.29882,-16.31842,6.28188,-10.00047
0.15793,1.36494,-0.51493,-0.88619,1.46528,-0.77413,4.26296,2.17027,0.72750,-1.32859,-1.86112,1.63445,0.28631,0.86437,0.30413,0.28000,-25.40531,4.54790,-13.63704
0.14495,1.38264,-0.52428,-0.90255,1.44237,-0.74951,4.06911,2.30033,0.43997,-1.38389,-1.04710,1.63222,0.30186,0.86182,0.31632,0.25707,-23.72022,10.60549,-16.15544
0.13121,1.40071,-0.53268,-0.92662,1.42846,-0.71460,4.15491,2.56115,0.25859,-2.16946,-0.48620,2.82595,0.31957,0.85731,0.33414,0.22638,-0.18627,21.57632,-10.05733
0.11642,1.41961,-0.54005,-0.95690,1.42233,-0.67507,4.21552,2.73172,0.20318,-2.64828,-0.28163,4.05801,0.33403,0.85187,0.35283,0.19558,6.84570,19.59501,-3.01699
0.10067,1.43786,-0.54506,-0.99859,1.41687,-0.60627,4.15020,2.74818,0.19451,-2.51053,-0.25052,5.17464,0.34498,0.84612,0.36942,0.16914,-2.34849,3.95836,0.97792
0.08484,1.45650,-0.54905,-1.03087,1.41214,-0.53575,3.96904,2.64082,0.20539,-2.10077,-0.38780,5.28790,0.35291,0.84059,0.38353,0.14757,-10.27583,-7.59759,0.26056
0.06902,1.47503,-0.55186,-1.05494,1.40276,-0.46643,3.71000,2.58353,0.20420,-1.50178,-0.88322,4.89615,0.36026,0.83618,0.39370,0.12657,-17.38484,-6.69141,2.52569
0.05351,1.49307,-0.55372,-1.06917,1.38889,-0.39503,3.47911,2.60525,0.15826,-0.92956,-0.89189,5.52722,0.36939,0.83145,0.40174,0.10415,-18.51822,1.39629,0.60889
0.03776,1.51092,-0.55386,-1.08398,1.37376,-0.31342,3.33259,2.56554,0.14788,-1.22794,-1.04665,6.14883,0.37721,0.82559,0.41141,0.08273,-11.84680,-2.06089,-0.16492
0.02147,1.52859,-0.55219,-1.10211,1.35628,-0.22559,3.22131,2.52336,0.19034,-1.24381,-1.27958,6.42475,0.38322,0.81967,0.42141,0.06091,-7.68124,-3.69484,3.28955
0.00508,1.54586,-0.54923,-1.11699,1.33506,-0.13661,3.09288,2.45395,0.25523,-0.79618,-1.71285,6.45104,0.38757,0.81404,0.43074,0.04002,-6.52177,-4.60509,4.99556
-0.01098,1.56253,-0.54525,-1.12430,1.30862,-0.05100,2.86760,2.32958,0.30989,-0.18119,-2.22873,6.01105,0.39037,0.80983,0.43734,0.02270,-12.95540,-9.88525,5.01440
-0.02639,1.57790,-0.54072,-1.12188,1.27283,0.02654,2.61389,2.21622,0.32915,0.43289,-2.87851,5.23335,0.39335,0.80628,0.44175,0.00715,-17.72382,-9.66279,3.48420
-0.04126,1.59236,-0.53583,-1.11090,1.22950,0.09384,2.39941,2.14839,0.30462,0.95976,-3.10129,4.38888,0.39776,0.80217,0.44524,-0.00840,-16.66989,-5.82246,-0.21779
-0.05556,1.60561,-0.53056,-1.09376,1.17654,0.15374,2.13795,2.16234,0.30568,1.16053,-3.48058,3.26362,0.40230,0.79947,0.44540,-0.02499,-15.33056,0.32009,2.39982
-0.06964,1.61819,-0.52611,-1.07678,1.12621,0.19114,1.81232,2.14612,0.29494,1.32533,-3.70744,2.41641,0.40667,0.79821,0.44266,-0.03916,-21.20595,-0.69996,3.00083
-0.08381,1.63110,-0.52218,-1.06416,1.08927,0.21172,1.58441,2.14222,0.28025,1.19053,-3.57806,1.85464,0.41136,0.79627,0.44029,-0.05375,-24.84555,-2.97396,2.41645
-0.09704,1.64125,-0.51727,-1.04054,1.02038,0.24195,1.33179,2.24014,0.20934,1.22597,-3.65661,1.42695,0.41898,0.79439,0.43430,-0.06914,-16.24596,3.79609,-0.25194
-0.11038,1.65170,-0.51253,-1.02332,0.96729,0.26329,1.32747,2.40813,0.15118,1.12776,-3.59283,1.48407,0.42770,0.78874,0.43235,-0.08960,-4.12429,12.56532,-3.08211
-0.12391,1.66157,-0.50741,-1.01157,0.91544,0.28545,1.36981,2.59860,0.13687,0.67440,-3.65742,1.69519,0.43611,0.78212,0.43057,-0.11275,2.58246,13.82187,-1.08858
-0.13744,1.67046,-0.50144,-1.00339,0.85859,0.31434,1.33912,2.69207,0.20615,0.56539,-3.54186,1.95164,0.44149,0.77723,0.42766,-0.13456,-0.31132,6.78025,3.88842
-0.15126,1.67934,-0.49570,-1.00190,0.81383,0.33356,1.12034,2.58613,0.34408,0.63315,-3.94002,1.71060,0.44258,0.77684,0.42205,-0.15006,-7.60292,-3.44491,11.09986
-0.16455,1.68763,-0.48969,-0.99194,0.77005,0.35189,0.82591,2.43159,0.46403,1.15186,-3.72353,1.54346,0.44264,0.77879,0.41392,-0.16193,-21.82729,-13.58298,14.65550
-0.17711,1.69365,-0.48282,-0.97369,0.70054,0.38101,0.37477,2.12627,0.65331,0.96053,-4.08158,1.74361,0.43860,0.78595,0.40246,-0.16713,-22.99925,-18.26112,13.02766
-0.18851,1.69712,-0.47467,-0.93746,0.59681,0.42922,0.10980,1.95364,0.83703,1.43762,-3.63350,1.85889,0.43462,0.79141,0.39235,-0.17562,-6.98064,-5.77163,7.17676
-0.21279,1.71003,-0.46050,-0.90994,0.54160,0.46226,0.28636,2.13505,0.85621,2.05893,-3.90789,2.69639,0.43656,0.78741,0.38124,-0.20991,8.76624,12.18070,1.15087
-0.22356,1.71412,-0.45154,-0.88224,0.49123,0.49938,0.51017,2.25790,0.85376,2.74287,-4.43809,3.45548,0.43751,0.78189,0.37910,-0.23134,17.64302,14.70315,-2.31703
-0.23308,1.71651,-0.44117,-0.84247,0.42734,0.54860,0.63137,2.20321,0.86627,3.60600,-5.01375,3.70900,0.43618,0.77817,0.37769,-0.24807,12.39443,1.86372,-1.35579
-0.24176,1.71833,-0.43061,-0.79954,0.36903,0.59082,0.59710,1.98429,0.87554,4.07663,-5.19640,3.57244,0.43330,0.77769,0.37548,-0.25781,2.17598,-13.29473,0.03149
-0.24848,1.71780,-0.41882,-0.73640,0.28843,0.64211,0.42901,1.56996,0.91269,4.10571,-5.20169,2.99030,0.42741,0.78166,0.37295,-0.25929,-7.82268,-26.76007,3.18071
-0.25633,1.71885,-0.40833,-0.70324,0.24761,0.66392,0.35253,1.37942,0.90185,4.05049,-5.05131,2.53035,0.42406,0.78306,0.37000,-0.26473,-9.41965,-27.36066,2.44517
-0.26185,1.71548,-0.39711,-0.62934,0.15513,0.70361,0.43444,1.32816,0.71651,3.08361,-3.82315,1.57095,0.42583,0.77920,0.37082,-0.27206,1.24503,-4.97592,-9.50169
-0.26928,1.71386,-0.38731,-0.58721,0.10235,0.72029,0.77383,1.70164,0.49815,3.15607,-3.59869,0.99586,0.43242,0.76629,0.37302,-0.29439,19.57377,24.47547,-15.90523
-0.27565,1.71136,-0.37771,-0.54303,0.04683,0.72739,1.06038,2.12323,0.27769,3.17856,-3.72825,0.20725,0.44121,0.75065,0.37392,-0.31944,18.36421,30.82944,-15.93568
-0.28054,1.70915,-0.36724,-0.50497,0.00096,0.72715,1.05799,2.25709,0.22016,2.95666,-3.64058,-0.27221,0.44606,0.74157,0.37064,-0.33726,3.49500,15.53957,-6.03995
-0.28518,1.70638,-0.35697,-0.47138,-0.04406,0.72315,0.91497,2.16546,0.25374,2.43109,-3.30265,-0.51250,0.44770,0.73756,0.36594,-0.34880,-8.73232,-3.74905,2.38653
-0.28990,1.70346,-0.34711,-0.44615,-0.07990,0.71651,0.74788,2.02610,0.33436,2.06027,-3.02299,-0.77361,0.44760,0.73582,0.36029,-0.35836,-11.23577,-10.67535,6.44179
-0.29419,1.69982,-0.33769,-0.42038,-0.11747,0.70570,0.54180,1.83872,0.43509,1.66810,-2.46542,-0.96986,0.44633,0.73657,0.35348,-0.36512,-13.79752,-14.81755,8.92238
-0.29825,1.69612,-0.32864,-0.39635,-0.14845,0.69091,0.39396,1.77124,0.46043,1.30554,-1.90663,-1.23149,0.44733,0.73516,0.34631,-0.37351,-11.25350,-9.59557,5.32298
-0.30215,1.69234,-0.31998,-0.37479,-0.17391,0.67550,0.38030,1.94840,0.40091,1.19904,-1.44177,-0.89606,0.45198,0.72801,0.33900,-0.38832,-4.56920,7.96716,-2.27309
-0.30573,1.68840,-0.31084,-0.35243,-0.19671,0.66885,0.52875,2.22193,0.29335,1.50718,-1.32140,-0.13660,0.45767,0.71570,0.33425,-0.40815,7.91133,20.15590,-8.42285
-0.30970,1.68487,-0.30130,-0.33999,-0.20859,0.67070,0.59436,2.24374,0.27956,1.56123,-1.30218,0.19275,0.45962,0.70758,0.33043,-0.42296,7.77645,11.28570,-5.35351
-0.31296,1.68082,-0.29148,-0.32064,-0.22560,0.67598,0.60352,2.06857,0.35231,1.32957,-1.13931,0.20953,0.45761,0.70400,0.32760,-0.43318,2.55581,-9.36093,2.76422
-0.31608,1.67676,-0.28178,-0.30164,-0.23934,0.67809,0.55951,1.82322,0.46859,1.20600,-0.71305,-0.06700,0.45366,0.70344,0.32425,-0.44070,-1.60298,-15.84033,7.34646
-0.31921,1.67292,-0.27236,-0.28680,-0.24712,0.67670,0.54235,1.66915,0.54545,1.17996,-0.55832,-0.18528,0.45030,0.70176,0.32081,-0.44927,-0.59768,-14.81712,6.22807
-0.32185,1.66914,-0.26297,-0.26788,-0.25275,0.67567,0.57236,1.47944,0.65245,1.15689,-0.20840,-0.02893,0.44443,0.70121,0.31880,-0.45732,2.19482,-11.80535,5.55033
-0.32451,1.66551,-0.25344,-0.25263,-0.25518,0.67583,0.63145,1.33365,0.71605,0.88988,0.05709,-0.01422,0.43861,0.69975,0.31775,-0.46585,4.45452,-12.10346,5.59855
-0.32696,1.66233,-0.24396,-0.23729,-0.25047,0.67598,0.80088,1.36548,0.70393,0.70636,0.65528,0.07685,0.43407,0.69362,0.31813,-0.47882,8.91857,0.01776,-0.72898
-0.32934,1.65942,-0.23458,-0.22352,-0.24179,0.67578,1.03399,1.51726,0.66027,0.98740,0.51467,-0.08691,0.43009,0.68371,0.31921,-0.49566,14.14769,11.49439,-3.84822
-0.33173,1.65649,-0.22518,-0.21244,-0.23504,0.67531,1.15598,1.50274,0.68639,1.32737,0.38137,-0.15265,0.42410,0.67719,0.31988,-0.50915,12.03167,5.66705,-1.58632
-0.33367,1.65368,-0.21577,-0.19723,-0.22821,0.67540,1.22894,1.26796,0.76219,1.36784,0.37237,-0.08070,0.41472,0.67529,0.32246,-0.51769,7.29030,-13.18671,3.49321
-0.33514,1.65086,-0.20649,-0.17825,-0.22296,0.67393,1.29173,0.98912,0.81934,1.50127,0.39216,-0.20468,0.40423,0.67487,0.32648,-0.52398,5.84592,-20.99532,3.07617
-0.33606,1.64800,-0.19738,-0.15491,-0.21927,0.66946,1.35944,0.74498,0.80805,1.73121,0.26866,-0.39389,0.39441,0.67377,0.33205,-0.52936,5.57037,-17.49544,-1.80028
-0.33653,1.64506,-0.18854,-0.12979,-0.21766,0.66227,1.42626,0.55950,0.72026,1.68421,0.09578,-0.58006,0.38620,0.67126,0.33908,-0.53412,5.21692,-14.52223,-6.74313
-0.33670,1.64216,-0.18003,-0.10565,-0.21572,0.65201,1.50540,0.44310,0.60199,1.70861,0.24381,-0.82717,0.37895,0.66717,0.34700,-0.53933,5.67353,-7.12267,-9.56346
-0.33674,1.63931,-0.17165,-0.08434,-0.21339,0.64135,1.57235,0.29702,0.49011,1.41381,0.09730,-0.77106,0.37133,0.66362,0.35602,-0.54312,5.19176,-8.52701,-9.29807
-0.33672,1.63652,-0.16357,-0.06666,-0.21074,0.62881,1.64841,0.19326,0.38661,1.05427,0.30825,-1.01646,0.36364,0.65935,0.36559,-0.54714,5.52728,-8.67658,-8.29961
-0.33669,1.63393,-0.15602,-0.05258,-0.20562,0.61110,1.73781,0.14373,0.29570,0.89761,0.33175,-1.51768,0.35596,0.65390,0.37542,-0.55206,6.03468,-2.03008,-7.92538
-0.33671,1.63139,-0.14918,-0.04218,-0.20079,0.58600,1.76812,0.02509,0.25480,0.80895,0.20124,-2.18706,0.34726,0.65062,0.38480,-0.55502,4.41038,-5.64398,-4.90266
-0.33662,1.62889,-0.14319,-0.03217,-0.19646,0.55384,1.73015,-0.18385,0.22785,0.82513,0.25446,-2.46605,0.33809,0.65027,0.39406,-0.55458,-1.61458,-13.84069,-3.59409
-0.33625,1.62644,-0.13786,-0.02000,-0.19232,0.51893,1.68982,-0.36233,0.17075,0.89317,0.39344,-2.53517,0.32967,0.64982,0.40378,-0.55318,-2.84188,-13.40914,-5.14348
-0.33566,1.62414,-0.13277,-0.00737,-0.18676,0.48765,1.65268,-0.45983,0.08519,1.09580,0.59713,-2.67307,0.32270,0.64807,0.41355,-0.55212,-2.59927,-8.86988,-6.47508
-0.33424,1.62260,-0.12946,0.01528,-0.17087,0.43622,1.58707,-0.52030,-0.06636,1.30742,1.20837,-3.06821,0.31839,0.64548,0.42379,-0.54990,-3.08759,-2.95830,-8.65355
-0.33274,1.62153,-0.12636,0.03473,-0.15096,0.39129,1.49493,-0.51074,-0.17313,1.47011,1.55420,-3.28747,0.31520,0.64247,0.43221,-0.54870,-4.88030,1.11490,-8.78815
-0.33092,1.62088,-0.12336,0.05482,-0.12920,0.35459,1.41585,-0.50359,-0.25682,1.98345,2.06138,-2.78867,0.31210,0.63956,0.44043,-0.54734,-7.62802,1.51871,-6.52131
-0.32774,1.62118,-0.12081,0.09110,-0.09790,0.31920,1.40800,-0.50508,-0.42575,2.57221,2.09222,-1.67117,0.31010,0.63480,0.45162,-0.54489,-2.05280,0.97885,-9.88410
-0.32378,1.62162,-0.11758,0.13212,-0.07053,0.30119,1.48237,-0.48100,-0.60216,3.39810,2.05727,-0.92364,0.30774,0.62787,0.46487,-0.54311,4.64728,2.54560,-11.32136
-0.31941,1.62189,-0.11383,0.16916,-0.05225,0.29462,1.57545,-0.47465,-0.78909,4.14098,1.90258,-0.48700,0.30553,0.61982,0.47991,-0.54051,8.09363,3.49076,-14.12288
-0.31233,1.62311,-0.11025,0.23767,-0.02395,0.28700,1.70804,-0.60633,-1.15420,4.69980,1.86014,-0.80869,0.30472,0.61046,0.50157,-0.53189,10.88227,-4.37138,-23.19251
-0.30467,1.62496,-0.10708,0.30157,0.00813,0.27503,1.71074,-0.81948,-1.47568,4.66202,2.41783,-0.94990,0.30458,0.60420,0.52231,-0.51901,1.08901,-11.49271,-25.01498
-0.29724,1.62683,-0.10386,0.34743,0.03312,0.26615,1.69721,-0.93279,-1.68180,4.48315,2.53006,-0.73682,0.30438,0.59750,0.54114,-0.50746,-1.59139,-11.98071,-23.54201
-0.28667,1.63031,-0.10075,0.42908,0.07593,0.25808,1.74706,-1.05201,-2.00859,4.54935,2.19558,0.01663,0.30577,0.58796,0.56403,-0.49262,2.49366,-4.24323,-18.92859
-0.27644,1.63307,-0.09677,0.49149,0.10071,0.26400,1.86527,-1.12119,-2.27112,4.39900,1.57471,0.89901,0.30575,0.57620,0.58751,-0.47890,7.56648,-4.02569,-18.50459
-0.26552,1.63555,-0.09201,0.55070,0.11627,0.27981,2.08501,-1.17303,-2.55069,4.11198,0.84678,1.33548,0.30462,0.56057,0.61412,-0.46457,14.93856,-3.21485,-19.45633
-0.25427,1.63751,-0.08687,0.60285,0.12113,0.29796,2.30909,-1.23956,-2.81349,3.41290,-0.18139,1.20914,0.30255,0.54325,0.64180,-0.44883,17.22933,-5.00737,-18.47806
-0.24289,1.63877,-0.08168,0.64631,0.11474,0.31309,2.51900,-1.30241,-3.02732,2.75882,-0.82213,0.96966,0.29946,0.52466,0.66937,-0.43244,15.61809,-5.37293,-16.08401
-0.23161,1.63921,-0.07653,0.67946,0.09763,0.32462,2.71467,-1.38184,-3.17658,1.94719,-1.72992,0.66067,0.29451,0.50543,0.69649,-0.41557,14.07735,-5.83420,-11.80933
-0.22048,1.63836,-0.07132,0.70379,0.06486,0.33482,2.91077,-1.52440,-3.27285,1.24054,-2.41637,0.61249,0.28648,0.48606,0.72365,-0.39750,11.20545,-9.19315,-7.24163
-0.20979,1.63654,-0.06593,0.71719,0.02317,0.34597,3.00559,-1.81563,-3.40163,0.67314,-3.01896,0.62300,0.27609,0.46916,0.75083,-0.37405,5.08094,-16.29406,-9.61515
-0.19957,1.63444,-0.06063,0.72110,-0.01360,0.35341,3.00039,-2.08798,-3.56635,0.20718,-3.25797,0.47842,0.26640,0.45323,0.77661,-0.34713,-2.16567,-19.94040,-16.25324
-0.18936,1.63117,-0.05530,0.72315,-0.05983,0.35934,2.98036,-2.31124,-3.77652,-0.37047,-3.56054,0.28684,0.25732,0.43602,0.80194,-0.31714,-3.26572,-14.52100,-20.09966
-0.17970,1.62671,-0.05018,0.71697,-0.11414,0.36097,3.05943,-2.36190,-3.88231,-1.07021,-4.13436,0.15638,0.24842,0.41489,0.82547,-0.29113,2.44538,-5.41286,-10.93395
-0.17112,1.62034,-0.04520,0.69585,-0.18693,0.36043,3.33088,-2.29328,-3.79620,-1.84374,-4.82581,0.03574,0.23663,0.38832,0.84791,-0.27252,15.40757,-0.88810,6.08307
-0.16306,1.61366,-0.04026,0.67066,-0.24877,0.35909,3.57552,-2.28444,-3.68461,-2.42571,-5.51628,-0.21086,0.22241,0.36096,0.86929,-0.25412,18.25698,-4.65580,12.28993
-0.15562,1.60625,-0.03545,0.64311,-0.30586,0.35628,3.76434,-2.33650,-3.62240,-2.80848,-5.99628,-0.34420,0.20662,0.33319,0.88973,-0.23383,16.58704,-9.40668,11.24914
-0.15112,1.59360,-0.03119,0.57778,-0.42948,0.34594,4.05805,-2.54171,-3.65380,-3.40342,-6.51370,-0.79386,0.18541,0.30141,0.91151,-0.20958,11.53203,-13.43332,-2.44708
-0.14591,1.58245,-0.02717,0.53460,-0.50747,0.33369,4.23449,-2.63893,-3.75771,-3.82420,-6.57538,-1.27452,0.16748,0.26909,0.93064,-0.18291,12.72998,-11.51602,-8.74071
-0.14109,1.57089,-0.02357,0.49673,-0.57243,0.31856,4.40945,-2.69709,-3.81982,-3.92311,-6.42511,-1.71911,0.14904,0.23488,0.94764,-0.15683,15.21279,-8.75995,-7.48831
-0.13891,1.55518,-0.02187,0.42868,-0.68421,0.27882,4.74597,-2.73511,-3.83114,-3.91142,-6.05304,-2.80872,0.12825,0.19412,0.96345,-0.13280,17.51954,-7.32762,0.45484
-0.13657,1.54001,-0.02113,0.37457,-0.76766,0.23182,5.04185,-2.71472,-3.71789,-4.20830,-5.82793,-4.03747,0.10753,0.15250,0.97595,-0.11272,18.05049,-6.81559,8.36342
-0.13527,1.52392,-0.02227,0.31638,-0.84769,0.16664,5.37924,-2.68874,-3.49679,-4.43378,-5.51554,-5.32362,0.08525,0.10797,0.98573,-0.09704,19.37607,-9.41010,16.70701
-0.13566,1.50652,-0.02628,0.24427,-0.93235,0.07107,5.76261,-2.70344,-3.20169,-4.71525,-5.06961,-6.75357,0.06049,0.06032,0.99271,-0.08498,18.96653,-13.15609,19.90025
-0.13671,1.48934,-0.03212,0.17616,-0.99562,-0.03360,6.11628,-2.75320,-2.97904,-5.00354,-3.95170,-8.26713,0.03459,0.01063,0.99675,-0.07191,19.85932,-14.67520,16.50320
-0.13869,1.47245,-0.04055,0.10860,-1.04140,-0.15512,6.47795,-2.86756,-2.64237,-4.93726,-2.46047,-8.99015,0.00549,-0.04093,0.99713,-0.06348,19.14461,-19.23751,18.69027
-0.14132,1.45623,-0.05112,0.04572,-1.06791,-0.28340,6.83480,-3.13615,-2.15835,-4.47003,-1.07976,-9.32323,-0.02991,-0.09351,0.99328,-0.06132,15.99602,-32.93167,25.44833
-0.14403,1.44093,-0.06254,-0.00446,-1.07373,-0.39542,7.06500,-3.49520,-1.73243,-4.07583,0.15159,-9.43266,-0.06960,-0.14417,0.98527,-0.06018,10.76492,-43.46425,23.08162
-0.14825,1.42708,-0.07799,-0.06658,-1.05667,-0.54435,7.16494,-4.09179,-1.30625,-3.58851,1.89479,-9.58496,-0.11850,-0.19077,0.97250,-0.06168,-0.73680,-47.77008,9.62616
-0.15199,1.41453,-0.09306,-0.10873,-1.02451,-0.65688,7.08336,-4.51053,-1.17423,-3.20349,3.40545,-9.79093,-0.16413,-0.23189,0.95712,-0.05675,-7.89845,-39.63310,-5.74821
-0.15657,1.40452,-0.11151,-0.15373,-0.96079,-0.79384,6.85462,-4.87721,-1.26020,-2.73110,5.65318,-10.47335,-0.21043,-0.26683,0.93936,-0.04612,-13.20669,-23.29258,-19.48825
-0.16099,1.39756,-0.13243,-0.18707,-0.86566,-0.93894,6.65881,-5.15182,-1.40611,-1.95729,7.93729,-10.29420,-0.25549,-0.30016,0.91844,-0.03325,-10.24710,-8.27214,-24.46246
-0.16469,1.39374,-0.15490,-0.20294,-0.74451,-1.07749,6.45461,-5.54730,-1.44266,-0.74414,9.92326,-9.43885,-0.30477,-0.33048,0.89292,-0.02445,-9.90499,-17.91301,-19.23067
-0.16722,1.39481,-0.17920,-0.19798,-0.57321,-1.21538,6.06121,-6.14963,-1.45754,1.05053,11.89134,-7.81108,-0.36143,-0.35195,0.86320,-0.01957,-20.27129,-29.43121,-24.37604
-0.16866,1.39661,-0.20172,-0.17808,-0.42723,-1.29858,5.64969,-6.58066,-1.52850,2.34741,12.99370,-6.45180,-0.41538,-0.36890,0.83137,-0.01419,-26.41721,-27.89476,-31.10839
-0.16829,1.40383,-0.22518,-0.13604,-0.23350,-1.37793,5.11483,-6.96145,-1.64488,4.17899,15.17928,-5.16927,-0.46929,-0.37748,0.79824,-0.00971,-28.32112,-17.93189,-36.14606
-0.16612,1.41349,-0.24804,-0.07700,-0.04643,-1.43028,4.61494,-7.10164,-1.71477,5.14249,16.99524,-3.74672,-0.51675,-0.38350,0.76541,-0.00621,-31.18685,-4.90842,-26.23011
-0.16095,1.43200,-0.27091,0.01352,0.23050,-1.47226,3.77658,-7.47423,-2.05665,6.45355,18.23640,-1.45880,-0.57243,-0.37123,0.73110,-0.00243,-33.47092,-9.70519,-49.21296
-0.15339,1.45450,-0.29153,0.12328,0.51729,-1.47397,2.86205,-7.67317,-2.44119,7.45380,18.05266,1.22904,-0.62411,-0.35037,0.69837,0.00072,-36.28067,1.95266,-51.23648
-0.14561,1.47588,-0.31038,0.21338,0.72736,-1.44818,2.07896,-7.74121,-2.78866,7.85398,17.87870,3.04017,-0.67178,-0.32650,0.66491,0.00362,-38.06037,8.43354,-54.05016
-0.13515,1.50288,-0.32689,0.32292,0.97405,-1.39436,1.04227,-7.69407,-3.33781,8.13023,18.18318,4.55304,-0.71719,-0.28562,0.63562,0.00689,-40.11349,19.16995,-67.91433
-0.12147,1.53621,-0.34102,0.45956,1.26811,-1.31665,-0.18784,-7.59691,-4.14614,9.24131,19.37882,5.13128,-0.76092,-0.22667,0.60786,0.01118,-35.87111,22.67956,-80.47051
-0.10830,1.56725,-0.35582,0.55831,1.46265,-1.26424,-0.95377,-7.55211,-4.71145,10.55102,20.19905,5.39274,-0.80085,-0.17268,0.57323,0.01522,-31.68854,19.54513,-86.35262
-0.08754,1.61075,-0.36735,0.74572,1.79601,-1.17715,-2.23776,-7.46962,-5.81319,13.18594,22.46405,5.49213,-0.83750,-0.08582,0.53930,0.01948,-30.04091,14.95714,-96.68732
-0.06310,1.65804,-0.37861,0.95179,2.12225,-1.10308,-3.27080,-7.25397,-7.10173,17.12523,24.79431,5.21204,-0.86455,0.01094,0.50146,0.03120,-15.87777,11.11286,-115.47950
-0.03116,1.71223,-0.38946,1.22487,2.48052,-1.03708,-3.96487,-6.86133,-8.54622,23.41985,26.95317,4.81346,-0.87840,0.11572,0.46058,0.05371,10.08165,6.77161,-120.54420
0.01558,1.77679,-0.39967,1.66533,2.92382,-0.97512,-3.99296,-6.63418,-10.35229,31.61047,27.36845,2.72147,-0.88007,0.22468,0.40671,0.09794,33.72885,-2.16316,-92.76869
0.07397,1.84323,-0.40796,2.19607,3.31053,-0.89589,-3.75440,-5.87931,-11.82324,44.71205,27.19979,8.90000,-0.85967,0.32823,0.36285,0.14686,58.16280,-24.11716,-104.22850
0.14328,1.91051,-0.41367,2.76701,3.62016,-0.79537,-2.29303,-4.83255,-13.15621,52.66457,22.28261,11.63877,-0.81816,0.41233,0.32889,0.22898,129.08910,-56.66676,-76.26347
0.24451,1.98184,-0.41062,3.69385,3.92578,-0.58546,1.02813,-3.90680,-14.29908,64.68719,14.28292,17.27617,-0.75199,0.45927,0.30186,0.36396,175.64790,-129.88110,-16.41792
0.35235,2.04388,-0.40200,4.52768,4.03451,-0.33756,3.61143,-3.96562,-15.07109,75.85816,3.85406,24.10066,-0.67531,0.49381,0.24915,0.48789,135.45880,-196.52050,-33.60070
0.49272,2.09456,-0.37786,5.64796,3.94851,0.08318,5.76351,-4.94879,-16.29211,86.01371,-16.48444,36.23325,-0.57259,0.52210,0.15791,0.61206,44.14451,-177.01680,-93.28202
0.65594,2.11973,-0.33507,6.87324,3.51039,0.68906,6.53659,-5.88371,-17.97112,91.32343,-46.28937,50.25558,-0.44614,0.56018,0.04206,0.69669,2.14568,-84.05324,-118.86330
0.83065,2.10512,-0.27075,8.01606,2.58450,1.48385,6.25255,-5.49718,-20.39680,74.03073,-86.46941,61.18569,-0.28227,0.62240,-0.07484,0.72618,80.66386,6.84189,-154.13140
0.95601,2.01869,-0.19117,8.88118,0.83856,2.53963,6.74545,-3.05700,-21.72456,32.90085,-131.38600,70.02111,-0.09787,0.68142,-0.12658,0.71419,186.55930,10.77563,-35.05640
1.03731,1.89898,-0.10951,9.04694,-1.14225,3.46516,9.29055,-1.22753,-21.65289,-10.72687,-154.24550,61.71012,0.10197,0.68612,-0.12886,0.70869,137.76030,-158.41460,-2.58593
1.08899,1.75884,-0.03135,8.66142,-3.07489,4.10515,12.15613,0.44233,-21.15651,-53.40561,-170.80740,43.70510,0.30762,0.66493,-0.10382,0.67265,112.65050,-221.91760,-38.16597
1.06830,1.57204,0.02551,7.49073,-5.44523,4.50007,16.69212,2.30583,-19.37741,-112.62590,-166.35260,10.31839,0.52364,0.60695,-0.00257,0.59783,143.36260,-292.32210,-108.47760
0.95387,1.37509,0.03150,5.28679,-7.90186,4.31411,22.57751,2.45994,-15.05713,-158.79150,-141.97930,-37.44917,0.69598,0.48012,0.18744,0.49996,74.24391,-388.29290,-225.81600
0.84564,1.21482,0.01113,3.22403,-9.43409,3.64174,28.16238,1.68638,-11.59915,-183.71430,-114.83560,-74.98919,0.82384,0.28932,0.36125,0.32725,164.56760,-297.53010,-363.78640
0.71898,1.04145,-0.03914,0.64085,-10.67926,2.33698,34.21903,-4.09363,-10.28196,-192.26750,-58.87974,-120.18500,0.85821,-0.07830,0.48882,0.13564,346.70470,16.88111,-541.73500
0.71045,0.79176,-0.07020,-2.00581,-10.56935,0.03063,33.83421,-9.75955,-10.87093,-129.12770,72.09270,-140.48530,0.78176,-0.36829,0.50213,0.03290,232.37580,278.81590,-188.03900
0.65048,0.69739,-0.13325,-3.20310,-9.30363,-1.42014,28.75235,-11.12646,-10.85575,-69.01144,121.00430,-89.38725,0.71869,-0.49238,0.49065,0.01739,-144.60410,319.57290,-95.00249
0.59744,0.66889,-0.18351,-3.65893,-7.59602,-2.19336,22.32660,-8.92977,-10.57227,-3.76778,114.29730,-20.20469,0.71893,-0.52389,0.45342,0.05553,-244.40610,368.70120,196.85400
0.56514,0.66370,-0.19773,-3.56614,-6.02028,-2.14838,15.51258,-7.38304,-7.85889,15.13390,86.63275,19.47348,0.71871,-0.48366,0.48526,0.11856,-428.13870,234.03030,116.66990
0.52788,0.62976,-0.20497,-3.44589,-5.27605,-1.89252,12.37006,-7.37043,-6.13845,12.03420,68.48927,31.00743,0.68672,-0.49564,0.51971,0.11252,-385.40810,113.49210,37.56252
0.48836,0.61766,-0.18639,-3.36980,-4.38999,-1.32045,7.35407,-6.37328,-4.78646,-5.27317,44.34638,38.22686,0.66568,-0.45728,0.56077,0.18248,-312.58760,90.31020,4.85680
0.43637,0.59180,-0.16452,-3.45089,-3.87224,-0.79554,2.83694,-2.55556,-5.51371,-8.22982,31.96907,34.13329,0.68066,-0.42202,0.50803,0.31702,-214.93850,355.59160,-32.97106
0.38928,0.56917,-0.14646,-3.51518,-3.51697,-0.43005,0.37142,1.04449,-5.44368,-2.51631,32.90921,28.39128,0.70796,-0.37736,0.43084,0.41324,-110.83360,395.61540,0.07353
0.33976,0.55652,-0.12478,-3.51842,-3.00402,-0.04287,-1.28136,4.65033,-5.24060,6.24157,34.79102,21.75131,0.73599,-0.31927,0.32606,0.50006,-16.65635,279.56330,3.96035
0.29900,0.54997,-0.10646,-3.39557,-2.49322,0.22876,-1.67437,6.05548,-4.86431,12.88948,30.40935,14.19576,0.74575,-0.28968,0.25530,0.54292,17.60403,114.67600,15.99840
0.26447,0.54188,-0.09198,-3.20761,-2.10348,0.39369,-1.79484,5.73785,-4.45894,17.50473,26.38342,10.87646,0.74019,-0.28220,0.22407,0.56769,10.15669,7.29586,22.24711
0.22835,0.53381,-0.07897,-3.01590,-1.79029,0.50997,-2.23939,4.87852,-3.95682,18.81422,24.77358,9.12187,0.72389,-0.27586,0.21636,0.59420,-28.53322,-50.96808,55.33418
0.19691,0.53160,-0.06367,-2.77540,-1.46676,0.62532,-3.03188,4.07513,-3.24385,18.26725,21.41091,7.21185,0.70087,-0.25859,0.22181,0.62667,-47.60585,-42.33815,77.62154
0.17337,0.53359,-0.04846,-2.48673,-1.14974,0.70940,-3.72700,4.02311,-2.30392,18.73782,19.57461,2.86211,0.68359,-0.22120,0.21820,0.66042,-33.70883,10.86491,69.75162
0.15546,0.53525,-0.03876,-2.22903,-0.89415,0.71030,-3.59824,4.59439,-1.65973,17.63591,18.94799,-2.54471,0.68192,-0.18215,0.19079,0.68221,13.80065,45.64885,44.31520
0.13972,0.54005,-0.03294,-1.99238,-0.64463,0.65357,-3.02483,4.94221,-1.36423,17.93929,18.33085,-5.22119,0.68604,-0.15473,0.15761,0.69323,51.59830,40.13322,-1.63428
0.12692,0.54965,-0.02991,-1.76742,-0.37487,0.56525,-2.70683,4.57531,-1.16419,15.78930,19.37445,-7.76205,0.68211,-0.13994,0.14174,0.70360,27.95053,-19.57442,12.23548
0.11296,0.55922,-0.02998,-1.60004,-0.16689,0.45928,-2.17997,4.37688,-1.25423,12.54257,16.02977,-9.42773,0.68242,-0.13158,0.11672,0.70948,27.38727,-29.10344,-0.57995
0.10164,0.57036,-0.03435,-1.42271,0.01971,0.31331,-1.09944,4.40429,-1.80128,10.53609,8.72784,-8.16095,0.69469,-0.13506,0.07182,0.70286,53.83207,-10.31306,-49.78929
0.08998,0.57696,-0.03654,-1.29636,0.10768,0.22231,-0.45594,4.37977,-2.13695,11.65893,5.55442,-6.86928,0.70165,-0.13466,0.03138,0.69898,46.40881,-8.56835,-55.31406
0.08245,0.58347,-0.03992,-1.13729,0.17528,0.13998,-0.09105,4.07066,-2.19385,12.30216,2.66559,-4.45543,0.70567,-0.13473,0.00415,0.69560,29.11501,-22.59920,-19.57921
0.07745,0.58829,-0.04247,-0.97285,0.20510,0.08365,0.00575,3.66941,-1.99086,12.27926,0.90562,-3.48618,0.70630,-0.13093,-0.01200,0.69559,4.90213,-26.39694,11.68966
0.07815,0.59091,-0.04547,-0.75724,0.19775,0.02976,0.11719,3.14732,-1.37262,12.13455,-1.87939,-2.50305,0.71052,-0.12118,-0.01318,0.69304,12.74564,-30.66326,29.50047
0.07754,0.59211,-0.04827,-0.59844,0.17036,-0.00885,0.15187,2.71540,-0.80397,11.13948,-2.45663,-2.54941,0.71352,-0.10949,-0.01227,0.69192,7.39256,-30.97440,39.90939
0.07582,0.59287,-0.05055,-0.49565,0.14409,-0.03425,0.20848,2.39647,-0.40788,10.03121,-2.76128,-2.23168,0.71681,-0.09847,-0.01275,0.69016,10.70276,-31.49887,38.87400
0.07844,0.59223,-0.05393,-0.35326,0.10371,-0.07000,0.26857,1.84442,0.09478,8.30686,-2.24612,-2.08610,0.72131,-0.08981,-0.00124,0.68677,9.42688,-33.37744,31.23528
0.08077,0.59185,-0.05735,-0.24129,0.07447,-0.09881,0.21175,1.09043,0.54785,6.27803,-1.57905,-1.43104,0.72317,-0.08706,0.01892,0.68490,2.00910,-45.55274,28.52397
0.08153,0.59195,-0.05999,-0.17662,0.05903,-0.11248,0.10624,0.44856,0.81562,4.97047,-1.05043,-0.69174,0.72282,-0.08751,0.03835,0.68440,-3.98641,-54.00861,24.98533
0.08269,0.59200,-0.06209,-0.12313,0.04720,-0.11768,0.00740,-0.15031,0.98564,4.09155,-0.72964,-0.03617,0.72147,-0.09129,0.05955,0.68382,-5.58223,-52.06939,17.33328
0.08520,0.59228,-0.06393,-0.05992,0.04090,-0.11618,-0.11339,-0.76570,1.07506,3.80692,0.18749,0.65489,0.71831,-0.09943,0.08333,0.68352,-4.63966,-42.21408,7.82589
0.08760,0.59314,-0.06510,-0.01245,0.04432,-0.10732,-0.16305,-0.84022,0.99341,5.13057,0.89754,2.40350,0.71636,-0.10154,0.09271,0.68405,-5.75986,-32.40049,1.54959
0.09762,0.59455,-0.06328,0.13334,0.05488,-0.05833,-0.14443,0.00086,0.65168,9.84346,0.29684,3.35563,0.71712,-0.08916,0.07188,0.68748,0.58969,49.02135,-24.07951
0.10860,0.59642,-0.06120,0.26586,0.07043,-0.01571,-0.38176,0.31852,0.91552,9.72142,0.84207,2.13883,0.71258,-0.07114,0.07375,0.69407,-13.43167,37.01807,6.43147
0.11971,0.59935,-0.05955,0.37283,0.09832,0.01181,-0.71926,0.27071,1.33387,6.12025,2.84933,1.60618,0.70398,-0.05471,0.08919,0.70247,-24.90195,-6.17100,36.36204
0.12991,0.60345,-0.05873,0.44446,0.13749,0.02070,-0.83769,0.60918,1.26781,3.46106,3.54117,0.51933,0.69864,-0.03956,0.08545,0.70925,-14.46833,12.87428,6.95997
0.13958,0.60766,-0.05835,0.49439,0.17010,0.02148,-0.80974,1.29354,0.80596,3.11196,2.03154,-0.16686,0.69612,-0.02482,0.06089,0.71491,-5.41838,44.97363,-32.27298
0.14965,0.61160,-0.05855,0.54073,0.19273,0.01366,-0.73855,1.93209,0.34268,2.93965,0.89872,-1.02902,0.69428,-0.01016,0.03169,0.71893,-1.34545,42.11271,-34.08926
0.15968,0.61510,-0.05933,0.57715,0.20415,-0.00174,-0.69458,2.29229,0.06879,2.62545,0.56285,-1.46087,0.69169,0.00330,0.00881,0.72213,-0.51902,26.60747,-22.68404
0.17014,0.61836,-0.06073,0.61274,0.20975,-0.02280,-0.61176,2.59077,-0.18524,2.67511,0.29586,-1.69636,0.68981,0.01616,-0.01522,0.72365,1.76923,21.28498,-19.54032
0.18144,0.62148,-0.06255,0.65287,0.21218,-0.04587,-0.52755,2.89459,-0.39085,3.13609,-0.05742,-1.66942,0.68786,0.03059,-0.04099,0.72404,3.31713,20.85029,-18.50066
0.19395,0.62452,-0.06451,0.70287,0.21256,-0.06992,-0.47184,3.10251,-0.45622,3.43877,-0.13294,-1.72234,0.68528,0.04654,-0.06358,0.72401,3.42806,15.62124,-8.09361
0.20675,0.62785,-0.06656,0.74749,0.21748,-0.08956,-0.46770,3.05850,-0.27774,3.32597,0.30956,-1.48345,0.68180,0.06278,-0.07571,0.72490,2.71907,1.15630,7.72937
0.21961,0.63147,-0.06842,0.78269,0.22568,-0.10055,-0.54696,2.85916,0.01577,3.00118,0.53095,-0.80502,0.67635,0.07866,-0.08031,0.72795,1.20447,-10.32491,20.70602
0.23359,0.63581,-0.06976,0.82599,0.24231,-0.10433,-0.74997,2.37145,0.60358,2.80073,1.14011,-0.22121,0.66768,0.09456,-0.06891,0.73520,-5.07554,-26.34367,36.71505
0.24727,0.64057,-0.07088,0.85647,0.26191,-0.10244,-0.92068,1.91195,1.17763,2.46240,1.78556,0.21942,0.65814,0.11095,-0.05308,0.74278,-4.40588,-34.34111,48.16193
0.26130,0.64637,-0.07185,0.88583,0.29290,-0.09720,-1.07656,1.39763,1.86450,1.68390,2.74877,0.57719,0.64699,0.12878,-0.02768,0.75104,-2.57455,-35.97542,54.03865
0.27523,0.65400,-0.07210,0.90668,0.34382,-0.08329,-1.17168,1.03659,2.45213,0.43626,4.08909,1.63111,0.63536,0.14842,-0.00248,0.75782,0.94439,-22.76293,42.57889
0.28812,0.66186,-0.07188,0.90903,0.38752,-0.06443,-1.26737,0.88996,2.68829,-0.31439,5.08503,2.66614,0.62318,0.16620,0.01369,0.76410,0.44880,-13.45381,30.48462
0.30028,0.67333,-0.06900,0.89716,0.48279,-0.01183,-1.77108,0.52729,3.16006,-1.07935,6.56811,3.83232,0.59773,0.18333,0.04107,0.77937,-21.20962,-22.16716,27.39328
0.31172,0.68572,-0.06554,0.87213,0.58368,0.03685,-2.24056,0.07033,3.77286,-2.55081,7.68390,2.58150,0.56744,0.20086,0.07767,0.79475,-29.35733,-34.64737,49.40760
0.32240,0.69883,-0.06321,0.84081,0.66795,0.05891,-2.46520,-0.13903,4.17630,-3.53139,7.25834,1.20835,0.53991,0.22031,0.10956,0.80496,-15.96967,-25.45877,45.65117
0.32991,0.71577,-0.06198,0.77512,0.78284,0.06090,-2.64912,0.15226,4.11091,-3.95411,5.13923,-0.36061,0.51486,0.24341,0.12181,0.81291,-12.78273,10.86303,-3.98153
0.33792,0.72995,-0.06161,0.73306,0.83240,0.05153,-2.73444,0.51945,3.74102,-3.72484,3.73244,-1.01947,0.49411,0.26366,0.12291,0.81929,-15.01661,20.42653,-30.14353
0.34488,0.74440,-0.06187,0.68401,0.87396,0.03507,-2.82634,0.89046,3.25327,-3.41191,2.37691,-1.54642,0.47413,0.28266,0.11692,0.82561,-14.44219,19.69806,-39.54044
0.35144,0.75814,-0.06283,0.63948,0.89672,0.01330,-2.82067,1.17716,2.87452,-2.70382,0.78215,-1.85505,0.45598,0.30156,0.11172,0.82986,-8.82374,13.53037,-34.66145
0.35778,0.77086,-0.06441,0.60111,0.90005,-0.01333,-2.70794,1.38184,2.65447,-2.53896,-0.47187,-2.28988,0.44001,0.32099,0.10993,0.83143,1.37136,12.70145,-20.66355
0.36377,0.78239,-0.06661,0.56562,0.88473,-0.04335,-2.52469,1.56019,2.48286,-2.49129,-1.75086,-2.15164,0.42658,0.34062,0.10882,0.83076,8.55208,12.55199,-15.81558
0.36939,0.79254,-0.06895,0.53179,0.85205,-0.06922,-2.35128,1.70513,2.26368,-2.50478,-2.90800,-1.60696,0.41464,0.35881,0.10580,0.82954,9.26078,8.86661,-17.25423
0.37439,0.80120,-0.07114,0.49585,0.80395,-0.08744,-2.15863,1.80837,2.01189,-2.73594,-3.91418,-1.14615,0.40496,0.37528,0.10136,0.82758,9.13433,8.12775,-21.22548
0.37893,0.80904,-0.07308,0.46114,0.75488,-0.09811,-1.99783,1.84947,1.79633,-3.15942,-4.28432,-0.81513,0.39568,0.39021,0.09727,0.82566,11.83505,3.04099,-18.95337
0.38229,0.81525,-0.07539,0.41659,0.69218,-0.11183,-1.88321,1.87591,1.43151,-3.41689,-4.65563,-1.09767,0.38823,0.40209,0.08768,0.82457,5.99568,0.14512,-25.00408
