posX, posY, posZ, velX, velY, velZ, angVelX, angVelY, angVelZ, accX, accY, accZ, rotX, rotY, rotZ, rotW, angAccX, angAccY, angAccZ
0.20435,1.18783,-0.44430,-0.01816,0.15646,-0.14281,0.41299,0.07434,0.04160,-1.07725,0.53822,-0.10443,0.10585,0.87850,-0.00232,0.46586,9.58355,5.39912,-0.69314
0.20313,1.19051,-0.44640,-0.03493,0.16599,-0.14393,0.54980,0.15743,0.02170,-1.10416,0.66788,0.04178,0.10945,0.87990,0.00346,0.46236,9.33613,5.55206,-1.19242
0.20186,1.19320,-0.44848,-0.04933,0.17425,-0.14437,0.59650,0.17069,0.01290,-1.07893,0.66156,0.06351,0.11201,0.88056,0.00788,0.46043,4.60735,2.42988,-0.78753
0.20058,1.19596,-0.45054,-0.05979,0.18089,-0.14443,0.64037,0.16875,0.00507,-1.13893,0.68492,-0.05830,0.11471,0.88101,0.01254,0.45881,2.77005,-0.25777,-0.48268
0.19869,1.19910,-0.45272,-0.07761,0.19218,-0.14634,0.69437,0.16375,-0.02433,-1.14707,0.82800,-0.16609,0.11835,0.88128,0.01746,0.45719,4.30449,-0.01620,-1.43408
0.19642,1.20275,-0.45527,-0.09922,0.21091,-0.15353,0.73206,0.16336,-0.06669,-1.47200,1.35316,-0.51513,0.12241,0.88151,0.02192,0.45550,2.41264,0.15364,-2.60634
0.19372,1.20683,-0.45801,-0.12273,0.23211,-0.16282,0.72633,0.14126,-0.08009,-1.91702,1.82845,-0.80351,0.12545,0.88150,0.02580,0.45448,-0.11627,-1.53954,-1.28530
0.19072,1.21119,-0.46103,-0.14644,0.25398,-0.17376,0.72087,0.09985,-0.12749,-2.30962,1.76047,-0.94178,0.12939,0.88102,0.02927,0.45409,-0.22881,-1.41270,-0.49017
0.18629,1.21617,-0.46435,-0.18967,0.28359,-0.18652,0.93100,0.04253,-0.11510,-2.04870,2.61630,-1.78954,0.13512,0.87994,0.03896,0.45379,13.46715,-14.52726,-5.00041
0.18273,1.22201,-0.46828,-0.20666,0.31818,-0.20736,1.00155,0.18613,-0.06930,-1.28775,2.83092,-1.15322,0.13863,0.88178,0.04613,0.44846,5.60354,20.82051,6.82634
0.17875,1.22860,-0.47223,-0.22644,0.35560,-0.22371,1.24192,0.19119,-0.13061,-2.01519,2.33215,-1.37360,0.14710,0.88134,0.05738,0.44531,13.35194,-3.44916,-2.50829
0.17408,1.23548,-0.47627,-0.25296,0.39039,-0.23729,1.65763,0.27611,-0.26855,-1.71860,2.63954,-0.95061,0.16120,0.88093,0.07328,0.43887,27.10996,5.84940,-7.77137
0.16951,1.24332,-0.48025,-0.27149,0.43221,-0.24700,2.12607,0.33346,-0.47689,-1.37270,3.27388,-0.50462,0.18002,0.87907,0.09177,0.43176,34.26454,6.31158,-14.31571
0.16438,1.25229,-0.48416,-0.29438,0.48150,-0.25435,2.55986,0.37741,-0.67253,-2.02877,3.91068,-0.53336,0.20062,0.87606,0.11164,0.42403,30.73859,3.74793,-14.99739
0.15817,1.26240,-0.48829,-0.33006,0.53824,-0.26344,2.92456,0.46741,-0.79470,-2.95929,4.39659,-0.69988,0.22081,0.87301,0.13240,0.41421,28.97031,5.88936,-10.36461
0.15070,1.27365,-0.49276,-0.37810,0.60062,-0.27606,3.20173,0.59642,-0.82345,-3.74949,4.78789,-1.13237,0.23912,0.87031,0.15340,0.40230,20.01026,7.60327,-3.12826
0.14204,1.28595,-0.49784,-0.43589,0.66762,-0.29475,3.55550,0.88988,-0.77593,-4.31176,4.93712,-1.73155,0.25764,0.86883,0.17770,0.38364,24.94420,14.36807,4.66233
0.13249,1.29923,-0.50333,-0.49488,0.73534,-0.31537,3.79572,1.22469,-0.69081,-4.14155,4.96419,-0.81656,0.27468,0.86811,0.20086,0.36137,24.54786,24.31112,9.37439
0.12219,1.31357,-0.50862,-0.55130,0.80305,-0.32910,3.66742,1.35377,-0.54148,-4.00573,4.97952,-0.07050,0.28518,0.86769,0.21739,0.34428,0.95226,11.91275,12.08095
0.11155,1.32838,-0.51357,-0.59976,0.86186,-0.33477,3.29269,1.30274,-0.36364,-4.16200,4.98315,-0.00094,0.28990,0.86768,0.22809,0.33326,-24.34217,-3.05960,15.29940
0.09852,1.34562,-0.51840,-0.67708,0.94741,-0.33689,2.76871,1.24996,-0.06114,-4.36300,4.65908,-0.27686,0.28752,0.87034,0.23447,0.32382,-30.89216,-7.65982,18.40404
0.08580,1.36243,-0.52282,-0.73382,1.00922,-0.33156,2.66558,1.36782,0.12809,-4.01624,4.12056,0.37004,0.29066,0.87175,0.24696,0.30754,-10.63160,3.45461,16.49214
0.07312,1.37896,-0.52692,-0.77788,1.05300,-0.32081,2.65415,1.48129,0.23985,-3.67435,3.22024,1.27931,0.29543,0.87224,0.26051,0.28993,-0.50552,9.11155,12.92360
0.05974,1.39590,-0.53016,-0.82265,1.09275,-0.29811,2.72718,1.57809,0.25950,-3.20354,2.47507,1.84215,0.30266,0.87116,0.27521,0.27156,1.71804,6.03181,5.15608
0.04560,1.41312,-0.53216,-0.86865,1.12750,-0.26114,3.02274,1.75087,0.17390,-2.95082,1.98845,2.31839,0.31519,0.86730,0.29404,0.24897,15.82463,10.33480,-4.87834
0.03147,1.43008,-0.53406,-0.90343,1.15001,-0.23174,3.27125,1.94269,0.10803,-2.99183,1.83944,2.55738,0.32808,0.86272,0.31270,0.22427,21.89935,16.86429,-6.18334
0.01635,1.44744,-0.53525,-0.94586,1.17378,-0.19748,3.39235,2.14794,0.10299,-2.99840,1.58696,2.88125,0.33935,0.85867,0.32915,0.19795,12.70999,16.19321,0.16601
0.00030,1.46508,-0.53529,-0.99475,1.19633,-0.15199,3.31342,2.27682,0.17600,-2.95205,1.11368,3.41860,0.34679,0.85609,0.34173,0.17339,-2.21112,8.66289,6.47773
-0.01555,1.48237,-0.53499,-1.02876,1.20762,-0.11172,3.13581,2.28039,0.24714,-2.76831,0.73598,3.69787,0.35203,0.85378,0.35201,0.15240,-11.70933,1.26292,8.15074
-0.03185,1.49958,-0.53376,-1.06117,1.21448,-0.06668,3.00065,2.29880,0.32714,-2.73286,0.49358,3.78313,0.35649,0.85134,0.36199,0.13072,-12.85638,-2.36905,7.74297
-0.04912,1.51651,-0.53069,-1.10207,1.21666,-0.00180,2.94565,2.38321,0.43152,-2.48353,-0.20416,4.22266,0.36058,0.84852,0.37249,0.10605,-2.61356,4.17855,8.04386
-0.06659,1.53271,-0.52682,-1.13837,1.20682,0.06419,2.77365,2.39092,0.55081,-1.98805,-1.05002,4.37871,0.36240,0.84675,0.38034,0.08376,-8.10955,0.28180,9.16172
-0.08369,1.54853,-0.52296,-1.15959,1.19197,0.11413,2.60087,2.33067,0.61334,-1.65985,-1.56625,4.15822,0.36405,0.84455,0.38744,0.06402,-13.49541,-6.37598,7.49844
-0.10099,1.56342,-0.51791,-1.17843,1.16543,0.17070,2.44561,2.29240,0.65546,-1.15989,-2.17167,3.90836,0.36569,0.84226,0.39358,0.04438,-11.37313,-4.37963,4.72514
-0.11815,1.57713,-0.51199,-1.19085,1.12534,0.22977,2.32772,2.30875,0.65936,-0.63469,-2.93118,3.41496,0.36846,0.83932,0.39902,0.02377,-7.26581,-1.01286,2.24460
-0.13490,1.58983,-0.50574,-1.19390,1.07578,0.28174,2.22831,2.41876,0.61966,0.02542,-3.28031,3.11191,0.37320,0.83571,0.40288,0.00126,-7.55228,6.12875,-0.27733
-0.15133,1.60244,-0.49952,-1.19068,1.03572,0.32015,2.14106,2.49766,0.59134,0.52366,-3.55445,3.42976,0.37773,0.83171,0.40637,-0.02110,-5.74716,8.12382,-0.44743
-0.16727,1.61350,-0.49167,-1.17976,0.97896,0.37703,1.95407,2.47927,0.54332,1.05976,-3.66626,3.87779,0.38183,0.82855,0.40758,-0.03989,-11.98442,0.33867,-0.83697
-0.18288,1.62460,-0.48364,-1.16623,0.93609,0.42311,1.79973,2.40098,0.49087,1.24726,-3.58207,3.85331,0.38553,0.82509,0.40913,-0.05662,-13.71541,-6.42270,-2.95406
-0.19790,1.63471,-0.47435,-1.14626,0.88606,0.47626,1.69137,2.35786,0.44055,1.55446,-3.51687,3.58225,0.38957,0.82113,0.41056,-0.07364,-9.87687,-4.74589,-2.99889
-0.21230,1.64416,-0.46453,-1.12084,0.83695,0.52615,1.69598,2.40353,0.38037,1.88203,-3.36346,3.32348,0.39488,0.81532,0.41305,-0.09336,-3.44194,2.17568,-3.08550
-0.22588,1.65250,-0.45406,-1.08710,0.78114,0.57772,1.82841,2.55727,0.31150,2.16552,-3.46576,2.91306,0.40165,0.80685,0.41707,-0.11714,6.23620,8.81784,-4.24216
-0.23930,1.66085,-0.44407,-1.05825,0.73912,0.61057,1.94803,2.69455,0.25024,2.67895,-3.59269,2.60987,0.40855,0.79735,0.42108,-0.14147,9.60399,12.55411,-5.35319
-0.25171,1.66799,-0.43361,-1.01982,0.68747,0.64327,1.98392,2.77109,0.17585,3.05133,-4.12984,2.25609,0.41571,0.78773,0.42394,-0.16414,4.86739,9.26378,-5.28693
-0.26310,1.67373,-0.42315,-0.97278,0.62412,0.67031,1.80052,2.68773,0.08726,3.16133,-4.03872,1.43644,0.42241,0.78081,0.42351,-0.18040,-10.69687,-3.38706,-4.19000
-0.27450,1.67969,-0.41323,-0.93679,0.57980,0.68410,1.63071,2.61619,0.05507,2.92777,-3.40441,1.11480,0.42814,0.77452,0.42221,-0.19636,-15.78762,-6.70968,-2.34315
-0.28520,1.68496,-0.40315,-0.89783,0.53505,0.69765,1.48873,2.54315,0.07041,2.71251,-2.96016,0.90269,0.43264,0.76875,0.42056,-0.21210,-11.03356,-6.08445,1.80239
-0.29534,1.68997,-0.39282,-0.85875,0.49517,0.70943,1.41224,2.49988,0.10548,2.86123,-2.69214,0.79205,0.43645,0.76250,0.41925,-0.22879,-6.81357,-3.41941,3.27853
-0.30484,1.69452,-0.38245,-0.81826,0.45629,0.71913,1.37306,2.46690,0.12368,2.99346,-2.89945,0.56967,0.44023,0.75557,0.41832,-0.24559,-2.29690,-2.25387,2.15102
-0.31396,1.69876,-0.37222,-0.78125,0.42188,0.72376,1.34697,2.46792,0.08518,3.03909,-2.83001,0.26749,0.44542,0.74747,0.41727,-0.26226,-2.88195,-1.51991,-0.65930
-0.32146,1.70149,-0.36204,-0.72607,0.36998,0.72525,1.35249,2.54775,0.01406,3.11403,-3.11808,-0.11306,0.45219,0.73747,0.41590,-0.28052,0.88931,5.83213,-3.86595
-0.32900,1.70423,-0.35212,-0.68289,0.32865,0.72166,1.28758,2.57094,-0.05358,3.16919,-2.95597,-0.32029,0.45902,0.72827,0.41340,-0.29670,-5.26747,2.30490,-3.55975
-0.33596,1.70636,-0.34229,-0.63995,0.28698,0.71755,1.22733,2.56475,-0.10816,3.13633,-3.10444,-0.36993,0.46555,0.71906,0.41089,-0.31207,-4.38346,0.59903,-3.63272
-0.34253,1.70833,-0.33253,-0.60193,0.25200,0.71252,1.14204,2.53186,-0.15618,3.35229,-2.84912,-0.42474,0.47208,0.71029,0.40782,-0.32605,-7.29561,-2.35101,-2.81719
-0.34758,1.70926,-0.32269,-0.54806,0.20712,0.70945,1.07524,2.45965,-0.26161,3.39155,-2.82710,-0.06165,0.47948,0.70080,0.40583,-0.33807,-5.44032,-3.11264,-5.48418
-0.35253,1.71001,-0.31278,-0.50374,0.16999,0.70899,1.03183,2.36354,-0.33526,3.06551,-2.49280,-0.09379,0.48601,0.69149,0.40448,-0.34932,-4.53072,-6.27052,-5.99238
-0.35740,1.71079,-0.30286,-0.46926,0.14277,0.70812,1.00607,2.27665,-0.36269,2.72202,-2.13064,-0.11126,0.49158,0.68245,0.40318,-0.36063,-3.52862,-6.48079,-4.30841
-0.36156,1.71108,-0.29295,-0.43153,0.11352,0.70678,0.96683,2.11322,-0.32608,2.09457,-1.70955,-0.25804,0.49487,0.67537,0.40231,-0.37030,-2.11233,-9.92926,1.71441
-0.36580,1.71148,-0.28348,-0.40252,0.09314,0.69935,0.95823,2.07125,-0.30982,1.87063,-1.15154,-0.75355,0.49898,0.66690,0.40065,-0.38176,-2.14689,-6.96588,2.56226
-0.36969,1.71172,-0.27433,-0.37476,0.07465,0.68736,0.95665,2.10311,-0.35921,1.60130,-1.11612,-1.11747,0.50507,0.65637,0.39884,-0.39370,2.87843,-0.33828,-11.92855
-0.37335,1.71216,-0.26567,-0.34967,0.06381,0.67017,0.93807,2.13069,-0.27348,1.84584,-0.79712,-1.42093,0.50860,0.64776,0.39505,-0.40703,0.62522,4.79118,10.33550
-0.37691,1.71236,-0.25728,-0.32829,0.05186,0.65332,0.85252,2.03529,-0.18275,1.56798,-0.93987,-1.19631,0.51108,0.64162,0.39123,-0.41720,-4.38607,-3.96477,6.11295
-0.38049,1.71255,-0.24891,-0.31232,0.04263,0.64002,0.77186,1.88878,-0.06325,1.32897,-0.68801,-1.16274,0.51178,0.63735,0.38763,-0.42615,-5.88008,-12.40229,8.91788
-0.38337,1.71258,-0.24091,-0.28871,0.03270,0.62326,0.75412,1.73929,0.05021,1.52208,-0.54350,-1.01916,0.51103,0.63334,0.38511,-0.43523,-1.48107,-10.13768,8.22186
-0.38620,1.71257,-0.23300,-0.26937,0.02498,0.61014,0.73903,1.62973,0.10798,1.76131,-0.66003,-1.28373,0.51092,0.62870,0.38280,-0.44404,1.03120,-8.62437,5.01662
-0.38794,1.71228,-0.22582,-0.23629,0.01354,0.58585,0.68589,1.47162,0.15409,1.81412,-0.70697,-1.43106,0.51046,0.62548,0.38075,-0.45082,-2.75748,-9.15559,2.18054
-0.38996,1.71200,-0.21856,-0.21526,0.00512,0.56938,0.65406,1.36946,0.18198,1.68234,-0.70672,-1.40655,0.51027,0.62170,0.37864,-0.45799,-2.44725,-8.65881,2.08048
-0.39161,1.71149,-0.21169,-0.19280,-0.00479,0.55106,0.63777,1.25268,0.25165,1.59237,-0.78853,-1.23814,0.50858,0.61904,0.37664,-0.46506,-0.91164,-8.14635,3.19073
-0.39294,1.71077,-0.20482,-0.16988,-0.01606,0.53661,0.63064,1.09157,0.33125,1.85931,-0.84832,-1.01144,0.50548,0.61769,0.37543,-0.47116,-0.24338,-10.34311,6.07151
-0.39397,1.70986,-0.19801,-0.14771,-0.02759,0.52455,0.60742,0.92012,0.38187,1.99079,-1.09364,-1.19673,0.50222,0.61708,0.37479,-0.47594,0.20243,-13.67479,4.08776
-0.39413,1.70851,-0.19187,-0.11650,-0.04361,0.50492,0.55107,0.69173,0.42291,1.84027,-1.01044,-1.25516,0.49834,0.61838,0.37488,-0.47827,-3.09095,-15.05219,2.52049
-0.39427,1.70706,-0.18597,-0.09155,-0.05781,0.48534,0.51205,0.57034,0.42196,1.62972,-0.89353,-1.49414,0.49564,0.61830,0.37461,-0.48136,-2.54273,-10.68473,0.54914
-0.39428,1.70564,-0.18038,-0.07056,-0.06815,0.46569,0.51703,0.58732,0.37260,1.59167,-0.74957,-1.64594,0.49465,0.61548,0.37397,-0.48648,-1.80861,-2.62360,-2.55060
-0.39372,1.70389,-0.17562,-0.04440,-0.08126,0.43700,0.50344,0.64775,0.28778,1.63582,-0.87518,-1.96907,0.49533,0.61137,0.37296,-0.49170,0.03872,4.31513,-5.77646
-0.39309,1.70209,-0.17121,-0.02247,-0.09223,0.40856,0.45040,0.67567,0.21520,1.58879,-0.81502,-2.16789,0.49652,0.60793,0.37151,-0.49585,-3.93099,3.02392,-4.94678
-0.39257,1.70033,-0.16681,-0.00818,-0.09994,0.38763,0.38060,0.66243,0.17280,1.42959,-0.82763,-2.19448,0.49753,0.60554,0.36984,-0.49901,-4.99134,0.92969,-4.47731
-0.39152,1.69831,-0.16349,0.01077,-0.10979,0.35388,0.24200,0.61435,0.13916,0.92824,-0.53230,-2.05147,0.49942,0.60477,0.36716,-0.50003,-8.86599,-3.73824,-1.82306
-0.39067,1.69632,-0.16043,0.02297,-0.11735,0.32189,0.15703,0.66219,0.08884,0.54771,-0.32368,-1.96675,0.50230,0.60204,0.36397,-0.50276,-6.23529,1.71691,-2.30794
-0.38993,1.69446,-0.15752,0.03047,-0.12110,0.29517,0.12444,0.76938,0.03362,0.47244,-0.09475,-1.79060,0.50572,0.59757,0.36053,-0.50712,-4.27984,6.96842,-3.05438
-0.38922,1.69265,-0.15455,0.03560,-0.12309,0.27552,0.12096,0.84832,-0.01782,0.44284,-0.13456,-1.63860,0.50896,0.59264,0.35769,-0.51167,-0.07799,8.22062,-4.78078
-0.38851,1.69101,-0.15217,0.04000,-0.12168,0.24985,0.12998,0.89445,-0.06479,0.16940,0.22641,-1.42088,0.51194,0.58771,0.35539,-0.51595,-0.14199,1.81215,-2.39943
-0.38871,1.68951,-0.14953,0.04101,-0.11784,0.23231,0.14806,0.89408,-0.07431,0.34906,0.25198,-1.33781,0.51385,0.58360,0.35341,-0.52007,1.08675,2.02202,-0.69280
-0.39346,1.68796,-0.14578,0.03236,-0.11372,0.22424,0.11427,0.76062,-0.03346,0.18926,0.40485,-1.06924,0.51422,0.58281,0.35199,-0.52154,-0.74936,-6.24366,0.11009
-0.40010,1.68693,-0.14159,0.01723,-0.10122,0.21886,0.10345,0.50375,0.08635,-0.21111,1.09542,-0.60635,0.51115,0.58573,0.35189,-0.52136,-1.78910,-16.77167,7.25872
-0.40232,1.68629,-0.13826,0.00962,-0.08702,0.21520,0.17581,0.34230,0.18059,-0.30782,1.12023,-0.19994,0.50722,0.58716,0.35252,-0.52316,3.61756,-13.48794,7.04107
-0.40224,1.68579,-0.13529,0.00769,-0.07418,0.21337,0.28246,0.16815,0.25936,0.01844,0.86257,-0.18835,0.50184,0.58881,0.35467,-0.52505,8.48778,-10.85655,5.60402
-0.40199,1.68532,-0.13237,0.00922,-0.06385,0.21121,0.37416,0.02686,0.30203,0.09153,0.68596,-0.12199,0.49647,0.59028,0.35738,-0.52666,6.60371,-12.52129,3.67879
-0.40157,1.68482,-0.12969,0.01379,-0.05727,0.20654,0.47567,-0.03111,0.28105,0.42173,0.32847,-0.47891,0.49207,0.58978,0.36068,-0.52909,7.88484,-4.33043,-0.42402
-0.40103,1.68426,-0.12730,0.01974,-0.05321,0.19823,0.50420,-0.14342,0.28307,0.51472,0.10115,-0.75243,0.48740,0.59108,0.36384,-0.52980,3.89685,-6.04615,-0.87501
-0.40040,1.68365,-0.12517,0.02575,-0.05107,0.18768,0.49041,-0.28916,0.29904,0.37022,0.13653,-0.79545,0.48235,0.59395,0.36701,-0.52902,-0.72991,-11.35303,1.24221
-0.39966,1.68297,-0.12335,0.03213,-0.05059,0.17477,0.51288,-0.33996,0.25403,0.38563,0.05849,-0.94242,0.47843,0.59469,0.37074,-0.52915,1.01597,-5.66766,-2.17253
-0.39888,1.68231,-0.12200,0.03773,-0.05002,0.15742,0.51651,-0.34328,0.19073,0.31519,0.04196,-1.47322,0.47561,0.59455,0.37419,-0.52942,1.52799,-0.58474,-4.84451
-0.39811,1.68174,-0.12105,0.04177,-0.04811,0.13751,0.47842,-0.29878,0.14029,0.29729,0.18816,-1.70683,0.47404,0.59409,0.37624,-0.52989,-2.13628,1.95440,-4.13016
-0.39721,1.68132,-0.12073,0.04718,-0.04401,0.11224,0.44363,-0.20397,0.06607,0.36971,0.43388,-1.81045,0.47392,0.59219,0.37786,-0.53098,-2.91631,6.22132,-4.52479
-0.39612,1.68120,-0.12116,0.05475,-0.03597,0.08027,0.39224,-0.11296,0.00501,0.67403,0.34507,-1.67645,0.47444,0.59018,0.37882,-0.53206,-2.18231,6.97191,-3.49637
-0.39499,1.68098,-0.12115,0.06142,-0.03132,0.06180,0.32802,-0.21639,0.00594,0.56598,0.32808,-1.19914,0.47254,0.59184,0.38107,-0.53030,-4.40999,-5.20250,-0.55832
-0.39376,1.68081,-0.12118,0.06833,-0.02675,0.04705,0.30762,-0.29320,-0.01909,0.37106,0.42903,-0.89002,0.47064,0.59289,0.38420,-0.52856,-3.01112,-7.89006,-1.49595
-0.39672,1.68153,-0.12288,-0.00568,-0.00670,0.00447,0.31333,-0.30989,-0.06642,0.36146,0.44397,-1.14404,0.46934,0.59261,0.38755,-0.52758,0.72087,-1.12369,-3.29183
-0.39598,1.68088,-0.12325,-0.00492,-0.00707,0.00380,0.29420,-0.26668,-0.11528,0.35077,0.82209,-1.26420,0.46925,0.59158,0.38992,-0.52706,-1.29056,0.52057,-3.12207
-0.39467,1.68007,-0.12353,-0.00260,-0.00857,0.00186,0.29997,-0.13684,-0.21085,0.61534,0.93691,-1.28596,0.47102,0.58790,0.39219,-0.52792,0.87689,9.35193,-6.71818
-0.39324,1.67986,-0.12334,-0.00148,-0.00959,0.00087,0.29817,-0.07166,-0.28350,0.83774,1.12884,-0.80817,0.47244,0.58485,0.39487,-0.52805,-0.93996,5.07296,-4.78775
-0.39162,1.68000,-0.12306,-0.00143,-0.01199,0.00067,0.34330,-0.06279,-0.39210,1.12398,1.13968,-0.11685,0.47357,0.58116,0.39966,-0.52749,2.77714,2.63501,-7.29503
-0.38964,1.68061,-0.12287,-0.00295,-0.01480,0.00160,0.41984,-0.13656,-0.48986,1.01832,1.39930,0.44091,0.47335,0.57800,0.40655,-0.52590,4.72458,-4.10175,-7.71376
-0.38700,1.68140,-0.12095,-0.00432,-0.01747,0.00234,0.50966,-0.20097,-0.56085,0.88200,1.90239,0.72169,0.47240,0.57462,0.41408,-0.52458,6.43719,-6.49559,-6.67093
-0.38181,1.68301,-0.11494,-0.00575,-0.02157,0.00281,0.68193,-0.26352,-0.62697,0.85948,2.34919,0.77158,0.46981,0.56988,0.42380,-0.52432,10.48506,-3.98313,-4.63543
-0.37714,1.68458,-0.10880,-0.00844,-0.02428,0.00421,0.81767,-0.39587,-0.64251,1.10863,2.67418,0.86671,0.46551,0.56687,0.43400,-0.52307,10.54855,-6.82494,-1.84906
-0.37309,1.68614,-0.10414,-0.01361,-0.02586,0.00740,0.92420,-0.66264,-0.61665,1.11890,2.79617,1.27040,0.45840,0.56685,0.44587,-0.51937,7.05018,-17.35029,0.77927
-0.36995,1.68746,-0.10047,-0.01868,-0.02727,0.01035,1.01910,-0.92276,-0.59164,1.18499,2.73931,1.53262,0.45004,0.56750,0.45870,-0.51479,6.04681,-22.10950,1.38289
-0.36587,1.68881,-0.09581,-0.02466,-0.03011,0.01309,1.16062,-1.21321,-0.60455,1.50196,2.14957,1.68246,0.43971,0.56809,0.47421,-0.50897,7.88051,-18.92664,-0.55917
-0.36234,1.68948,-0.09165,-0.03001,-0.03343,0.01487,1.29080,-1.45581,-0.66808,1.80479,1.57587,1.59964,0.42959,0.56762,0.49087,-0.50230,9.20964,-16.76593,-4.07827
-0.35837,1.68968,-0.08722,-0.03595,-0.03623,0.01650,1.37930,-1.71300,-0.75646,1.86412,1.07951,1.44408,0.41910,0.56758,0.50866,-0.49343,6.90510,-18.47536,-7.16251
-0.35391,1.68910,-0.08261,-0.04125,-0.03958,0.01687,1.48091,-1.91645,-0.87582,1.84305,0.55296,1.67219,0.40863,0.56611,0.52762,-0.48389,6.31184,-14.98720,-9.00940
-0.34988,1.68798,-0.07837,-0.04546,-0.04306,0.01626,1.60079,-2.06214,-0.98499,1.69242,-0.09121,1.69366,0.39767,0.56332,0.54717,-0.47448,10.63709,-12.01938,-9.06313
-0.34413,1.68589,-0.07218,-0.05131,-0.04719,0.01480,1.75932,-2.26002,-1.10664,1.47066,-0.84084,1.80422,0.38471,0.55988,0.56899,-0.46344,9.88519,-12.05984,-7.67920
-0.33803,1.68272,-0.06477,-0.05861,-0.05068,0.01311,1.89779,-2.51380,-1.23307,1.15652,-1.43318,1.56080,0.37019,0.55668,0.59208,-0.45000,9.71303,-15.38396,-8.47849
-0.33317,1.67949,-0.05777,-0.06397,-0.05283,0.01106,1.98577,-2.68516,-1.34018,0.95976,-1.59091,1.38029,0.35605,0.55281,0.61438,-0.43609,7.01798,-15.07799,-9.29809
-0.32736,1.67547,-0.04906,-0.06965,-0.05469,0.00776,2.06974,-2.84540,-1.47505,0.76303,-1.72245,0.86545,0.34169,0.54793,0.63732,-0.42053,7.79338,-11.93479,-9.80863
-0.32130,1.67087,-0.03973,-0.07411,-0.05542,0.00360,2.12645,-2.94735,-1.59454,0.66502,-1.22463,0.77899,0.32782,0.54224,0.65938,-0.40463,4.95953,-7.45464,-8.73349
-0.31528,1.66604,-0.03006,-0.07731,-0.05599,-0.00156,2.21489,-3.01180,-1.65823,0.33992,-0.73330,0.97177,0.31274,0.53533,0.68116,-0.38941,5.95568,-6.10651,-6.07295
-0.30963,1.66087,-0.01980,-0.07832,-0.05680,-0.00791,2.34524,-3.00085,-1.67170,0.10613,-0.86224,1.15070,0.29712,0.52644,0.70220,-0.37617,8.67033,-1.19683,-0.28451
-0.30459,1.65551,-0.00896,-0.07840,-0.05809,-0.01502,2.51641,-2.96477,-1.66849,0.01527,-1.20672,1.26587,0.28066,0.51541,0.72324,-0.36401,11.53769,1.52869,3.28803
-0.30098,1.65072,0.00066,-0.07881,-0.05898,-0.02126,2.66224,-2.95009,-1.68383,-0.03940,-1.37903,1.27499,0.26382,0.50342,0.74415,-0.35103,12.34281,0.35129,1.91173
-0.29650,1.64415,0.01387,-0.08015,-0.05917,-0.02950,2.82685,-2.95656,-1.75035,0.08103,-1.35735,1.27151,0.24658,0.48934,0.76578,-0.33663,10.76897,-0.70713,-1.39548
-0.29378,1.63850,0.02464,-0.08172,-0.05849,-0.03567,2.93087,-2.97345,-1.83899,0.04227,-1.24835,1.10902,0.22972,0.47498,0.78669,-0.32054,10.06390,-1.91888,-4.80655
-0.28931,1.62930,0.04206,-0.08149,-0.05738,-0.04584,3.13166,-2.91121,-1.92319,-0.05125,-1.07987,0.99586,0.21312,0.45658,0.80788,-0.30570,9.92587,2.37236,-3.04498
-0.28632,1.62049,0.05528,-0.07842,-0.05753,-0.05504,3.38008,-2.77019,-1.92049,-0.10080,-1.06134,0.85909,0.19647,0.43519,0.82799,-0.29401,18.17866,6.81466,3.74148
-0.28420,1.61156,0.06691,-0.07486,-0.05796,-0.06359,3.63432,-2.66457,-1.84968,-0.24711,-0.94458,1.10497,0.17800,0.41205,0.84732,-0.28386,19.60534,6.05551,8.86137
-0.28230,1.59977,0.08167,-0.07107,-0.05808,-0.07410,3.94167,-2.62123,-1.72632,-0.57130,-1.19601,1.06046,0.15640,0.38631,0.86635,-0.27519,19.85627,0.46366,12.72845
-0.28181,1.58634,0.09654,-0.06849,-0.05630,-0.08423,4.18000,-2.70058,-1.59401,-1.06570,-1.75237,0.58643,0.13140,0.36097,0.88431,-0.26540,17.55473,-7.66820,12.09414
-0.28320,1.57169,0.11131,-0.06968,-0.05056,-0.09240,4.24467,-2.94036,-1.59204,-1.34019,-2.30788,0.15596,0.10414,0.33882,0.90113,-0.24966,6.40219,-15.75096,1.15503
-0.28577,1.55590,0.11882,-0.07314,-0.04177,-0.09897,4.19282,-3.23316,-1.73376,-1.62803,-2.65707,-0.22432,0.07659,0.31889,0.91680,-0.22786,-2.99697,-18.16348,-14.67720
-0.28855,1.53651,0.11736,-0.07612,-0.03116,-0.10728,4.19559,-3.49417,-1.96196,-1.34612,-3.12610,-0.07157,0.04883,0.29700,0.93189,-0.20245,-0.19517,-13.19687,-18.26925
-0.29172,1.52056,0.12068,-0.07694,-0.02327,-0.11495,4.29244,-3.63735,-2.13699,-1.41553,-3.78084,-0.49632,0.02157,0.27147,0.94566,-0.17767,8.08579,-9.49607,-16.29651
-0.29694,1.50069,0.13019,-0.07629,-0.01318,-0.12406,4.43961,-3.76459,-2.33004,-1.86439,-4.58463,-1.61048,-0.00629,0.24315,0.95819,-0.15070,12.40850,-7.69492,-13.83165
-0.30522,1.47909,0.14615,-0.07394,-0.00211,-0.13329,4.62047,-3.87942,-2.50157,-2.55609,-5.23359,-2.96854,-0.03489,0.21241,0.96883,-0.12264,13.73802,-6.46493,-12.12925
-0.31587,1.45604,0.16426,-0.06923,0.00965,-0.14262,4.82887,-4.01395,-2.61571,-3.41215,-5.52558,-4.72953,-0.06523,0.17947,0.97705,-0.09438,15.30010,-8.47183,-8.25224
-0.32874,1.43162,0.18064,-0.06145,0.02175,-0.15182,5.05260,-4.18954,-2.64533,-3.96707,-5.37317,-6.24046,-0.09826,0.14455,0.98233,-0.06686,14.69954,-13.09683,-3.56048
-0.34404,1.40604,0.19376,-0.05057,0.03429,-0.16187,5.34438,-4.42301,-2.60666,-4.57025,-4.95484,-7.65574,-0.13471,0.10588,0.98440,-0.03992,16.29277,-17.16267,-1.66086
-0.36199,1.37906,0.20533,-0.03531,0.04690,-0.17220,5.69082,-4.72583,-2.45404,-3.99036,-3.46700,-9.39957,-0.17540,0.06334,0.98233,-0.01565,19.91929,-28.87636,8.87564
-0.38590,1.34701,0.21315,-0.01258,0.06036,-0.17871,5.91873,-5.10701,-2.14129,-3.42218,-0.84593,-11.35381,-0.22008,0.02150,0.97524,0.00388,10.12514,-28.55339,11.01021
-0.40994,1.31883,0.21589,0.01524,0.06795,-0.18216,5.99388,-5.63220,-1.59950,-1.14741,0.46259,-12.85508,-0.27126,-0.01809,0.96222,0.01532,-11.72941,-50.65080,14.71513
-0.43633,1.29127,0.21487,0.04459,0.07238,-0.17758,5.80552,-6.10290,-1.02969,-0.51003,3.40507,-14.46638,-0.32247,-0.05213,0.94491,0.02092,-19.66396,-26.39146,28.14661
-0.46543,1.26599,0.20807,0.07569,0.07567,-0.17064,5.39654,-6.88688,-0.66033,2.34057,6.65760,-17.01327,-0.38408,-0.07813,0.91958,0.02725,-34.05161,-65.36496,-5.15040
-0.49185,1.24717,0.19670,0.09868,0.07957,-0.16004,5.04379,-7.42465,-0.58135,4.61037,8.89238,-16.89713,-0.44180,-0.10175,0.89052,0.03791,-34.31086,-46.37550,-14.82042
-0.52357,1.22838,0.18046,0.11806,0.08470,-0.14151,4.64762,-7.76020,-0.76737,7.00801,10.99329,-14.86644,-0.49555,-0.11973,0.85859,0.05401,-18.58044,-24.52659,-30.49978
-0.55866,1.21195,0.15585,0.13330,0.08614,-0.11503,4.10044,-7.94433,-1.19768,8.51512,13.43373,-12.94313,-0.54560,-0.12776,0.82488,0.07466,-16.12196,0.18757,-38.74321
-0.58725,1.20315,0.13019,0.14671,0.08065,-0.09049,3.49242,-8.22860,-1.67188,11.19283,15.81063,-12.54648,-0.59756,-0.12873,0.78564,0.09554,-18.82001,-2.88982,-53.13359
-0.60605,1.20041,0.10946,0.15772,0.07288,-0.07249,3.03290,-8.51352,-1.96002,14.06066,17.18400,-12.32655,-0.64872,-0.12979,0.74132,0.11295,-21.57927,-11.04011,-56.26904
-0.63457,1.20042,0.07243,0.17725,0.05407,-0.04148,2.23322,-9.11874,-2.34426,19.58955,19.44459,-11.23082,-0.70678,-0.11672,0.68627,0.12599,-27.59570,-23.00131,-52.25734
-0.65598,1.20589,0.03542,0.19408,0.03195,-0.01041,1.47018,-9.85727,-2.83947,18.97762,15.68234,-9.40537,-0.76629,-0.09678,0.62006,0.13771,-42.67607,-30.39701,-61.25758
-0.67408,1.21678,-0.00686,0.20108,0.00338,0.02589,0.60645,-10.37320,-3.35736,33.51633,25.56052,-4.28321,-0.82052,-0.06824,0.54832,0.14638,-7.00306,-62.08238,-74.42998
-0.68737,1.23384,-0.05069,0.18028,-0.02765,0.05766,-0.05442,-10.23250,-4.73606,35.71129,24.37669,1.06210,-0.85861,-0.01834,0.48134,0.17540,14.72788,3.19384,-112.57110
-0.69510,1.25853,-0.09412,0.14651,-0.05080,0.07749,-0.10299,-9.78251,-6.21754,37.71815,24.12761,7.44294,-0.88208,0.03191,0.41535,0.22001,59.67012,16.88575,-81.36271
-0.69788,1.29083,-0.12571,0.10272,-0.07663,0.08851,-0.04348,-9.21749,-7.93018,39.92527,22.54002,15.95994,-0.89259,0.09574,0.34602,0.27276,77.27827,10.30267,-84.55478
-0.69090,1.33891,-0.15977,0.03399,-0.10657,0.08522,0.15611,-8.17766,-10.28913,44.03072,17.74630,26.69943,-0.87906,0.18513,0.27821,0.33998,111.82340,6.31720,-122.62560
-0.67503,1.38211,-0.19889,-0.03012,-0.11692,0.06540,0.72964,-7.00257,-12.18217,47.35351,11.69258,34.11382,-0.84425,0.27196,0.21515,0.40866,151.21070,28.68870,-100.98680
-0.64057,1.44777,-0.24043,-0.11590,-0.11114,0.02890,1.51302,-5.33261,-14.44131,53.24150,-2.05755,44.81651,-0.77512,0.37612,0.15955,0.48194,149.47890,13.47030,-93.58839
-0.60327,1.49902,-0.26301,-0.18306,-0.09098,-0.00018,1.97363,-3.93949,-16.15313,56.71101,-18.15348,55.26764,-0.69018,0.47774,0.09975,0.53428,138.25820,7.83047,-110.98780
-0.54682,1.55744,-0.27828,-0.24997,-0.02511,-0.04435,3.27825,-1.88571,-17.40874,52.39975,-38.47429,70.62678,-0.57026,0.57182,0.06776,0.58587,172.75440,24.96539,-75.42730
-0.48240,1.61278,-0.26130,-0.26461,0.10810,-0.10890,7.04157,-0.53992,-17.64638,43.36035,-53.87841,75.05857,-0.40832,0.60957,0.06327,0.67653,219.63710,-164.28420,-35.06335
-0.40527,1.65838,-0.21649,-0.23905,0.26334,-0.14283,11.06915,0.01854,-18.49156,44.34683,-91.12987,82.27486,-0.19690,0.62195,0.04511,0.75655,141.75910,-230.13920,-122.81080
-0.32777,1.68116,-0.16056,-0.20057,0.40439,-0.11942,14.13435,1.06162,-20.14525,29.03388,-142.28190,73.25668,0.05322,0.62860,0.01750,0.77571,200.96300,-169.31270,-204.21480
0.52371,1.55326,0.16260,8.16338,-3.45784,4.77580,18.87791,3.52832,-23.05381,-24.78909,-217.06910,27.99703,0.38044,0.59782,0.00248,0.70560,234.60420,-66.46938,-264.79500
0.86904,1.40565,0.18999,6.78058,-7.14175,4.61555,25.98732,9.19510,-21.23599,-143.04260,-230.03770,-54.87077,0.68168,0.53114,0.12535,0.48732,378.26830,-245.06960,-238.52960
0.94913,1.21532,0.19721,4.99337,-9.20385,3.86329,34.26147,10.91573,-15.63564,-205.90460,-185.84740,-101.25820,0.86416,0.33252,0.31275,0.21175,399.13420,-302.63460,-626.83950
0.87099,0.98444,0.10721,1.43605,-11.25426,1.70809,46.11419,2.21265,-8.28063,-225.79400,-54.57318,-167.99910,0.83421,-0.13924,0.52606,-0.08929,632.52650,441.10680,-866.46550
0.74096,0.87847,-0.05428,-1.48405,-10.58496,-1.22536,40.32314,-7.73031,-11.55676,-132.44310,124.89190,-148.79430,0.73843,-0.43776,0.50927,-0.06103,84.13477,799.16980,-175.08000
0.67271,0.85335,-0.15071,-2.41218,-8.69217,-2.46176,31.93698,-5.98369,-12.18689,-32.09562,167.85640,-48.43745,0.73897,-0.50492,0.44333,-0.04932,-315.67780,602.73720,324.49870
0.63656,0.86167,-0.18407,-2.54006,-6.71709,-2.41882,22.17053,-3.10049,-8.89644,8.98406,111.12830,40.76352,0.78092,-0.44164,0.44167,0.00660,-625.09230,165.43760,420.00600
0.60586,0.85142,-0.14792,-2.51371,-5.43193,-1.30498,10.82076,-3.64594,-4.19436,-12.62479,44.98688,67.40749,0.77304,-0.30406,0.54230,0.12597,-721.86550,-36.68343,154.05510
0.55153,0.80584,-0.10841,-2.84160,-4.94253,-0.38606,2.29544,-0.26817,-5.41067,-35.51070,30.89816,56.67527,0.77487,-0.24387,0.49629,0.30628,-516.80170,309.30900,-15.63977
0.49187,0.75875,-0.07578,-3.18130,-4.60677,0.20304,-2.18336,3.13013,-6.89989,-20.91920,33.68003,42.66022,0.77129,-0.21303,0.39924,0.44759,-333.68220,555.88300,-93.25505
0.43803,0.73330,-0.04309,-3.46697,-4.13933,0.67929,-4.35327,3.18515,-8.37968,-10.40237,41.72860,26.58200,0.72285,-0.23169,0.34743,0.55054,-181.65700,134.09970,-120.36560
0.38619,0.70987,-0.01728,-3.54773,-3.58515,0.93666,-5.23628,2.23076,-8.57109,-0.08037,41.03672,10.75622,0.67174,-0.25287,0.32814,0.61412,-111.07420,-31.75907,-2.13442
0.34868,0.69531,0.00189,-3.43838,-3.03384,1.00873,-4.69318,1.49383,-7.31050,8.03347,37.25472,-0.89807,0.65091,-0.26205,0.32432,0.63440,-7.66979,-39.20303,82.25937
0.31612,0.68087,0.01503,-3.27126,-2.59124,0.97581,-3.82305,1.56416,-6.17555,9.80689,27.54665,-4.89534,0.64692,-0.26485,0.30667,0.64599,63.06104,-7.54730,82.20338
0.28177,0.66734,0.02583,-3.12902,-2.22033,0.92258,-3.32413,0.99174,-4.94681,8.38523,25.02336,-3.04227,0.63657,-0.26767,0.30944,0.65374,54.89836,-20.72653,87.99813
0.24457,0.65513,0.03764,-3.05487,-1.91374,0.89815,-3.36796,0.40229,-4.16420,3.21909,25.61634,-1.68295,0.61439,-0.27122,0.31601,0.67015,-9.62649,-40.70202,87.33646
0.20702,0.65435,0.04992,-3.00999,-1.48600,0.88595,-3.58224,0.49301,-3.99201,-1.58231,28.34104,-1.04361,0.59005,-0.27157,0.30505,0.69644,-12.92148,-3.97355,41.59895
0.16795,0.65599,0.06034,-2.98385,-1.11298,0.84860,-3.29909,1.69725,-4.55706,2.05471,26.18869,-5.42408,0.57771,-0.26932,0.25264,0.72794,20.62832,67.27891,-65.68880
0.13116,0.66061,0.06642,-2.93541,-0.77174,0.74619,-2.57563,2.57337,-4.96969,4.64620,24.49996,-10.33969,0.57356,-0.27087,0.19734,0.74747,57.40108,47.89627,-50.74657
0.09586,0.66568,0.06870,-2.86680,-0.50561,0.60953,-1.60309,2.91552,-5.25868,6.82111,21.03481,-13.17317,0.57429,-0.28108,0.14521,0.75505,73.24583,13.80528,-45.32856
0.06380,0.67656,0.06447,-2.75476,-0.21113,0.40054,-0.27204,2.42605,-5.37812,8.88121,16.23330,-12.96571,0.58254,-0.30859,0.10465,0.74462,74.63585,-44.64902,-21.22427
0.03471,0.68565,0.06091,-2.61582,-0.00868,0.24849,0.17854,1.03945,-5.06822,12.98338,11.27953,-8.63144,0.57609,-0.34550,0.09591,0.73454,25.77966,-96.77830,3.31743
0.01130,0.69443,0.05942,-2.41258,0.14346,0.16700,-0.46373,-0.62524,-4.12463,16.63057,8.18805,-2.83251,0.55231,-0.37697,0.12239,0.73340,-63.16167,-111.38270,56.40263
-0.00431,0.70319,0.06138,-2.11641,0.25745,0.16175,-1.62920,-1.59586,-2.85318,18.48208,6.18645,2.27698,0.52108,-0.38844,0.16149,0.74264,-95.63648,-53.83354,86.91252
-0.01385,0.71007,0.06704,-1.78136,0.31830,0.21941,-2.09818,-1.19571,-2.14476,21.01803,3.22950,4.35449,0.50198,-0.38323,0.17065,0.75633,-46.56106,22.89583,42.42316
-0.02276,0.71487,0.07314,-1.51331,0.32808,0.27012,-1.93528,-0.50940,-1.80169,21.88779,0.43551,3.39261,0.49477,-0.37559,0.16397,0.76632,13.27193,57.32252,28.54861
-0.02155,0.71682,0.08221,-1.12882,0.28029,0.36150,-1.13672,0.78049,-1.53242,45.46981,-10.22643,9.30533,0.50615,-0.35473,0.13907,0.77372,42.03617,55.28252,21.27626
-0.00842,0.71126,0.09602,-0.65345,0.12160,0.50691,0.30587,2.63513,-0.81228,26.85265,-14.88238,14.99581,0.54562,-0.30854,0.10121,0.77256,136.62910,143.62560,2.64910
-0.00048,0.70394,0.11286,-0.37558,-0.02490,0.66481,1.17415,4.43305,-0.52308,16.64544,-4.23088,3.09448,0.57582,-0.25172,0.05277,0.77607,85.74763,161.43540,20.59539
0.00469,0.70437,0.12254,-0.19799,-0.01082,0.66820,0.70695,4.34873,0.24707,10.93511,4.58591,-2.23069,0.58007,-0.21780,0.05302,0.78312,3.09914,2.12189,62.16679
0.00816,0.70861,0.12902,-0.09375,0.06088,0.61906,-0.04717,3.93679,-0.25544,5.81070,6.32197,-5.25850,0.56271,-0.20936,0.03811,0.79880,-97.62339,-35.29263,-6.35602
0.01068,0.71275,0.13322,-0.03073,0.11345,0.54535,-0.14692,3.56197,-0.71035,3.94348,2.62268,-5.83375,0.55608,-0.20498,0.01773,0.80526,-16.08847,-21.93078,-31.61903
0.01295,0.71582,0.13570,0.02227,0.14057,0.45655,-0.31886,2.99491,-0.87279,3.45507,0.46502,-5.63463,0.54877,-0.20382,0.00724,0.81071,-14.94050,-35.17214,-9.11199
0.01524,0.71738,0.13840,0.06071,0.13587,0.39293,-0.38895,2.59653,-0.89395,3.46309,-1.27766,-5.31802,0.54380,-0.20013,-0.00187,0.81500,-10.96403,-33.93343,-1.20667
0.01870,0.71725,0.13988,0.10778,0.10467,0.32575,-0.44768,2.17534,-0.74783,3.72480,-3.22113,-4.65988,0.53984,-0.19676,-0.00504,0.81843,-4.98440,-30.73479,7.22975
0.02295,0.71507,0.14062,0.16396,0.05132,0.26035,-0.61554,1.67173,-0.26418,4.10369,-3.83463,-3.75016,0.53564,-0.19139,0.00438,0.82246,-4.64812,-29.82204,28.53379
0.02812,0.71257,0.14136,0.22124,0.00351,0.20899,-0.86832,1.25317,0.31887,4.70178,-3.40168,-3.70766,0.52945,-0.18321,0.02010,0.82808,-14.79792,-30.53591,43.32244
0.03512,0.70968,0.14111,0.29044,-0.04268,0.15495,-1.00677,0.97606,0.88590,5.13559,-2.98371,-3.95595,0.52492,-0.17208,0.03769,0.83272,-8.72454,-20.95318,44.91463
0.04294,0.70590,0.13979,0.36302,-0.08510,0.09490,-0.94727,0.84701,1.28954,5.37441,-2.45750,-4.74016,0.52401,-0.15951,0.05231,0.83500,1.95524,-10.07383,33.58562
0.05210,0.70205,0.13711,0.44011,-0.11853,0.02581,-0.70900,0.84518,1.54468,5.73920,-1.58756,-5.26405,0.52747,-0.14566,0.06291,0.83463,15.49956,0.00220,19.79874
0.06278,0.69884,0.13319,0.52168,-0.13720,-0.04720,-0.31673,1.03943,1.51844,5.61925,-0.29965,-5.14274,0.53503,-0.13083,0.06399,0.83218,23.42141,10.39319,5.39187
0.07517,0.69576,0.12795,0.61855,-0.14549,-0.12733,0.34336,1.59074,1.03501,6.24422,0.05871,-4.88846,0.54944,-0.11409,0.04582,0.82644,36.00130,34.87714,-30.82561
0.08723,0.69342,0.12341,0.68139,-0.14347,-0.17491,0.73804,2.01547,0.70079,6.52376,0.41140,-4.61699,0.56124,-0.09640,0.02845,0.82153,35.57595,44.24389,-38.73000
0.10230,0.69184,0.11703,0.77999,-0.12785,-0.24182,1.17997,2.67541,0.25712,6.24441,1.18000,-3.78554,0.57557,-0.07339,-0.00005,0.81445,25.07705,44.48656,-31.00478
0.11700,0.69086,0.11130,0.84927,-0.10754,-0.28301,1.30551,3.11147,0.03664,5.95691,1.68360,-3.24383,0.58440,-0.04989,-0.02333,0.80960,12.80006,41.82286,-22.34551
0.13245,0.69067,0.10534,0.91236,-0.07992,-0.31732,1.23921,3.41566,-0.02373,5.41302,2.27169,-2.69157,0.58898,-0.02503,-0.04292,0.80662,-1.12154,30.58995,-7.76388
0.14956,0.69196,0.09872,0.98673,-0.03618,-0.35386,0.94155,3.65682,0.04094,4.43421,2.74251,-2.15473,0.58709,0.00197,-0.05906,0.80737,-16.01419,16.38287,8.36891
0.16658,0.69366,0.09216,1.04634,0.00723,-0.38315,0.55800,3.78768,0.15006,3.44709,2.63517,-1.82526,0.58121,0.02822,-0.07242,0.81003,-22.04277,8.05024,13.29053
0.18287,0.69495,0.08583,1.07739,0.03089,-0.40083,0.34991,3.85067,0.18983,3.02754,2.35569,-1.97237,0.57689,0.05265,-0.08650,0.81052,-20.62303,6.71555,11.83783
0.20052,0.69721,0.07830,1.12150,0.06257,-0.43207,0.09232,3.91929,0.25536,2.66630,1.81719,-2.15887,0.56945,0.07803,-0.10006,0.81218,-15.57504,4.53235,7.49280
0.21804,0.69936,0.07044,1.15547,0.08728,-0.46241,-0.09201,3.95449,0.33517,2.40259,1.81072,-2.35886,0.56208,0.10325,-0.11261,0.81285,-11.58033,1.92723,8.75376
0.23617,0.70197,0.06152,1.19163,0.11399,-0.50368,-0.27270,4.02133,0.40323,2.17304,1.58641,-2.84305,0.55312,0.12930,-0.12573,0.81334,-10.85031,3.84660,6.86667
0.25449,0.70487,0.05160,1.22202,0.13855,-0.55283,-0.41900,4.07823,0.52918,1.72813,1.51797,-3.42161,0.54340,0.15647,-0.13729,0.81326,-7.62307,4.49942,8.83303
0.27242,0.70778,0.04137,1.23867,0.15751,-0.59550,-0.49551,4.08125,0.67098,1.22134,1.61745,-3.91087,0.53406,0.18333,-0.14688,0.81215,-4.43450,1.32436,12.92890
0.29036,0.71121,0.02963,1.25119,0.18040,-0.65282,-0.51874,4.07908,0.86136,0.61884,1.73401,-4.46196,0.52476,0.21140,-0.15414,0.81005,0.06474,0.25906,13.52610
0.30772,0.71547,0.01628,1.25264,0.21069,-0.72640,-0.47317,4.10265,1.03610,-0.48975,2.19681,-4.83517,0.51622,0.24048,-0.16070,0.80614,5.80096,1.05001,11.68762
0.32439,0.71986,0.00284,1.24173,0.23611,-0.78426,-0.40363,4.13297,1.07903,-1.37533,2.32736,-4.97249,0.50833,0.26827,-0.16942,0.80058,5.97556,3.74175,4.08408
