posX, posY, posZ, velX, velY, velZ, angVelX, angVelY, angVelZ, accX, accY, accZ, rotX, rotY, rotZ, rotW, angAccX, angAccY, angAccZ
0.35730,1.22720,-0.39738,-0.39580,0.86173,-0.79127,2.72356,1.36781,1.03608,-3.28288,2.49455,-1.96404,0.17926,0.77104,0.05081,0.60892,2.06304,7.97321,1.47943
0.34950,1.24091,-0.40963,-0.43671,0.89102,-0.81217,2.80330,1.50438,1.05401,-3.62670,2.36209,-1.66154,0.18672,0.77936,0.06956,0.59405,5.33580,11.06965,2.66537
0.34048,1.25515,-0.42212,-0.48783,0.92241,-0.83182,2.87752,1.66122,1.06731,-3.88700,2.20953,-1.04097,0.19440,0.78809,0.08835,0.57734,6.97661,12.42531,2.75144
0.33072,1.26953,-0.43455,-0.54057,0.94915,-0.84560,2.78008,1.74328,1.04108,-3.98261,1.85926,-0.60742,0.20002,0.79582,0.10307,0.56217,-3.84026,7.54459,0.73622
0.32057,1.28394,-0.44674,-0.58615,0.96972,-0.85207,2.68454,1.80219,1.00122,-3.89362,1.58717,-0.52640,0.20560,0.80302,0.11674,0.54705,-11.25651,3.59008,-1.37508
0.30884,1.29892,-0.45882,-0.64792,0.99485,-0.85535,2.66415,1.94414,0.96569,-3.97603,1.51346,-0.02413,0.21234,0.81118,0.13099,0.52891,-1.90131,8.53194,-0.50823
0.29678,1.31390,-0.47059,-0.70270,1.01482,-0.85244,2.60167,2.05784,0.93525,-4.10660,1.37767,0.54868,0.21835,0.81903,0.14403,0.51065,-3.52224,9.10498,-0.25321
0.28472,1.32881,-0.48211,-0.74206,1.02810,-0.84628,2.52504,2.11764,0.90841,-4.08331,1.34749,0.84748,0.22379,0.82610,0.15628,0.49301,-7.34169,6.46476,-0.06627
0.27014,1.34457,-0.49261,-0.81272,1.05203,-0.82502,2.41957,2.22513,0.86680,-3.96984,1.30310,1.57581,0.22904,0.83378,0.16653,0.47394,-6.76841,5.45238,-0.06768
0.25580,1.36027,-0.50233,-0.86599,1.07057,-0.79503,2.38420,2.30448,0.84047,-3.88268,1.32000,2.72475,0.23487,0.84066,0.17802,0.45436,-3.71061,6.87723,-0.75619
0.24074,1.37619,-0.51076,-0.91800,1.08814,-0.75045,2.38125,2.33085,0.81162,-3.77016,1.17930,3.66310,0.24104,0.84634,0.19010,0.43528,-1.26296,2.63214,-1.34535
0.22455,1.39240,-0.51730,-0.97601,1.10574,-0.68487,2.50270,2.35870,0.79290,-3.58411,0.96989,4.35422,0.24876,0.85088,0.20504,0.41483,5.50384,2.35511,-2.02335
0.20854,1.40837,-0.52354,-1.01741,1.11552,-0.62960,2.62425,2.40296,0.78790,-3.36531,0.66433,4.85852,0.25657,0.85493,0.22060,0.39319,10.80735,3.79806,-1.51824
0.19178,1.42429,-0.52812,-1.06035,1.12162,-0.56059,2.66756,2.39741,0.75296,-2.92388,0.15171,5.37400,0.26414,0.85801,0.23472,0.37277,5.44525,2.05598,-1.65083
0.17492,1.43990,-0.53139,-1.09616,1.12176,-0.48603,2.65226,2.33867,0.68642,-2.37454,-0.17126,5.52247,0.27160,0.85997,0.24729,0.35430,-2.11877,-3.23840,-4.66883
0.15795,1.45512,-0.53337,-1.12548,1.11543,-0.40739,2.67199,2.27723,0.59454,-1.88300,-0.63530,5.68665,0.28025,0.86072,0.26018,0.33605,0.44383,-3.05021,-7.00563
0.14098,1.46999,-0.53420,-1.14748,1.10450,-0.32792,2.74221,2.25241,0.49072,-1.40594,-0.94813,5.58529,0.29033,0.86047,0.27375,0.31680,2.01849,-1.77972,-7.77518
0.12408,1.48430,-0.53407,-1.16450,1.08836,-0.25015,2.85748,2.27478,0.39189,-1.09917,-1.30025,5.55331,0.30164,0.85932,0.28821,0.29584,7.18656,2.72730,-8.08730
0.10721,1.49820,-0.53300,-1.17722,1.06904,-0.17473,2.97033,2.32233,0.29570,-0.86331,-1.44892,5.32519,0.31365,0.85737,0.30262,0.27378,7.18641,4.30916,-7.20338
0.09023,1.51169,-0.53105,-1.18809,1.04716,-0.10211,3.07800,2.39936,0.22154,-0.69528,-1.69181,5.22370,0.32590,0.85481,0.31699,0.25020,7.13496,6.90055,-6.01401
0.07335,1.52440,-0.52790,-1.19620,1.01901,-0.02325,3.09409,2.42308,0.15119,-0.35030,-1.82644,4.99508,0.33733,0.85176,0.32967,0.22811,1.92659,3.07937,-4.62667
0.05659,1.53715,-0.52503,-1.19990,0.99728,0.03205,3.00672,2.38867,0.13037,-0.27220,-1.85922,4.77705,0.34636,0.84906,0.34042,0.20796,-4.44688,0.35054,-2.10936
0.03938,1.54912,-0.52100,-1.20935,0.96726,0.09197,2.77665,2.15683,0.08879,-1.16535,-2.78690,3.51433,0.35287,0.84590,0.34900,0.19527,-6.39956,-23.08782,-5.29178
0.02264,1.56127,-0.51695,-1.20869,0.94736,0.13897,2.39338,2.20461,0.22500,0.84660,-0.79408,3.26324,0.35543,0.84824,0.35057,0.17681,-36.98412,11.12290,11.95133
0.00624,1.57313,-0.51244,-1.20299,0.92680,0.18279,2.20406,2.22930,0.27669,-0.18424,-1.69123,2.72540,0.35985,0.84835,0.35464,0.15823,-16.47238,-3.54574,7.72242
-0.01054,1.58419,-0.50712,-1.20357,0.89679,0.22927,2.22366,2.43260,0.32775,0.18726,-1.86118,2.76430,0.36667,0.84716,0.36086,0.13290,0.58668,10.68566,4.72729
-0.02686,1.59505,-0.50146,-1.19593,0.87011,0.27118,2.26646,2.62504,0.37559,0.79134,-2.03445,3.33067,0.37359,0.84520,0.36716,0.10608,3.83050,15.63653,5.21035
-0.04299,1.60555,-0.49527,-1.18727,0.84397,0.31139,2.20518,2.67838,0.42748,0.95872,-2.56056,3.82278,0.37857,0.84352,0.37198,0.08239,0.21758,8.54682,4.98351
-0.05857,1.61484,-0.48729,-1.17111,0.80322,0.37042,1.95318,2.54091,0.50411,1.33936,-2.73911,3.97395,0.37986,0.84371,0.37366,0.06514,-13.62601,-7.63098,5.79337
-0.07384,1.62370,-0.47886,-1.15331,0.76417,0.42363,1.70247,2.33113,0.57147,1.33182,-2.89447,3.68045,0.37964,0.84418,0.37500,0.05117,-17.96529,-16.23545,6.45507
-0.08845,1.63156,-0.46952,-1.12829,0.71675,0.48072,1.56012,2.16275,0.61741,1.73704,-2.84188,3.22958,0.37959,0.84383,0.37748,0.03689,-10.87988,-12.77328,3.45649
-0.10282,1.63942,-0.46045,-1.10509,0.68089,0.51964,1.55197,2.11722,0.61793,1.91963,-3.06309,3.00987,0.38148,0.84182,0.38134,0.01968,-1.61855,-5.83831,0.62978
-0.11648,1.64625,-0.45073,-1.07617,0.63715,0.55943,1.54840,2.07408,0.60743,2.22548,-3.18112,2.67039,0.38343,0.83937,0.38526,0.00278,0.78475,-3.23656,-1.14847
-0.12957,1.65244,-0.44082,-1.04441,0.59268,0.59328,1.50215,2.01810,0.59804,2.35838,-3.36040,2.22081,0.38501,0.83716,0.38828,-0.01306,-1.91007,-3.36223,-0.99120
-0.14697,1.65699,-0.43838,-1.02824,0.54969,0.60421,1.40061,1.96228,0.59384,2.54648,-3.27830,1.52035,0.38614,0.83568,0.38959,-0.02746,-6.77755,-5.12376,0.02309
-0.16468,1.66094,-0.43708,-1.00871,0.50733,0.60559,1.28617,1.96409,0.55558,2.95726,-3.27226,1.19565,0.38855,0.83409,0.38929,-0.04211,-8.71860,-0.88338,-0.89195
-0.18002,1.66466,-0.43285,-0.97852,0.46309,0.61212,1.20293,1.97280,0.48480,3.28882,-3.41310,1.33598,0.39205,0.83174,0.38896,-0.05668,-6.51074,1.24898,-3.26155
-0.18704,1.66867,-0.41789,-0.91886,0.41322,0.64101,1.10928,1.93672,0.38007,3.49241,-3.53485,1.22740,0.39657,0.82892,0.38827,-0.06976,-7.01819,-1.42143,-6.29255
-0.19308,1.67196,-0.40302,-0.85793,0.36447,0.66660,1.04437,1.91442,0.26329,3.34036,-3.19369,0.80650,0.40197,0.82543,0.38765,-0.08253,-7.10783,-2.58325,-7.69271
-0.19991,1.67419,-0.39046,-0.79909,0.31374,0.68251,1.07548,2.02830,0.13573,3.11606,-2.97343,0.26070,0.40939,0.82004,0.38752,-0.09886,-0.04162,5.91593,-7.87032
-0.20857,1.67603,-0.38041,-0.75476,0.27287,0.68482,1.10099,2.18754,0.04612,3.34590,-2.83772,-0.15285,0.41712,0.81417,0.38658,-0.11700,2.06201,12.69631,-6.57951
-0.21680,1.67772,-0.37081,-0.71543,0.23970,0.68071,1.06241,2.30471,-0.01615,3.38399,-2.79430,-0.65064,0.42465,0.80875,0.38412,-0.13438,-1.84510,10.21295,-4.07258
-0.22398,1.67868,-0.36175,-0.66885,0.20152,0.66928,1.00517,2.46521,-0.09219,3.35686,-2.75791,-1.15212,0.43362,0.80267,0.37994,-0.15278,-4.66398,11.21142,-4.34234
-0.23021,1.67889,-0.35310,-0.61637,0.15870,0.64883,0.84937,2.58207,-0.15048,3.33541,-2.68783,-1.54664,0.44275,0.79750,0.37306,-0.16970,-8.61653,9.56943,-2.76308
-0.23672,1.67932,-0.34482,-0.58184,0.12955,0.63024,0.63316,2.55258,-0.10006,2.94362,-2.45159,-1.61588,0.44854,0.79495,0.36499,-0.18342,-14.49600,1.37955,2.85104
-0.24271,1.67927,-0.33702,-0.54813,0.09962,0.61010,0.31218,2.38048,0.07510,2.39346,-1.90478,-1.26298,0.44995,0.79668,0.35443,-0.19293,-21.50012,-10.38594,14.10928
-0.24831,1.67902,-0.32857,-0.51646,0.07316,0.60303,0.16009,2.21099,0.25790,2.21605,-1.62048,-0.17691,0.44933,0.79807,0.34627,-0.20316,-14.23091,-14.03988,16.06093
-0.25330,1.67824,-0.31932,-0.48210,0.04382,0.61131,0.20519,2.05596,0.36364,2.64554,-2.26601,0.75273,0.44853,0.79715,0.34254,-0.21458,3.04637,-9.88618,8.56869
-0.25717,1.67657,-0.30961,-0.43721,0.00602,0.62645,0.30182,1.85343,0.39011,2.65539,-2.20169,0.89129,0.44781,0.79531,0.34161,-0.22416,4.89086,-14.30412,2.11412
-0.26109,1.67502,-0.29991,-0.40383,-0.02082,0.63770,0.49210,1.81338,0.34698,2.50818,-1.90006,0.59588,0.44909,0.79051,0.34220,-0.23730,12.25385,-7.16718,-3.78766
-0.26431,1.67315,-0.29036,-0.36776,-0.04642,0.64367,0.70530,1.80096,0.32384,2.58606,-1.99243,0.04082,0.44980,0.78469,0.34417,-0.25196,17.76068,1.20341,-5.60028
-0.26720,1.67090,-0.28142,-0.33443,-0.07226,0.63943,0.74996,1.69099,0.34444,2.38001,-2.03912,-0.62601,0.44920,0.78133,0.34434,-0.26299,6.23406,-6.14474,-0.31100
-0.26970,1.66827,-0.27295,-0.30371,-0.09810,0.62744,0.71067,1.56222,0.38528,1.93197,-1.83638,-1.18441,0.44796,0.77945,0.34310,-0.27215,-1.68049,-10.12437,2.53254
-0.27213,1.66545,-0.26520,-0.27812,-0.12128,0.60779,0.59969,1.42533,0.46350,1.65080,-1.57803,-1.70156,0.44577,0.77932,0.34007,-0.27983,-5.63680,-9.56469,5.02214
-0.27451,1.66246,-0.25844,-0.25502,-0.14222,0.57837,0.48810,1.33917,0.54786,1.06887,-1.03304,-1.98299,0.44337,0.77961,0.33590,-0.28776,-7.63791,-8.38231,6.48644
-0.27670,1.65955,-0.25225,-0.23334,-0.15746,0.54515,0.45475,1.38718,0.55757,1.41771,-0.70432,-2.21455,0.44296,0.77755,0.33181,-0.29852,-2.69732,2.34770,2.21088
-0.27882,1.65680,-0.24613,-0.21454,-0.16692,0.51961,0.45127,1.46914,0.51149,1.49728,-0.81391,-2.06039,0.44401,0.77405,0.32798,-0.31004,-1.23138,5.67348,-1.88945
-0.27387,1.65437,-0.23930,-0.17712,-0.17563,0.49570,0.44523,1.54241,0.43703,1.75090,-0.78804,-1.98098,0.44615,0.76973,0.32411,-0.32160,-1.00451,7.09965,-5.51937
-0.26596,1.65200,-0.23314,-0.12619,-0.18463,0.46510,0.41716,1.61815,0.32200,1.73643,-0.54616,-1.89708,0.44997,0.76453,0.31987,-0.33273,-2.61851,5.07295,-6.75404
-0.26242,1.64942,-0.22782,-0.09210,-0.18967,0.43900,0.36367,1.63645,0.25701,1.71959,-0.34800,-1.87349,0.45304,0.76026,0.31530,-0.34257,-3.54276,2.62850,-5.06427
-0.26254,1.64663,-0.22299,-0.07290,-0.19212,0.41785,0.30511,1.62041,0.23508,1.66104,-0.13602,-1.66317,0.45529,0.75678,0.31049,-0.35155,-5.39078,-0.49108,-1.95594
-0.26197,1.64387,-0.21864,-0.04670,-0.19360,0.39381,0.24335,1.57567,0.18500,1.67906,0.01511,-1.41550,0.45814,0.75328,0.30602,-0.35919,-4.43706,-3.03646,-2.51817
-0.26128,1.64121,-0.21415,-0.02429,-0.19298,0.37728,0.22474,1.53186,0.13684,1.58345,0.18957,-0.95867,0.46081,0.74939,0.30243,-0.36690,-2.88936,-2.75062,-3.55764
-0.26054,1.63870,-0.20946,-0.00657,-0.19002,0.36801,0.22534,1.45076,0.11412,1.53550,0.34148,-0.69617,0.46253,0.74597,0.29972,-0.37385,0.36738,-4.64821,-2.98676
-0.25943,1.63656,-0.20478,0.01298,-0.18169,0.36093,0.25362,1.36103,0.09829,1.24263,0.90711,-0.30192,0.46361,0.74263,0.29802,-0.38046,0.13848,-8.23918,-1.00166
-0.25809,1.63490,-0.19984,0.03199,-0.16727,0.35959,0.36629,1.30632,0.07080,1.15892,0.99156,0.04915,0.46420,0.73794,0.29832,-0.38855,6.91992,-2.47554,-2.73165
-0.25683,1.63346,-0.19475,0.04552,-0.15241,0.36105,0.43964,1.17837,0.11377,1.00073,1.03629,0.11659,0.46269,0.73518,0.29875,-0.39518,6.33014,-7.11295,0.83204
-0.25558,1.63211,-0.18958,0.05551,-0.13976,0.36334,0.50174,1.05300,0.15798,0.78700,1.03840,0.21104,0.46051,0.73289,0.29958,-0.40132,5.10562,-11.05206,3.74817
-0.25409,1.63109,-0.18436,0.06733,-0.12455,0.36610,0.57152,0.87489,0.21910,0.73308,0.93324,0.22798,0.45668,0.73173,0.30174,-0.40615,4.36573,-11.67859,3.37686
-0.25255,1.63003,-0.17890,0.07723,-0.11345,0.37222,0.66126,0.72295,0.23887,0.66371,0.68788,0.62230,0.45295,0.72999,0.30509,-0.41094,5.82671,-9.76922,1.27087
-0.25104,1.62904,-0.17319,0.08441,-0.10361,0.38095,0.73285,0.52326,0.29645,0.47864,0.71641,0.55683,0.44747,0.72975,0.30915,-0.41433,6.30808,-13.31458,2.49768
-0.24962,1.62840,-0.16738,0.08852,-0.09007,0.38951,0.81416,0.27514,0.37828,0.05752,0.95358,0.53783,0.43997,0.73088,0.31454,-0.41629,5.04593,-16.92703,4.79473
-0.24831,1.62776,-0.16164,0.08984,-0.07972,0.39479,0.89917,0.17106,0.39241,-0.08384,0.88285,0.36712,0.43397,0.73008,0.31981,-0.41997,7.11566,-11.34876,2.13753
-0.24708,1.62726,-0.15600,0.08952,-0.06977,0.39709,0.97546,0.11535,0.39004,-0.07669,0.77031,0.09148,0.42827,0.72862,0.32520,-0.42419,7.07863,-4.52137,-0.79170
-0.24595,1.62710,-0.15053,0.08746,-0.05632,0.39615,1.04347,0.02196,0.38856,-0.25193,0.68662,-0.13543,0.42192,0.72768,0.33141,-0.42735,3.67640,-6.08555,-0.38984
-0.24492,1.62675,-0.14522,0.08436,-0.04905,0.39254,1.07432,0.00306,0.37102,-0.37276,0.51764,-0.41168,0.41670,0.72604,0.33661,-0.43119,3.06417,-3.61236,-1.84988
-0.24394,1.62640,-0.14019,0.08108,-0.04360,0.38531,1.09505,-0.02379,0.34068,-0.11125,0.12072,-0.59179,0.41175,0.72426,0.34211,-0.43459,2.46314,-0.01799,-2.10113
-0.24299,1.62583,-0.13526,0.07817,-0.04312,0.37821,1.06342,-0.12147,0.33934,-0.18178,-0.16634,-0.69274,0.40612,0.72424,0.34727,-0.43583,-0.81216,-5.54578,-1.25378
-0.24230,1.62510,-0.13081,0.07167,-0.04522,0.36485,0.95551,-0.31769,0.35414,-0.55222,-0.19488,-0.99140,0.39997,0.72685,0.35194,-0.43342,-5.74654,-12.54681,0.27109
-0.24188,1.62435,-0.12666,0.06197,-0.04710,0.34952,0.82857,-0.43967,0.36865,-0.98796,-0.10761,-1.12246,0.39457,0.72957,0.35518,-0.43116,-8.61293,-11.24504,0.63819
-0.24169,1.62367,-0.12270,0.05119,-0.04747,0.33487,0.73801,-0.41691,0.33915,-1.21367,0.14513,-1.15768,0.39120,0.73022,0.35758,-0.43113,-8.65003,-3.38926,-0.88255
-0.24190,1.62316,-0.11924,0.03619,-0.04494,0.31532,0.69024,-0.17769,0.22098,-1.10190,0.34536,-1.22372,0.39205,0.72656,0.35898,-0.43536,-3.57367,13.56996,-6.32154
-0.24224,1.62289,-0.11599,0.02226,-0.03903,0.29652,0.66984,0.07787,0.11376,-0.97224,0.54049,-1.47275,0.39376,0.72155,0.36012,-0.44118,-1.76618,18.91951,-7.53270
-0.24281,1.62281,-0.11317,0.00780,-0.03137,0.27501,0.60669,0.27427,0.05402,-0.94601,0.45052,-1.70469,0.39563,0.71724,0.35997,-0.44661,-3.02653,15.16891,-6.65677
-0.24364,1.62291,-0.11094,-0.00780,-0.02254,0.24824,0.48320,0.44755,0.07750,-0.72472,0.35793,-1.70527,0.39711,0.71430,0.35695,-0.45240,-7.06050,13.19970,2.56968
-0.24442,1.62291,-0.10876,-0.01914,-0.01732,0.22668,0.32868,0.43770,0.13594,-0.56283,0.26488,-1.49408,0.39702,0.71431,0.35396,-0.45480,-10.07026,1.96378,3.38990
-0.24521,1.62287,-0.10663,-0.02793,-0.01397,0.20946,0.18457,0.36646,0.18654,-0.58105,0.29252,-1.01961,0.39645,0.71559,0.35107,-0.45553,-11.60767,-6.05243,5.09207
-0.24593,1.62279,-0.10433,-0.03351,-0.01196,0.19920,0.11104,0.34066,0.20371,-0.49045,0.24467,-0.71200,0.39617,0.71584,0.34888,-0.45706,-7.28844,-3.26214,2.08593
-0.24664,1.62276,-0.10203,-0.03734,-0.00972,0.19156,0.08214,0.35908,0.20380,-0.14889,0.26314,-0.32697,0.39620,0.71515,0.34694,-0.45957,-3.84069,0.02429,1.17374
-0.24696,1.62266,-0.09954,-0.03382,-0.00926,0.18863,0.11666,0.46642,0.14021,0.50917,-0.05031,-0.07072,0.39779,0.71180,0.34598,-0.46411,1.93422,6.59909,-3.48923
-0.24691,1.62244,-0.09691,-0.02516,-0.01087,0.18884,0.14333,0.50385,0.07957,1.05312,-0.19306,0.07444,0.39918,0.70885,0.34575,-0.46759,2.11955,5.92534,-4.91557
-0.24623,1.62205,-0.09427,-0.00878,-0.01472,0.19294,0.16568,0.40391,0.02308,1.22901,-0.31746,0.34379,0.39946,0.70753,0.34723,-0.46826,1.30031,-4.64250,-3.93615
-0.24547,1.62166,-0.09165,0.00461,-0.01780,0.19746,0.17759,0.26930,0.00755,1.12304,-0.23915,0.49089,0.39856,0.70745,0.34894,-0.46786,0.95574,-10.45758,-2.08277
-0.24447,1.62126,-0.08894,0.01841,-0.02020,0.20309,0.20178,0.09580,0.01988,0.85168,-0.09675,0.44465,0.39616,0.70854,0.35152,-0.46633,1.49206,-12.35460,0.05197
-0.24333,1.62106,-0.08579,0.03296,-0.01873,0.20913,0.25545,0.00766,0.01515,0.82021,0.35736,0.38489,0.39399,0.70850,0.35445,-0.46601,2.44955,-8.08085,0.92179
-0.24208,1.62105,-0.08270,0.04613,-0.01443,0.21194,0.33183,0.06739,-0.04051,1.06018,0.51250,0.17185,0.39383,0.70557,0.35735,-0.46836,6.09553,1.91656,-3.81083
-0.24019,1.62146,-0.07977,0.06684,-0.00435,0.21160,0.42464,0.15695,-0.13801,1.53815,0.72917,-0.12859,0.39483,0.70094,0.36120,-0.47152,6.18074,7.14620,-5.63455
-0.23798,1.62210,-0.07684,0.08831,0.00743,0.21135,0.49414,0.12885,-0.21015,1.72364,0.93609,0.00448,0.39478,0.69773,0.36604,-0.47259,4.29675,0.53415,-5.51766
-0.23524,1.62314,-0.07378,0.11403,0.02350,0.21329,0.58279,0.01759,-0.27641,1.69713,1.11296,0.14845,0.39350,0.69524,0.37277,-0.47206,5.14597,-6.30122,-4.70851
-0.23231,1.62437,-0.07068,0.13717,0.03913,0.21563,0.66087,-0.12452,-0.33560,1.69649,1.12757,0.10276,0.39161,0.69329,0.38043,-0.47039,5.62034,-9.32995,-4.28283
-0.22910,1.62591,-0.06767,0.15973,0.05645,0.21558,0.70680,-0.30037,-0.39078,1.63398,1.33748,-0.15852,0.38932,0.69223,0.38872,-0.46706,4.29669,-12.22122,-4.13112
-0.22554,1.62790,-0.06491,0.18288,0.07726,0.21137,0.74699,-0.40167,-0.46631,1.53057,1.66285,-0.32314,0.38791,0.69030,0.39716,-0.46397,2.01727,-9.91348,-5.31545
-0.22160,1.63042,-0.06238,0.20702,0.10232,0.20427,0.81757,-0.38879,-0.57117,1.72915,2.05465,-0.55486,0.38788,0.68609,0.40600,-0.46260,4.80054,-0.28603,-6.99257
-0.21710,1.63352,-0.05999,0.23486,0.13116,0.19648,0.89669,-0.33388,-0.68399,2.26871,2.05340,-0.49573,0.38864,0.68049,0.41522,-0.46204,5.85062,4.55156,-7.25298
-0.21194,1.63687,-0.05758,0.26756,0.15749,0.19086,0.98548,-0.36012,-0.81941,2.63586,1.76395,-0.39908,0.38918,0.67477,0.42639,-0.45981,6.94295,0.81710,-9.52089
-0.20602,1.64039,-0.05514,0.30551,0.18013,0.18712,1.06795,-0.46534,-0.97111,3.02043,1.51215,-0.12947,0.38939,0.66933,0.43936,-0.45533,5.30812,-6.13040,-9.89769
-0.19938,1.64388,-0.05245,0.34648,0.19698,0.18872,1.14690,-0.68523,-1.13636,3.07662,0.99754,0.19421,0.38859,0.66475,0.45477,-0.44753,6.09357,-12.29844,-13.14172
-0.19223,1.64746,-0.04955,0.38640,0.21134,0.19358,1.22295,-0.97126,-1.30032,2.78802,1.05922,0.47300,0.38663,0.66086,0.47217,-0.43684,4.14543,-19.88629,-12.56063
-0.18498,1.65115,-0.04650,0.41805,0.22403,0.19947,1.30504,-1.17233,-1.43101,2.41133,1.17149,0.55490,0.38442,0.65611,0.48983,-0.42638,5.22565,-18.56235,-12.44805
-0.17713,1.65521,-0.04332,0.45160,0.23965,0.20628,1.42974,-1.30686,-1.57030,2.25241,1.13817,0.53844,0.38217,0.64945,0.50886,-0.41621,7.86227,-11.34679,-10.57835
-0.16882,1.65945,-0.03999,0.48507,0.25455,0.21389,1.58295,-1.37009,-1.72410,2.37335,1.03851,0.62868,0.38040,0.64051,0.52887,-0.40662,10.72455,-5.86408,-10.11804
-0.16016,1.66370,-0.03643,0.51665,0.26603,0.22345,1.75577,-1.41879,-1.86016,2.19434,0.65850,0.77209,0.37808,0.63008,0.54986,-0.39713,12.41870,-3.24935,-10.30503
-0.15116,1.66776,-0.03258,0.54654,0.27185,0.23580,1.93100,-1.50228,-1.97990,2.15419,0.09015,0.96346,0.37452,0.61891,0.57197,-0.38670,13.28269,-5.82863,-7.72983
-0.14192,1.67134,-0.02840,0.57333,0.26840,0.25071,2.10106,-1.67509,-2.08030,1.94179,-0.62111,1.10556,0.36866,0.60783,0.59557,-0.37407,11.62180,-10.53998,-7.95258
-0.13237,1.67410,-0.02388,0.59922,0.25142,0.26769,2.20660,-2.02268,-2.18272,1.60760,-1.76156,0.88596,0.35975,0.59865,0.62067,-0.35633,6.52490,-19.69196,-8.25762
-0.12285,1.67572,-0.01941,0.61964,0.21868,0.28046,2.18544,-2.49344,-2.33116,1.15356,-2.48496,0.62426,0.34945,0.59183,0.64586,-0.33240,-2.98220,-28.03889,-12.46063
-0.11340,1.67664,-0.01507,0.63410,0.18110,0.28808,2.17436,-2.81557,-2.50395,0.74038,-2.78085,0.50823,0.34011,0.58317,0.67046,-0.30778,-4.22532,-24.76312,-15.71578
-0.10396,1.67711,-0.01088,0.64482,0.14548,0.29120,2.23566,-2.93012,-2.65350,0.60348,-3.01461,0.11138,0.33207,0.57104,0.69439,-0.28543,3.96889,-13.14502,-14.67735
-0.09434,1.67656,-0.00692,0.65582,0.10179,0.28963,2.35228,-2.91642,-2.78740,0.53137,-3.20230,-0.21903,0.32509,0.55571,0.71791,-0.26478,8.51980,-1.17447,-9.07901
-0.08473,1.67523,-0.00329,0.66385,0.05499,0.28270,2.49714,-2.82684,-2.87518,0.56441,-3.47096,-0.77499,0.31852,0.53802,0.74064,-0.24604,13.40782,4.78103,-3.79843
-0.07513,1.67321,-0.00004,0.66989,0.00768,0.27088,2.52987,-2.81875,-2.97708,0.48161,-3.63408,-0.99632,0.31177,0.52134,0.76197,-0.22451,6.54166,3.35664,-4.91517
-0.06563,1.67048,0.00296,0.67279,-0.04026,0.25785,2.44453,-2.91275,-3.12540,0.22831,-3.55309,-0.96267,0.30464,0.50636,0.78194,-0.19838,-2.91523,-2.62176,-10.96197
-0.05627,1.66750,0.00594,0.67253,-0.08061,0.24773,2.31249,-3.04880,-3.29575,-0.06427,-3.38211,-0.75954,0.29705,0.49208,0.80069,-0.16886,-8.44931,-6.32602,-15.94344
-0.04701,1.66370,0.00886,0.67086,-0.12433,0.23913,2.19722,-3.15578,-3.49594,-0.26753,-2.85410,-0.52387,0.29001,0.47674,0.81841,-0.13714,-8.64891,-5.60999,-18.32535
-0.03772,1.65954,0.01180,0.67015,-0.16400,0.23289,2.21188,-3.11921,-3.62232,-0.29438,-2.60677,-0.34531,0.28402,0.45795,0.83534,-0.10875,0.28817,1.29334,-10.81318
-0.02850,1.65460,0.01477,0.66839,-0.20815,0.22845,2.40683,-2.93532,-3.62518,-0.26219,-2.60131,-0.09387,0.27879,0.43444,0.85209,-0.08649,12.45047,7.72261,1.56245
-0.01936,1.64932,0.01793,0.66548,-0.24853,0.22805,2.68503,-2.73473,-3.52893,-0.42200,-3.06857,0.08068,0.27271,0.40802,0.86860,-0.06839,19.99232,9.02838,10.94919
-0.01063,1.64302,0.02116,0.65636,-0.29648,0.22902,3.00914,-2.56994,-3.43796,-0.84631,-3.85447,0.13021,0.26602,0.37833,0.88511,-0.05173,23.22057,6.33792,13.60708
-0.00281,1.63501,0.02432,0.63325,-0.36332,0.22849,3.37174,-2.47141,-3.40948,-1.94895,-4.60044,-0.18526,0.25854,0.34492,0.90167,-0.03434,22.28900,1.37845,6.39293
0.00402,1.62614,0.02716,0.59847,-0.42962,0.22238,3.71127,-2.45494,-3.39397,-2.90209,-4.90497,-0.62343,0.24922,0.30940,0.91755,-0.01631,23.77726,-3.59569,4.27931
0.01007,1.61673,0.02967,0.55941,-0.48839,0.21225,3.98686,-2.48570,-3.38017,-3.53835,-4.99192,-1.08559,0.23840,0.27272,0.93209,0.00205,22.40637,-6.94106,4.25569
0.01471,1.60590,0.03154,0.50650,-0.55601,0.19397,4.27607,-2.54040,-3.39257,-3.99452,-4.79914,-1.53593,0.22641,0.23301,0.94553,0.02072,19.67675,-7.73671,1.49382
0.01834,1.59434,0.03285,0.44898,-0.61988,0.17053,4.55404,-2.61557,-3.40482,-4.31556,-4.45737,-1.93182,0.21305,0.19114,0.95735,0.03938,18.34659,-9.00367,0.02428
0.02072,1.58215,0.03321,0.38377,-0.67963,0.13650,4.80996,-2.70295,-3.45072,-5.12927,-4.24593,-3.07440,0.19872,0.14726,0.96714,0.05887,17.66152,-9.52087,-1.13787
0.02131,1.56942,0.03200,0.30392,-0.73412,0.08406,5.05487,-2.81041,-3.53682,-6.27620,-3.64306,-4.42408,0.18316,0.10115,0.97462,0.07959,16.51519,-9.00397,-4.71820
0.01989,1.55663,0.02895,0.20922,-0.77682,0.01315,5.30735,-2.97664,-3.60521,-7.37544,-2.25113,-5.57397,0.16479,0.05274,0.97979,0.10035,16.70528,-11.69740,-7.55451
0.01725,1.54464,0.02471,0.11766,-0.79584,-0.05972,5.55919,-3.26419,-3.46877,-8.16067,-0.33869,-6.08144,0.14030,0.00336,0.98329,0.11593,14.66298,-21.04691,-1.29575
0.01193,1.53352,0.01828,0.00527,-0.79609,-0.15033,5.90665,-3.89707,-2.97117,-8.14816,1.07932,-6.43178,0.10156,-0.04921,0.98631,0.12021,9.31702,-51.50099,16.38116
0.00504,1.52385,0.01010,-0.10736,-0.77284,-0.24883,6.21168,-4.75433,-2.35658,-8.19786,2.66849,-7.48138,0.05114,-0.10268,0.98643,0.11744,1.18927,-71.26923,20.25300
-0.00329,1.51640,-0.00043,-0.21735,-0.71879,-0.36304,6.37730,-5.72922,-1.83886,-7.61668,5.06618,-8.67314,-0.00858,-0.15489,0.98143,0.11283,-1.69556,-78.63918,9.16698
-0.01244,1.51162,-0.01334,-0.31590,-0.63410,-0.49006,6.32487,-6.87963,-1.28106,-6.82156,7.40291,-9.57352,-0.08000,-0.20177,0.97076,0.10256,-15.65719,-84.92110,0.64904
-0.02265,1.51131,-0.03011,-0.41054,-0.49355,-0.65316,5.94719,-8.42815,-0.73994,-5.04159,10.48108,-10.68620,-0.17009,-0.23940,0.95196,0.08674,-29.55717,-97.94529,-15.89524
-0.02993,1.51216,-0.04475,-0.45235,-0.38375,-0.75889,5.51487,-9.42192,-0.53198,-3.17674,11.87950,-10.97472,-0.25347,-0.27108,0.92553,0.07528,-35.33183,-98.41109,-34.01974
-0.05796,1.50998,-0.05853,-0.48180,-0.17830,-0.92579,4.51432,-10.60247,-0.61381,0.07747,14.06148,-11.08810,-0.35006,-0.28123,0.89105,0.06633,-41.65615,-71.12976,-58.90328
-0.08369,1.51381,-0.07621,-0.46274,0.07218,-1.09437,3.38439,-11.00806,-1.28554,3.47795,17.24958,-11.42985,-0.43213,-0.27706,0.85505,0.07340,-31.57880,-18.19803,-79.86734
-0.10389,1.52285,-0.09529,-0.39600,0.33632,-1.25026,2.59267,-10.80785,-2.11872,6.75009,20.35304,-11.54729,-0.49898,-0.27084,0.81826,0.09009,-7.53884,25.73069,-81.19759
-0.12374,1.53714,-0.11579,-0.27729,0.63271,-1.40820,2.02307,-10.57670,-2.94842,10.46757,22.28637,-10.94509,-0.56220,-0.26146,0.77675,0.11058,6.93992,30.18173,-70.72581
-0.13914,1.55555,-0.13692,-0.10266,0.94582,-1.54681,1.55541,-10.40477,-3.77736,14.44827,22.85215,-8.72859,-0.62355,-0.24675,0.72970,0.13359,13.87078,22.55790,-64.38741
-0.14860,1.57645,-0.15730,0.09035,1.21618,-1.63621,1.16068,-10.23617,-4.48072,17.98441,23.13145,-6.32770,-0.68094,-0.22751,0.67837,0.15613,15.86847,19.27211,-62.73580
-0.15617,1.60295,-0.17782,0.39782,1.57222,-1.71537,0.80696,-10.17093,-5.84849,22.81934,22.46275,-2.98345,-0.73869,-0.19208,0.61597,0.19502,28.98421,20.14265,-76.28538
-0.15385,1.63215,-0.19730,0.71045,1.85644,-1.72980,0.32299,-9.70692,-6.27519,30.26482,26.04582,1.04401,-0.78154,-0.15883,0.56344,0.21564,15.87976,17.77814,-50.09063
-0.14494,1.66615,-0.21315,1.15225,2.19491,-1.69820,-0.23942,-9.24241,-7.17003,33.50978,23.01277,3.95484,-0.82012,-0.10801,0.50613,0.24406,25.18491,47.87772,-77.03065
-0.12897,1.70135,-0.22600,1.65629,2.49990,-1.61055,-0.65397,-8.84536,-8.12033,39.14428,20.96650,8.91633,-0.85229,-0.05077,0.44265,0.27403,22.50778,23.73934,-70.46246
-0.09844,1.73753,-0.23925,2.21818,2.76806,-1.45432,-0.71305,-8.33800,-9.16679,40.96117,16.25655,12.82471,-0.87240,0.01037,0.37592,0.31224,47.61529,28.96044,-65.10767
-0.06018,1.77371,-0.24674,2.83904,2.98600,-1.21246,-0.68430,-7.52826,-10.19492,48.49499,14.65923,21.57820,-0.87807,0.07855,0.31347,0.35292,58.17523,18.78171,-51.79928
-0.01129,1.80867,-0.24733,3.52387,3.14390,-0.87273,-0.50385,-6.52101,-11.36769,50.56754,8.15746,27.88712,-0.86747,0.15698,0.25323,0.39841,82.47093,32.19062,-64.41734
0.04473,1.84245,-0.24239,4.13192,3.20441,-0.50809,0.02304,-5.61529,-12.42696,52.34565,1.73781,34.09710,-0.84092,0.23452,0.19089,0.44879,102.39980,11.12644,-61.36449
0.10650,1.86734,-0.22170,4.97180,3.15335,0.09396,1.27668,-4.48452,-13.67386,55.38837,-9.13154,44.49560,-0.78565,0.31458,0.13187,0.51615,111.97440,-27.41066,-53.68774
0.17501,1.88287,-0.18591,5.86404,2.91001,0.88133,3.10160,-3.02295,-14.91840,56.79865,-22.39937,55.07990,-0.69808,0.39560,0.08447,0.59080,164.06180,-30.95493,-37.20974
0.25000,1.89048,-0.13930,6.64599,2.48676,1.70632,5.13940,-1.92885,-16.37152,56.09640,-39.26155,63.47691,-0.57837,0.47535,0.02929,0.66233,163.54730,-64.00716,-73.92535
0.33155,1.87980,-0.07679,7.40846,1.77035,2.66634,7.88349,-1.28395,-17.94184,54.20955,-67.86957,76.61808,-0.41302,0.53947,-0.03112,0.73308,154.70510,-99.54980,-106.75810
0.41696,1.83609,0.00598,8.08077,0.56669,3.78506,11.81490,-0.98384,-19.49581,40.32306,-110.79740,84.25411,-0.18562,0.57083,-0.08454,0.79533,155.96600,-177.41810,-163.74610
0.49811,1.75560,0.09642,8.39862,-1.02150,4.73285,15.05914,-0.75964,-20.67122,11.69251,-158.23510,73.76712,0.06005,0.57287,-0.12917,0.80718,147.69030,-181.46830,-195.51750
0.52650,1.57692,0.18460,8.02802,-4.04946,5.59756,19.32937,-0.99007,-21.76729,-64.78168,-218.08490,26.04974,0.34652,0.51984,-0.15298,0.76569,114.06010,-139.96290,-214.32850
0.48544,1.36547,0.22097,6.47719,-7.12841,5.41951,23.26894,0.43920,-20.33617,-150.94270,-213.71790,-54.98026,0.58655,0.46401,-0.09771,0.65659,119.09960,-185.61770,-158.13670
0.39249,1.17546,0.20398,4.30870,-9.30136,4.40157,28.55388,2.21624,-15.55986,-196.44240,-151.59990,-113.45140,0.77909,0.39025,0.07073,0.48551,122.75300,-416.20850,-196.13380
0.50824,0.99687,0.17205,0.95787,-10.78501,2.28303,40.23267,-1.46802,-5.22678,-203.79420,-36.15418,-153.17340,0.87610,0.11980,0.43867,0.16022,567.65330,-316.42340,-741.63880
0.62216,0.86825,0.12770,-1.49656,-10.53399,0.07328,42.52731,-12.08358,0.48515,-138.82410,64.45687,-134.51660,0.73910,-0.22813,0.63150,-0.05383,738.82670,201.84970,-685.15190
0.60340,0.81527,0.04932,-2.71623,-9.11556,-1.70373,32.42806,-14.23562,-4.10497,-43.83083,115.76350,-81.81249,0.70335,-0.38340,0.59825,0.01991,-18.21561,810.75100,-277.21050
0.57845,0.78814,0.00052,-2.88768,-7.59242,-2.32203,22.99010,-8.76174,-6.81339,9.63803,97.77214,-11.80432,0.75882,-0.38808,0.51102,0.11151,-446.58200,713.58550,338.84480
0.55433,0.75457,-0.01096,-2.81754,-6.48289,-2.09938,14.78556,-5.86992,-4.52984,4.83683,67.23575,30.52448,0.77092,-0.31840,0.52115,0.18084,-520.15940,280.05900,263.08210
0.51335,0.71957,-0.00960,-2.93522,-5.62421,-1.67361,9.82592,-5.74590,-3.37287,-11.93093,57.95178,34.29926,0.74138,-0.30540,0.55552,0.22020,-411.95290,131.75460,-9.14044
0.45408,0.68731,-0.00163,-3.27238,-4.90661,-1.21712,5.45981,-6.85476,-4.16301,-34.19778,48.24924,29.64308,0.67016,-0.33436,0.59678,0.28799,-290.46120,-5.70026,-204.57980
0.38778,0.66921,0.00862,-3.73120,-4.26003,-0.86414,1.89304,-3.22829,-6.56828,-37.31646,47.78394,18.67677,0.66303,-0.34796,0.52378,0.40616,-166.29410,270.87810,-159.26040
0.30945,0.65889,0.01552,-4.16322,-3.44190,-0.55948,-0.09977,2.82311,-8.92592,-12.08924,48.29293,16.19179,0.69266,-0.34028,0.36018,0.52412,61.16173,382.04950,-131.05080
0.24807,0.64893,0.02062,-4.23520,-2.79509,-0.35228,-0.21196,5.18029,-9.51775,7.02726,45.16529,15.03919,0.69631,-0.35046,0.25135,0.57371,74.23041,205.46820,-88.10259
0.19701,0.63880,0.02661,-4.11518,-2.31118,-0.17769,-0.27097,5.08036,-9.21995,18.22254,37.07851,14.75641,0.68186,-0.36954,0.19479,0.60046,37.10580,40.22904,-1.38306
0.15769,0.63400,0.03678,-3.83192,-1.86007,0.02646,-1.08296,3.79768,-8.08721,24.46343,27.47496,14.17290,0.65435,-0.38057,0.18702,0.62612,-59.42370,-54.25089,79.27728
0.12861,0.62844,0.04825,-3.46394,-1.52566,0.20484,-2.03288,2.97337,-6.38320,25.43554,21.25109,10.94152,0.63241,-0.36996,0.19414,0.65230,-73.56067,-32.27925,141.02960
0.10427,0.62217,0.05895,-3.10170,-1.27328,0.33186,-2.38736,3.05658,-4.78504,23.23454,17.16159,7.09901,0.62508,-0.34556,0.18793,0.67420,-11.58615,20.98101,124.27090
0.08109,0.61744,0.06801,-2.79589,-1.05400,0.40243,-2.52467,3.32032,-3.53655,19.79963,15.61143,2.53934,0.62058,-0.31827,0.17666,0.69454,15.66516,36.87114,87.94822
0.05773,0.61401,0.07409,-2.57577,-0.86393,0.40730,-2.41112,3.48150,-2.71790,16.08125,17.66719,-1.81735,0.61724,-0.29579,0.16231,0.71076,18.14508,21.90088,75.19372
0.03739,0.61680,0.07648,-2.36282,-0.61635,0.35386,-1.76140,3.90941,-2.40838,12.84533,19.01785,-6.01624,0.62288,-0.27722,0.13013,0.71988,49.53163,25.51120,23.55196
0.01675,0.62528,0.07431,-2.18882,-0.33287,0.23575,-0.91806,3.85646,-2.52142,9.24917,17.13414,-8.82027,0.62906,-0.27497,0.09494,0.72087,54.32655,1.25686,-17.49635
-0.00679,0.63265,0.07125,-2.09879,-0.13194,0.13100,-0.49889,3.12616,-2.77788,7.14887,16.33345,-9.11585,0.62531,-0.28891,0.07259,0.72128,29.45067,-50.08574,-24.49313
-0.02908,0.64376,0.06579,-2.01212,0.08269,0.01506,-0.42397,1.73461,-2.97373,5.91135,13.32963,-7.70450,0.61312,-0.31973,0.06911,0.71909,-3.01292,-90.71861,-18.64346
-0.05076,0.65655,0.05985,-1.92352,0.27314,-0.08566,-0.80338,-0.12630,-2.89476,5.89537,10.19190,-5.08360,0.59050,-0.36051,0.08957,0.71647,-43.89738,-113.23690,8.25667
-0.07003,0.66788,0.05537,-1.81813,0.40116,-0.14194,-1.22528,-1.42655,-2.68237,7.88801,8.34086,-2.82522,0.56647,-0.39428,0.11091,0.71509,-48.33911,-93.52659,17.96626
-0.08865,0.67805,0.05229,-1.72443,0.47805,-0.16132,-1.58676,-2.10442,-2.50263,9.28291,7.18493,-0.89427,0.54230,-0.42056,0.12720,0.71614,-47.89428,-71.48297,19.42917
-0.09822,0.69171,0.05121,-1.50466,0.59284,-0.14308,-2.16726,-2.60821,-2.24803,10.83276,4.70422,2.70631,0.51186,-0.44301,0.14904,0.72079,-36.80844,-22.62186,10.73794
-0.10879,0.70279,0.05216,-1.34117,0.64310,-0.09631,-2.36942,-2.46162,-2.38207,12.02878,3.11186,3.44261,0.48592,-0.45987,0.15077,0.72779,-12.23327,9.28601,-3.23926
-0.11692,0.71272,0.05457,-1.17181,0.66127,-0.03528,-2.51821,-2.25292,-2.04131,10.36132,-0.36259,5.97717,0.46583,-0.46779,0.16017,0.73384,0.41222,5.79528,17.05510
-0.12428,0.72114,0.05893,-1.02688,0.64559,0.04475,-2.68868,-1.74757,-1.74404,9.54470,-1.04890,5.05804,0.44602,-0.46723,0.16581,0.74517,-21.93907,41.99043,11.77885
-0.13144,0.72876,0.06298,-0.91432,0.62119,0.09945,-2.51992,-1.37790,-1.63091,9.25071,-2.20151,4.00576,0.43149,-0.46993,0.16556,0.75204,10.78372,32.69738,6.02754
-0.13603,0.73517,0.06771,-0.78634,0.58292,0.15193,-2.35181,-0.98457,-1.44435,9.18405,-3.44185,3.43359,0.41983,-0.46871,0.16535,0.75942,16.43040,29.76671,8.62589
-0.13848,0.74028,0.07299,-0.64761,0.52800,0.20135,-2.26053,-0.69031,-1.16324,9.16655,-3.87221,2.83838,0.40903,-0.46546,0.16901,0.76647,7.95630,22.39896,15.10954
-0.13924,0.74444,0.07842,-0.50984,0.46954,0.24353,-2.60387,-0.59671,-0.74760,10.61167,-5.42218,3.33659,0.39070,-0.46031,0.18423,0.77558,-15.23070,12.90834,22.44379
-0.13888,0.74760,0.08391,-0.38695,0.41095,0.27696,-2.97854,-0.51130,-0.34353,10.22112,-4.99748,2.23968,0.37049,-0.45259,0.20314,0.78526,-35.56717,13.46719,31.50456
-0.13597,0.74917,0.08942,-0.25326,0.33655,0.30076,-3.09090,-0.38751,0.07615,8.74415,-4.82558,0.66624,0.35589,-0.44275,0.22177,0.79254,-20.30407,14.50570,30.85394
-0.13197,0.74970,0.09420,-0.13176,0.26234,0.30800,-2.67270,-0.15117,0.30011,8.41854,-4.83327,-0.16292,0.35297,-0.43427,0.22948,0.79635,21.23171,17.60755,16.04254
-0.12653,0.74911,0.09838,-0.01387,0.18971,0.30487,-1.93328,0.17502,0.39710,8.01759,-4.90216,-0.71892,0.36011,-0.42616,0.22814,0.79791,46.02753,23.80992,6.22349
-0.12009,0.74776,0.10228,0.09446,0.11789,0.29550,-1.01187,0.54389,0.35275,7.66082,-5.19866,-1.07337,0.37507,-0.41897,0.21783,0.79771,64.91704,28.63470,-5.27970
-0.11246,0.74544,0.10552,0.19752,0.04662,0.27805,-0.25235,0.82975,0.36894,7.33694,-5.48781,-1.19779,0.39187,-0.41133,0.20794,0.79624,59.53494,23.90365,-5.45868
-0.10384,0.74225,0.10834,0.29338,-0.02095,0.25870,0.21891,1.04711,0.44677,6.69534,-4.93511,-1.22245,0.40657,-0.40208,0.20130,0.79531,38.45044,17.48748,2.97314
-0.09354,0.73850,0.11109,0.39715,-0.08855,0.23967,0.56559,1.28523,0.55234,6.46482,-3.98241,-1.03074,0.42151,-0.39038,0.19529,0.79485,22.47620,14.72451,5.12997
-0.08267,0.73500,0.11393,0.48775,-0.13574,0.22715,0.86646,1.52097,0.56368,6.48293,-2.89336,-0.90368,0.43634,-0.37832,0.18670,0.79475,19.75579,17.07360,2.56385
-0.06969,0.73106,0.11668,0.59346,-0.17686,0.21719,1.26834,1.86286,0.40782,6.61778,-2.43791,-0.39618,0.45377,-0.36528,0.17023,0.79479,25.25460,21.59533,-10.28178
-0.05679,0.72753,0.11969,0.67275,-0.20165,0.21388,1.43507,2.13727,0.30438,6.72868,-2.24411,-0.05056,0.46800,-0.35077,0.15543,0.79610,18.30508,24.10409,-10.70598
-0.04270,0.72380,0.12283,0.75054,-0.22304,0.21332,1.41521,2.38940,0.24705,6.49851,-2.08756,0.10570,0.47903,-0.33384,0.14203,0.79932,3.16402,22.65281,-5.14722
-0.02693,0.71937,0.12601,0.83662,-0.24941,0.21408,1.25560,2.65969,0.24892,6.10478,-2.15057,-0.02209,0.48712,-0.31341,0.13024,0.80469,-10.75873,18.85562,2.27318
-0.00949,0.71422,0.12918,0.93206,-0.28541,0.21209,1.11742,2.97191,0.29422,6.01524,-2.45135,-0.49495,0.49535,-0.28965,0.11809,0.81043,-8.96735,18.79099,6.02541
0.00852,0.70845,0.13181,1.01594,-0.32117,0.20306,1.06743,3.25131,0.35029,6.12194,-2.66053,-1.06649,0.50484,-0.26477,0.10511,0.81485,-4.61504,19.72736,6.01434
0.02791,0.70210,0.13367,1.10291,-0.35920,0.18315,1.09789,3.53324,0.43462,6.48657,-2.75242,-2.14826,0.51602,-0.23765,0.09130,0.81787,0.41919,20.20419,6.52392
0.04795,0.69551,0.13465,1.17890,-0.39151,0.15390,1.20505,3.74007,0.56135,6.40336,-2.67611,-2.97254,0.52929,-0.20980,0.07816,0.81837,9.05325,18.62472,8.00041
0.06952,0.68853,0.13430,1.26122,-0.42177,0.11075,1.24922,3.88745,0.78619,5.79402,-1.97515,-3.39024,0.54213,-0.17985,0.06864,0.81795,9.22001,12.06441,13.56879
0.09237,0.68203,0.13240,1.34709,-0.43817,0.05132,1.20834,3.99380,1.09950,5.11945,-0.28398,-4.18832,0.55339,-0.14749,0.06332,0.81731,2.12641,4.74319,21.23250
0.11517,0.67663,0.12960,1.41378,-0.43285,-0.01011,1.18883,4.08027,1.28178,4.38061,1.09962,-4.74177,0.56370,-0.11590,0.05622,0.81587,1.80955,4.94899,15.26372
0.13835,0.67231,0.12543,1.47119,-0.40868,-0.07884,1.15801,4.18470,1.36177,3.73844,2.42577,-5.15551,0.57260,-0.08412,0.04700,0.81415,0.20718,6.15609,7.99940
0.16235,0.67053,0.11883,1.52929,-0.35106,-0.17558,1.06123,4.31229,1.35304,2.61404,3.89441,-5.66460,0.57885,-0.05209,0.03565,0.81299,-5.26821,6.77975,2.50545
0.18527,0.66884,0.11256,1.55648,-0.30185,-0.24362,0.98700,4.39936,1.27470,1.87289,4.37762,-5.85347,0.58410,-0.02150,0.02263,0.81108,-8.47458,6.52427,-2.38838
0.20823,0.66852,0.10440,1.57752,-0.23905,-0.32563,0.92613,4.49960,1.15129,1.08559,4.73441,-5.97460,0.58843,0.00888,0.00743,0.80847,-6.73747,6.76329,-5.59050
0.23094,0.67000,0.09454,1.58813,-0.16325,-0.41806,0.85553,4.61658,0.98353,0.18056,4.68971,-5.61320,0.59145,0.03899,-0.01020,0.80533,-6.91627,8.33437,-9.02050
0.25299,0.67139,0.08503,1.58570,-0.10531,-0.48206,0.75109,4.65470,0.91674,-0.45980,4.78768,-5.21698,0.59279,0.06884,-0.02555,0.80200,-9.39613,5.01289,-5.77057
0.27435,0.67447,0.07432,1.57185,-0.03328,-0.55041,0.56602,4.58915,0.96637,-1.29588,5.29907,-4.75652,0.59119,0.09811,-0.03693,0.79969,-10.81372,-2.51775,4.08224
0.29486,0.67926,0.06310,1.54613,0.04677,-0.61172,0.32733,4.43845,1.08068,-2.29368,5.93024,-4.16581,0.58682,0.12617,-0.04479,0.79857,-12.80948,-10.75638,11.92710
0.31464,0.68471,0.05186,1.51512,0.11908,-0.65775,0.11797,4.28403,1.15605,-2.96186,6.18218,-3.62275,0.58124,0.15289,-0.05227,0.79753,-14.05773,-14.53207,12.00453
0.33290,0.69270,0.03949,1.46556,0.21713,-0.71150,-0.15376,4.16092,1.12943,-3.48582,6.29627,-2.97925,0.57266,0.17780,-0.06191,0.79788,-15.46536,-9.89388,4.31592
0.35072,0.70155,0.02732,1.41798,0.30281,-0.74984,-0.41563,4.15145,1.01181,-3.61699,6.02923,-2.39049,0.56250,0.20282,-0.07568,0.79795,-19.50619,-3.42391,-2.77185
0.36804,0.71071,0.01528,1.37509,0.37419,-0.77606,-0.64935,4.15473,0.90581,-3.73321,5.99091,-1.99181,0.55102,0.22750,-0.09030,0.79779,-20.83699,-0.94981,-3.79668
0.38375,0.72251,0.00261,1.31540,0.47338,-0.80607,-1.02829,4.12187,0.78879,-3.72506,6.24028,-1.91166,0.53448,0.25015,-0.10608,0.80032,-24.65661,-3.06443,-1.85538
0.39922,0.73501,-0.01041,1.26457,0.55993,-0.83444,-1.33750,4.06698,0.81546,-3.52339,5.78742,-2.18227,0.51660,0.27366,-0.11881,0.80257,-22.79942,-4.99535,5.14312
0.41403,0.74817,-0.02407,1.21515,0.63793,-0.86671,-1.56278,4.00529,0.94041,-3.65842,5.17362,-2.55096,0.49791,0.29809,-0.12868,0.80416,-15.00398,-4.84514,13.07016
0.42837,0.76125,-0.03817,1.17020,0.69709,-0.89858,-1.68769,3.97103,1.06674,-4.00978,4.61067,-2.73605,0.47953,0.32309,-0.13765,0.80419,-8.48777,-2.69756,13.44471
0.44035,0.77639,-0.05388,1.09438,0.76949,-0.94821,-1.81719,3.95128,1.14576,-4.61890,3.44447,-2.67964,0.45989,0.34746,-0.14731,0.80378,-5.95732,-1.25731,7.16969
0.45185,0.78993,-0.06930,1.02850,0.81082,-0.98476,-1.88518,3.93969,1.14905,-4.98513,2.56705,-2.55024,0.44106,0.37074,-0.15814,0.80188,-5.16965,-0.95629,1.96991
0.46265,0.80305,-0.08468,0.96689,0.83924,-1.01303,-1.90712,3.89754,1.14188,-5.44460,2.25220,-2.29480,0.42278,0.39288,-0.16837,0.79910,-2.19645,-2.15232,0.15677
0.47159,0.81673,-0.10056,0.88919,0.86865,-1.04201,-1.96128,3.81239,1.12579,-5.77973,1.91255,-1.93229,0.40358,0.41311,-0.17833,0.79666,-2.82774,-5.75230,0.63729
0.47868,0.83056,-0.11670,0.79792,0.89503,-1.06914,-1.97707,3.66485,1.16628,-5.71357,1.23469,-1.65115,0.38453,0.43192,-0.18572,0.79441,-1.33532,-8.55117,2.50501
0.48589,0.84419,-0.13281,0.72923,0.90912,-1.08755,-1.91579,3.54858,1.26332,-5.81356,0.85514,-1.44936,0.36625,0.45149,-0.19058,0.79101,5.13128,-8.87139,6.93896
0.49075,0.85792,-0.14929,0.63668,0.91988,-1.10655,-1.77685,3.38624,1.40703,-5.91807,0.32059,-0.85192,0.34949,0.47037,-0.19177,0.78729,10.77861,-7.95547,7.67219
0.49492,0.87136,-0.16532,0.55473,0.92227,-1.11399,-1.59941,3.23138,1.55646,-5.95007,-0.14714,-0.25056,0.33374,0.48908,-0.19079,0.78296,14.47679,-8.67763,9.43734
0.49843,0.88588,-0.18140,0.48334,0.92084,-1.11581,-1.43811,3.11137,1.64894,-6.10724,-0.44091,0.27403,0.31868,0.50730,-0.18967,0.77789,16.76452,-8.49535,7.19980
0.49930,0.90046,-0.19725,0.38678,0.91242,-1.11003,-1.32842,2.98536,1.65749,-6.14368,-0.79406,0.98043,0.30415,0.52373,-0.18958,0.77282,10.21968,-7.27415,1.48267
0.49971,0.91354,-0.21222,0.30363,0.89831,-1.09567,-1.34353,2.88364,1.57244,-5.91444,-1.25355,1.45516,0.28841,0.53829,-0.19286,0.76803,0.58420,-7.68383,-4.64965
