posX, posY, posZ, velX, velY, velZ, angVelX, angVelY, angVelZ, accX, accY, accZ, rotX, rotY, rotZ, rotW, angAccX, angAccY, angAccZ
0.30048,1.06744,-0.45532,-0.08270,0.36980,-0.11629,0.07296,0.24455,0.69202,-0.92704,-0.56000,0.10625,0.21790,0.82525,-0.09170,0.51291,-5.63272,2.16327,1.66591
0.29866,1.07202,-0.45678,-0.09348,0.36274,-0.11441,0.02764,0.27867,0.70893,-0.93729,-0.63389,0.13237,0.21264,0.82777,-0.09039,0.51129,-4.14224,3.08936,1.28216
0.29650,1.07613,-0.45817,-0.10743,0.35092,-0.11199,-0.01860,0.32406,0.70023,-0.88273,-0.81132,0.12862,0.20774,0.83037,-0.08992,0.50916,-3.66970,2.71444,0.09789
0.29438,1.08034,-0.45952,-0.11711,0.34181,-0.10915,-0.01655,0.35897,0.68278,-0.81246,-0.76971,0.25227,0.20381,0.83300,-0.08854,0.50669,-1.17416,2.92317,-1.18023
0.29207,1.08424,-0.46064,-0.12819,0.33139,-0.10377,-0.00532,0.38035,0.67176,-0.82321,-0.73087,0.42944,0.20001,0.83555,-0.08677,0.50431,0.64320,1.98940,-1.31919
0.28951,1.08792,-0.46151,-0.14098,0.31981,-0.09585,0.04934,0.38862,0.64860,-0.83626,-0.78201,0.46143,0.19741,0.83796,-0.08393,0.50180,2.42366,0.50028,-1.15949
0.28685,1.09147,-0.46237,-0.15214,0.30765,-0.08905,0.07898,0.39586,0.61969,-0.79376,-0.90199,0.56977,0.19490,0.84026,-0.08159,0.49933,4.21680,0.81718,-2.28707
0.28423,1.09452,-0.46319,-0.16113,0.29248,-0.08325,0.00953,0.35815,0.58015,-0.63424,-1.10529,0.42789,0.19139,0.84143,-0.08181,0.49867,-2.93975,-1.85978,-2.26104
0.28160,1.09727,-0.46406,-0.16853,0.27583,-0.07933,-0.07622,0.31296,0.53118,-0.54822,-1.22523,0.08146,0.18785,0.84212,-0.08315,0.49864,-7.08231,-3.87362,-2.68633
0.27883,1.09975,-0.46520,-0.17610,0.25807,-0.08012,-0.16104,0.28769,0.47367,-0.59814,-1.32679,-0.24193,0.18456,0.84280,-0.08532,0.49835,-5.06218,-2.66610,-3.99682
0.27595,1.10174,-0.46663,-0.18425,0.23831,-0.08524,-0.21923,0.28644,0.39149,-0.62677,-1.50099,-0.61076,0.18237,0.84357,-0.08805,0.49737,-6.40960,-0.95619,-5.64593
0.27249,1.10219,-0.46834,-0.20293,0.19925,-0.09341,0.10017,0.25977,0.07605,-0.86865,-1.32401,-0.18196,0.19149,0.84367,-0.08550,0.49420,14.02250,-1.73396,-12.18858
0.26617,1.10630,-0.47091,-0.21612,0.18498,-0.09258,0.55335,0.20369,-0.13906,-1.20443,-0.89432,-0.25955,0.20475,0.84461,-0.07500,0.48896,26.13531,-4.17054,-15.45983
0.26235,1.10820,-0.47221,-0.23000,0.18010,-0.09246,1.07076,0.21398,-0.28752,-1.55587,-0.41332,-0.51060,0.22046,0.84561,-0.06002,0.48242,42.04728,-1.92093,-16.65685
0.25690,1.11035,-0.47425,-0.26456,0.18034,-0.10337,2.07306,0.38181,-0.52742,-2.11024,0.41936,-0.85089,0.24913,0.84849,-0.03070,0.46590,57.85140,8.54287,-14.40834
0.25124,1.11283,-0.47674,-0.29590,0.18472,-0.11880,2.53330,0.51888,-0.62518,-2.20541,0.71892,-0.72657,0.26876,0.85065,-0.01002,0.45173,42.77584,10.78541,-8.37193
0.24550,1.11550,-0.47952,-0.32118,0.19034,-0.13489,2.53377,0.59987,-0.66073,-2.11183,0.87364,-0.78689,0.28128,0.85215,0.00097,0.44127,13.15803,8.85182,-3.17495
0.23890,1.11872,-0.48283,-0.35405,0.20343,-0.15578,2.10931,0.56954,-0.66709,-2.20922,1.32108,-1.14179,0.28669,0.85236,0.00072,0.43736,-23.67191,0.69102,0.44137
0.23161,1.12292,-0.48659,-0.39264,0.23123,-0.17951,1.63756,0.52197,-0.68880,-3.16386,2.36557,-1.74900,0.29056,0.85202,-0.00330,0.43545,-31.48384,-3.00203,0.72905
0.22290,1.12778,-0.48996,-0.44278,0.26017,-0.19234,1.45213,0.32737,-0.79058,-3.36144,3.20626,-2.43366,0.29991,0.84827,-0.00192,0.43645,-23.18074,-19.76857,-10.37974
0.21334,1.13576,-0.49523,-0.49570,0.33135,-0.23118,1.39483,0.66034,-0.49580,-2.54684,5.26640,-2.05213,0.29968,0.85530,0.00331,0.42266,1.03850,27.72825,19.29767
0.20412,1.14453,-0.50046,-0.53397,0.40077,-0.26107,1.18175,0.75276,-0.28166,-3.61952,4.88611,-1.74751,0.29748,0.85963,0.00513,0.41536,-13.84992,8.39512,22.61715
0.19391,1.15390,-0.50513,-0.57733,0.46146,-0.27588,1.16059,0.75138,-0.21089,-4.02315,5.22046,-1.16295,0.30020,0.86182,0.01021,0.40870,-8.40499,0.37232,8.77028
0.18250,1.16515,-0.50936,-0.62981,0.53902,-0.28105,1.39523,0.70865,-0.17857,-3.68123,5.87353,-0.33960,0.30718,0.86291,0.02259,0.40065,11.60128,-2.30583,2.14238
0.17066,1.17793,-0.51320,-0.67829,0.62389,-0.27929,1.82907,0.62691,-0.16496,-3.49591,6.29958,0.03476,0.31794,0.86256,0.04257,0.39126,29.18730,-5.99489,-1.03539
0.15808,1.19215,-0.51718,-0.72669,0.71022,-0.28012,2.21141,0.59168,-0.12371,-3.42920,6.19488,-0.15252,0.32810,0.86233,0.06386,0.38034,29.93186,-4.80682,0.61558
0.14503,1.20707,-0.52148,-0.77347,0.79327,-0.28551,2.52216,0.62703,-0.07959,-3.38677,6.00185,-0.54805,0.33779,0.86250,0.08484,0.36714,23.00723,0.72069,2.03357
0.13139,1.22293,-0.52617,-0.81964,0.87320,-0.29476,2.73742,0.72815,-0.02516,-3.33582,5.63720,-0.67035,0.34630,0.86336,0.10431,0.35187,17.87513,4.54849,4.06820
0.11721,1.23947,-0.53091,-0.86397,0.94626,-0.30292,2.88939,0.86988,-0.00924,-3.18931,5.04456,-0.40612,0.35516,0.86422,0.12200,0.33482,10.71422,9.20523,3.71852
0.10274,1.25631,-0.53523,-0.90418,1.01240,-0.30293,3.09749,1.00921,-0.03653,-2.90294,4.67740,0.20525,0.36614,0.86389,0.14137,0.31567,14.33271,10.36945,-0.38598
0.08812,1.27333,-0.53927,-0.93704,1.06471,-0.29810,3.24386,1.14016,-0.07414,-2.75104,4.33162,0.62439,0.37721,0.86295,0.15969,0.29586,14.31662,10.77673,-1.65031
0.07262,1.29150,-0.54286,-0.97778,1.12849,-0.28694,3.30100,1.34364,-0.11463,-2.46111,3.89533,1.13535,0.38790,0.86261,0.17474,0.27367,5.33745,13.01663,-0.09672
0.05736,1.30886,-0.54610,-1.00935,1.17719,-0.26954,3.16521,1.47801,-0.09785,-2.21031,3.48161,1.81431,0.39500,0.86310,0.18532,0.25435,-5.38780,11.01537,3.30648
0.04196,1.32646,-0.54888,-1.03459,1.21447,-0.24831,2.99193,1.54662,-0.07032,-2.21424,3.18745,1.97659,0.40070,0.86343,0.19433,0.23698,-15.19847,5.30967,5.36568
0.02544,1.34608,-0.54975,-1.06789,1.26221,-0.20874,3.00725,1.69582,-0.08067,-2.14069,3.01848,2.57115,0.40898,0.86263,0.20603,0.21483,-2.98800,7.58265,2.08628
0.00888,1.36567,-0.54965,-1.09459,1.30083,-0.16397,3.15650,1.85934,-0.09455,-1.78322,2.76013,3.56168,0.41872,0.86023,0.22115,0.18912,11.56151,12.03239,-0.65944
-0.00776,1.38542,-0.54841,-1.11745,1.33409,-0.11100,3.21854,1.99082,-0.04028,-1.42899,2.18646,4.32206,0.42574,0.85834,0.23500,0.16362,8.15284,10.10708,3.51176
-0.02443,1.40536,-0.54586,-1.13547,1.35992,-0.05116,3.08785,2.02931,0.08491,-0.95420,1.57685,4.69957,0.42839,0.85808,0.24493,0.14210,-5.09601,3.29388,8.83396
-0.04104,1.42482,-0.54217,-1.14869,1.37428,0.01286,2.81046,1.99322,0.28757,-0.87736,0.56228,4.74928,0.42628,0.86002,0.25144,0.12421,-14.87317,-5.22505,15.71154
-0.05743,1.44343,-0.53778,-1.15613,1.37360,0.07466,2.48406,1.90602,0.48467,0.24702,-1.00294,4.49627,0.42205,0.86287,0.25571,0.10930,-19.37611,-7.28769,15.27240
-0.07335,1.46100,-0.53315,-1.15404,1.35482,0.12663,2.01338,1.83648,0.62976,-0.02079,-1.33233,2.97535,0.41678,0.86742,0.25356,0.09785,-35.28074,-20.27887,17.68149
-0.08829,1.47751,-0.52749,-1.13808,1.32650,0.18425,2.02958,1.99089,0.58782,1.22648,-1.72461,3.41170,0.41974,0.86674,0.25864,0.07541,-2.39463,9.07973,0.59751
-0.10287,1.49412,-0.52187,-1.12016,1.30346,0.22977,2.15107,2.12289,0.51697,1.58354,-1.95764,3.97966,0.42429,0.86389,0.26655,0.05126,8.08494,13.26975,-6.11892
-0.11699,1.50996,-0.51457,-1.09939,1.27166,0.28638,2.26733,2.26226,0.47833,1.54307,-2.50100,4.07352,0.42838,0.86052,0.27450,0.02555,7.86213,11.13608,-3.55783
-0.13075,1.52482,-0.50646,-1.07788,1.23275,0.34251,2.22672,2.34355,0.51928,1.81994,-3.08133,4.21959,0.42945,0.85886,0.27917,0.00198,2.31234,8.18943,1.94854
-0.14389,1.53889,-0.49771,-1.05147,1.18987,0.39755,1.98097,2.29544,0.64559,2.29589,-3.12964,4.09161,0.42617,0.86029,0.27933,-0.01583,-13.75756,-3.11300,10.36565
-0.15646,1.55265,-0.48837,-1.02266,1.15162,0.44865,1.79395,2.20617,0.73807,2.46928,-3.13569,4.35601,0.42261,0.86130,0.28023,-0.03202,-16.88257,-9.29109,11.03167
-0.16768,1.56466,-0.47656,-0.98065,1.09637,0.52403,1.71621,2.10757,0.79807,2.72652,-3.44176,4.63556,0.41923,0.86112,0.28353,-0.04828,-5.95265,-7.93299,4.75328
-0.17796,1.57591,-0.46399,-0.93188,1.03874,0.59939,1.67987,1.97661,0.82845,3.36405,-3.66480,4.68119,0.41596,0.86014,0.28830,-0.06344,-0.37465,-6.93818,1.48385
-0.18761,1.58656,-0.45131,-0.88246,0.98402,0.66035,1.61290,1.79560,0.83803,3.88369,-4.35550,3.96956,0.41239,0.85926,0.29304,-0.07571,-2.52883,-11.96159,0.27959
-0.19607,1.59606,-0.43852,-0.82602,0.92386,0.71079,1.62041,1.72540,0.71343,3.81389,-3.92648,3.12556,0.41309,0.85576,0.29834,-0.08957,-4.02461,-8.46061,-5.88864
-0.20373,1.60496,-0.42539,-0.76959,0.86631,0.75659,1.75015,1.75015,0.52902,3.93622,-4.13427,3.12369,0.41676,0.84924,0.30609,-0.10679,7.22556,3.96450,-13.56498
-0.21125,1.61362,-0.41209,-0.72388,0.81704,0.79297,1.89645,1.80645,0.35000,3.69463,-3.94067,2.68181,0.42149,0.84126,0.31457,-0.12523,7.81714,4.40165,-15.22543
-0.21729,1.62076,-0.39794,-0.66578,0.75523,0.83243,2.08660,1.92468,0.12668,3.56022,-3.83465,2.12031,0.42885,0.83043,0.32424,-0.14611,11.47322,10.19346,-16.02587
-0.22112,1.62534,-0.38344,-0.58158,0.65925,0.86870,2.12391,2.05368,-0.03765,3.25371,-3.73412,0.66004,0.43575,0.82062,0.33031,-0.16614,0.38976,6.24384,-5.94114
-0.23428,1.64032,-0.35848,-0.54020,0.61038,0.87334,1.95814,2.02310,-0.02109,2.87024,-3.48357,0.02532,0.44041,0.80769,0.33767,-0.19913,-9.31563,-0.70034,1.69168
-0.23915,1.64558,-0.34631,-0.50366,0.56410,0.87074,1.79669,2.00171,-0.02538,2.26426,-3.25820,-0.45888,0.44326,0.80226,0.33822,-0.21333,-12.58049,-3.67262,1.94713
-0.24382,1.65023,-0.33446,-0.47194,0.51811,0.86356,1.67840,2.05280,-0.10536,2.02422,-3.24033,-0.72378,0.44890,0.79481,0.33831,-0.22871,-9.64724,2.90395,-2.57081
-0.24867,1.65472,-0.32284,-0.44921,0.47958,0.85519,1.59897,2.12698,-0.20068,1.60777,-3.16413,-0.84071,0.45566,0.78610,0.33835,-0.24482,-7.99710,6.51421,-5.83296
-0.25336,1.65798,-0.31163,-0.42837,0.43169,0.84300,1.51303,2.21935,-0.25881,1.10523,-2.83436,-0.80152,0.46231,0.77733,0.33700,-0.26163,-6.62932,7.09325,-3.49500
-0.25862,1.66102,-0.30029,-0.41802,0.38870,0.83340,1.43461,2.22744,-0.17454,0.50608,-2.71324,-0.65130,0.46456,0.77095,0.33559,-0.27786,-4.26980,1.79135,3.58254
-0.26438,1.66455,-0.28898,-0.41708,0.36195,0.82691,1.34316,2.15671,-0.03343,0.17152,-2.85692,-0.80447,0.46392,0.76667,0.33399,-0.29230,-4.03823,-4.52556,11.44251
-0.27687,1.66518,-0.28040,-0.43433,0.31467,0.80783,1.11453,1.93959,0.28951,0.41530,-2.79223,-1.29104,0.45692,0.76913,0.32917,-0.30219,-9.61413,-12.84333,18.19069
-0.29186,1.66533,-0.27251,-0.45458,0.27399,0.78885,0.86664,1.67834,0.51595,0.65688,-2.98516,-1.34005,0.45057,0.77247,0.32433,-0.30835,-14.22072,-19.73492,18.98719
-0.30133,1.66383,-0.26361,-0.44498,0.19848,0.76771,1.02388,1.76057,0.44707,0.54561,-2.30212,-0.22232,0.45027,0.76613,0.32540,-0.32313,10.79724,9.87216,-6.54892
-0.30879,1.66790,-0.24136,-0.42093,0.16586,0.76822,1.32458,1.96936,0.33003,1.26294,-2.51600,0.00875,0.45119,0.74798,0.32880,-0.35896,21.02951,19.48268,-12.05985
-0.31044,1.66894,-0.23006,-0.39781,0.13865,0.76954,1.46869,1.94543,0.33720,1.69482,-2.65594,0.03276,0.44881,0.73938,0.33274,-0.37573,15.68209,6.63931,-4.69957
-0.31401,1.66766,-0.21872,-0.37394,0.09644,0.77066,1.53689,1.66065,0.45610,1.72959,-2.87414,-0.35723,0.44077,0.73627,0.33847,-0.38608,6.77879,-15.88598,3.78254
-0.31727,1.66602,-0.20797,-0.35004,0.05675,0.76291,1.47995,1.30240,0.62716,1.80764,-2.86057,-1.11244,0.43052,0.73726,0.34235,-0.39229,-0.04278,-25.60884,9.35254
-0.32020,1.66403,-0.19835,-0.32533,0.01866,0.74400,1.37710,0.94366,0.79165,1.58115,-2.63258,-1.76841,0.41934,0.74031,0.34540,-0.39597,-4.44921,-28.36704,10.08652
-0.32266,1.66185,-0.18946,-0.30112,-0.01591,0.71627,1.24837,0.63367,0.94948,1.55852,-2.32778,-2.38185,0.40767,0.74457,0.34713,-0.39866,-6.48546,-24.92857,10.08741
-0.32479,1.65948,-0.18144,-0.27714,-0.04633,0.68256,1.10276,0.35949,1.07213,1.51587,-2.08986,-2.66985,0.39630,0.74958,0.34801,-0.39995,-8.60916,-21.24454,7.83003
-0.32689,1.65685,-0.17435,-0.25490,-0.07475,0.64527,0.98229,0.18087,1.12452,1.29068,-1.83002,-2.76197,0.38657,0.75347,0.34865,-0.40161,-8.26256,-17.27369,5.04277
-0.32838,1.65381,-0.16813,-0.22784,-0.10360,0.60204,0.93572,0.18754,1.05974,1.54837,-1.63324,-2.66591,0.38061,0.75330,0.34972,-0.40665,-3.47601,-1.43069,-2.67336
-0.32989,1.65102,-0.16171,-0.20589,-0.12323,0.57164,0.93746,0.26287,0.94468,1.80810,-1.46845,-2.53838,0.37667,0.75076,0.35164,-0.41332,-0.68491,5.61062,-7.75766
-0.33096,1.64813,-0.15573,-0.18234,-0.14016,0.54253,0.94734,0.35024,0.81966,2.00211,-1.40030,-2.39835,0.37392,0.74713,0.35388,-0.42042,0.26800,8.23787,-10.28285
-0.33092,1.64473,-0.15053,-0.15084,-0.16200,0.50653,0.91269,0.32875,0.70888,2.03668,-1.59805,-2.44545,0.37102,0.74503,0.35646,-0.42451,-1.06579,2.49517,-8.26233
-0.33105,1.64125,-0.14573,-0.12685,-0.18081,0.47200,0.77986,0.13695,0.69917,1.57844,-1.42802,-2.66592,0.36533,0.74783,0.35763,-0.42353,-6.95251,-12.20437,-3.27774
-0.33147,1.63760,-0.14169,-0.10958,-0.19776,0.43501,0.61119,-0.11748,0.75151,0.97150,-1.19059,-2.65665,0.35769,0.75365,0.35762,-0.41974,-11.07075,-19.13451,2.20229
-0.33130,1.63382,-0.13840,-0.09122,-0.21487,0.39325,0.46866,-0.19213,0.72749,0.63978,-0.96882,-2.53631,0.35326,0.75700,0.35658,-0.41834,-9.83645,-9.67415,0.75915
-0.33127,1.63021,-0.13495,-0.07677,-0.22554,0.36276,0.43794,0.01578,0.59328,0.71721,-0.61555,-2.46819,0.35397,0.75409,0.35585,-0.42359,-5.84506,9.19917,-7.87681
-0.33111,1.62653,-0.13225,-0.06127,-0.23424,0.32911,0.45490,0.44385,0.39312,1.10955,-0.55814,-2.24879,0.35984,0.74549,0.35413,-0.43514,-0.68764,30.35676,-12.91459
-0.33074,1.62268,-0.12978,-0.04577,-0.24378,0.29887,0.42487,0.74776,0.21674,1.33439,-0.86736,-2.15239,0.36627,0.73751,0.35201,-0.44499,-1.38477,26.79997,-12.56321
-0.33017,1.61865,-0.12777,-0.03045,-0.25416,0.26790,0.30497,0.82262,0.09641,0.98056,-0.68345,-1.77482,0.37149,0.73343,0.34932,-0.44951,-7.26075,7.77724,-8.04296
-0.32977,1.61481,-0.12551,-0.02299,-0.26082,0.24734,0.20545,0.72697,0.07694,0.25591,-0.36668,-1.27358,0.37291,0.73276,0.34742,-0.45089,-8.39526,-5.51217,-2.32519
-0.32979,1.61116,-0.12313,-0.02307,-0.26304,0.23283,0.15753,0.65507,0.09910,-0.44169,-0.01446,-1.19121,0.37292,0.73216,0.34573,-0.45315,-4.92359,-7.86808,1.01607
-0.33015,1.60771,-0.12084,-0.02692,-0.26149,0.22035,0.14702,0.66540,0.13007,-0.75185,0.27139,-1.21336,0.37295,0.73035,0.34361,-0.45764,-2.59474,-3.25985,2.69894
-0.32724,1.60578,-0.12162,-0.02854,-0.25179,0.19205,0.14923,0.79450,0.17370,-0.61296,0.61590,-1.09241,0.37363,0.72669,0.33981,-0.46567,-0.05073,6.60949,3.22673
-0.32260,1.60458,-0.12296,-0.02183,-0.23855,0.17037,0.18588,0.91792,0.17888,-0.24142,0.66296,-0.70330,0.37483,0.72170,0.33713,-0.47433,2.19169,11.52798,-0.19939
-0.31899,1.60314,-0.12349,-0.01645,-0.22750,0.15768,0.20465,0.89721,0.21380,-0.27797,0.63452,-0.30072,0.37394,0.71918,0.33528,-0.48014,2.23683,1.58949,1.93954
-0.32002,1.60094,-0.12164,-0.02433,-0.21653,0.15638,0.23734,0.77785,0.29696,-0.45504,0.77600,0.14044,0.37015,0.71895,0.33436,-0.48405,2.31521,-6.52698,4.74261
-0.32164,1.59924,-0.11958,-0.03801,-0.20107,0.15926,0.28587,0.57363,0.44060,-0.76959,0.87906,0.29607,0.36278,0.72120,0.33417,-0.48641,3.34835,-12.64325,7.53373
-0.32279,1.59734,-0.11721,-0.04568,-0.18892,0.16281,0.34296,0.52046,0.50730,-0.47480,0.84716,0.43748,0.35772,0.72073,0.33367,-0.49117,3.70385,-5.35532,5.75123
-0.32234,1.59617,-0.11567,-0.04641,-0.17604,0.16674,0.40288,0.44556,0.54720,-0.05667,0.74999,0.62100,0.35239,0.72037,0.33413,-0.49521,5.02516,-3.14959,2.49700
-0.32180,1.59517,-0.11387,-0.04454,-0.16287,0.17273,0.45829,0.33543,0.58489,-0.09763,0.83828,0.77292,0.34614,0.72087,0.33531,-0.49809,4.08629,-9.07935,2.53188
-0.32169,1.59407,-0.11146,-0.04151,-0.15085,0.18052,0.52061,0.32182,0.57994,0.05944,0.76336,0.71626,0.34129,0.71949,0.33657,-0.50257,4.60422,-3.11056,0.69635
-0.32222,1.59298,-0.10890,-0.03934,-0.14003,0.18621,0.57268,0.34728,0.56993,0.30565,0.58234,0.28272,0.33698,0.71732,0.33754,-0.50791,4.72761,2.44472,-1.47851
-0.32258,1.59207,-0.10657,-0.03487,-0.12856,0.18683,0.56571,0.30137,0.57541,0.59234,0.76199,0.04588,0.33237,0.71697,0.33786,-0.51121,-0.23906,-2.06691,0.19464
-0.32253,1.59110,-0.10410,-0.02647,-0.11811,0.18659,0.53865,0.24108,0.56303,0.62730,0.71013,0.01656,0.32826,0.71712,0.33820,-0.51342,-1.54635,-5.59647,-0.42956
-0.32215,1.59005,-0.10154,-0.01559,-0.10962,0.18614,0.53219,0.29395,0.51680,0.91804,0.77921,0.03626,0.32596,0.71493,0.33833,-0.51784,-1.26666,0.18178,-1.94296
-0.32103,1.58913,-0.09891,0.00347,-0.10102,0.18660,0.54362,0.42407,0.39953,1.58629,0.55885,0.08704,0.32645,0.70995,0.33922,-0.52377,-0.00037,9.60399,-6.78972
-0.31912,1.58816,-0.09619,0.03019,-0.09475,0.18833,0.56056,0.52314,0.23317,1.84500,0.25656,0.04041,0.32854,0.70407,0.34165,-0.52880,0.89731,8.10494,-10.17182
-0.31711,1.58707,-0.09352,0.05336,-0.09154,0.18912,0.55392,0.48607,0.12763,1.72520,0.15115,-0.01431,0.32890,0.70083,0.34445,-0.53104,-0.40566,0.15761,-8.72036
-0.31515,1.58599,-0.09086,0.07073,-0.08863,0.18937,0.53685,0.40840,0.06394,1.33628,0.29376,-0.02151,0.32838,0.69888,0.34723,-0.53214,-1.21490,-6.14978,-6.33907
-0.31282,1.58522,-0.08828,0.08988,-0.08207,0.18861,0.52973,0.37245,-0.00344,0.94885,0.46259,-0.03320,0.32845,0.69621,0.35015,-0.53368,-1.01980,-3.39813,-4.95652
-0.31064,1.58456,-0.08576,0.10333,-0.07506,0.18710,0.54337,0.40073,-0.04035,0.98806,0.57852,-0.14244,0.32840,0.69241,0.35255,-0.53706,0.86506,2.20268,-3.37373
-0.30810,1.58416,-0.08333,0.11962,-0.06552,0.18464,0.55781,0.36680,-0.08708,1.13980,0.56495,-0.21829,0.32802,0.68935,0.35596,-0.53897,1.31504,-1.06185,-3.04675
-0.30534,1.58390,-0.08098,0.13607,-0.05557,0.18116,0.57627,0.30192,-0.14539,0.92476,0.72779,-0.23778,0.32754,0.68666,0.36031,-0.53981,0.99184,-4.50307,-4.08031
-0.30276,1.58373,-0.07871,0.14660,-0.04633,0.17743,0.59503,0.26210,-0.17484,0.86175,0.82342,-0.38088,0.32672,0.68389,0.36430,-0.54114,1.31746,-2.76704,-3.02273
-0.30006,1.58385,-0.07660,0.15625,-0.03506,0.17209,0.59905,0.21825,-0.20349,0.73264,1.07237,-0.51975,0.32604,0.68143,0.36830,-0.54195,0.79047,-4.08642,-2.17151
-0.29704,1.58466,-0.07492,0.16849,-0.01587,0.16146,0.59699,0.23492,-0.23414,0.79573,1.32962,-0.73586,0.32623,0.67799,0.37176,-0.54378,0.06141,-0.18081,-2.02509
-0.29369,1.58572,-0.07341,0.18358,0.00309,0.15043,0.57530,0.28511,-0.29471,1.33402,1.37597,-0.78960,0.32805,0.67370,0.37494,-0.54583,-0.77400,3.72502,-2.55722
-0.28968,1.58703,-0.07193,0.20534,0.02189,0.14129,0.55716,0.32770,-0.39873,1.81206,1.39327,-0.53911,0.33119,0.66873,0.37906,-0.54719,-1.63387,2.79644,-6.45161
-0.28483,1.58857,-0.07035,0.23500,0.04028,0.13567,0.55513,0.37642,-0.55629,2.44227,1.32984,-0.22502,0.33601,0.66241,0.38464,-0.54806,-0.66921,4.44624,-10.25706
-0.27914,1.59019,-0.06845,0.27110,0.05596,0.13598,0.59566,0.38839,-0.75985,2.80696,1.08628,0.20065,0.34147,0.65507,0.39282,-0.54769,1.15155,2.62861,-13.54765
-0.27276,1.59181,-0.06613,0.30966,0.06827,0.14241,0.67335,0.33695,-0.95545,2.89053,0.79144,0.57826,0.34605,0.64773,0.40332,-0.54593,4.41146,-1.44333,-14.41095
-0.26585,1.59338,-0.06346,0.34809,0.07743,0.15262,0.78351,0.21204,-1.13662,2.80597,0.60204,0.77761,0.34912,0.64088,0.41625,-0.54233,6.20900,-7.75938,-13.57892
-0.25848,1.59499,-0.06058,0.38547,0.08523,0.16378,0.89593,0.06452,-1.31493,2.59903,0.52205,0.79598,0.35172,0.63400,0.43083,-0.53733,7.26540,-10.25209,-13.57993
-0.25075,1.59659,-0.05763,0.42030,0.09145,0.17356,1.00308,-0.07370,-1.46865,2.39120,0.35584,0.60102,0.35380,0.62690,0.44618,-0.53174,6.86164,-10.18912,-12.07270
-0.24246,1.59827,-0.05466,0.45687,0.09751,0.18183,1.07859,-0.19382,-1.63178,2.14348,0.32053,0.48916,0.35662,0.61943,0.46195,-0.52510,4.11569,-7.94900,-10.45985
-0.23462,1.59983,-0.05186,0.47873,0.10046,0.18577,1.12514,-0.21476,-1.72622,2.09339,0.29538,0.43094,0.35987,0.61103,0.47588,-0.52026,4.14563,-5.08307,-10.07074
-0.22503,1.60149,-0.04884,0.52269,0.10430,0.19245,1.23665,-0.19072,-1.93931,2.18011,-0.02338,0.31929,0.36507,0.59884,0.49300,-0.51485,5.88520,1.40872,-10.80646
-0.21579,1.60281,-0.04579,0.55322,0.10216,0.19808,1.34167,-0.17505,-2.10179,2.21309,-0.19326,0.52712,0.36959,0.58638,0.50998,-0.50939,6.55558,1.50655,-11.14027
-0.20668,1.60400,-0.04263,0.57458,0.09862,0.20429,1.44090,-0.20326,-2.21083,2.22886,-0.43339,0.63487,0.37268,0.57419,0.52733,-0.50333,9.48432,-0.05249,-11.24223
-0.19632,1.60481,-0.03881,0.61016,0.09001,0.21909,1.61145,-0.39852,-2.38720,1.95449,-0.47477,0.86506,0.37302,0.56184,0.54966,-0.49302,7.78695,-10.80177,-11.37157
-0.18633,1.60579,-0.03512,0.63326,0.08578,0.22888,1.70216,-0.57092,-2.47231,2.05658,-0.34296,0.73796,0.37246,0.55086,0.57008,-0.48253,7.06210,-13.39483,-9.40128
-0.17561,1.60672,-0.03126,0.66204,0.08184,0.23906,1.75436,-0.82706,-2.58023,2.21082,-0.45632,0.59327,0.37059,0.54124,0.59187,-0.46842,3.06381,-16.43440,-8.90866
-0.16475,1.60739,-0.02744,0.68690,0.07488,0.24661,1.74236,-1.06028,-2.68470,2.12129,-0.76274,0.73130,0.36902,0.53249,0.61294,-0.45232,-3.04125,-18.93108,-10.50893
-0.15294,1.60726,-0.02315,0.71998,0.05716,0.25932,1.72031,-1.35065,-2.86625,2.02628,-1.41434,0.98100,0.36704,0.52382,0.63605,-0.43166,-4.30468,-16.96323,-12.53799
-0.14105,1.60650,-0.01856,0.74813,0.03349,0.27405,1.75466,-1.49933,-3.07335,1.82312,-1.74615,1.31836,0.36637,0.51151,0.65932,-0.41161,-0.56876,-11.41406,-15.76270
-0.12936,1.60570,-0.01388,0.76713,0.01496,0.28695,1.83138,-1.52455,-3.21517,1.68535,-1.78286,1.46809,0.36595,0.49650,0.68150,-0.39385,5.32068,-6.09100,-15.81289
-0.11658,1.60384,-0.00833,0.79713,-0.01488,0.30920,2.05311,-1.42169,-3.40910,1.76676,-1.86694,1.54822,0.36655,0.47439,0.70552,-0.37795,14.83948,3.12534,-10.61290
-0.10379,1.60168,-0.00251,0.82165,-0.04345,0.33146,2.32271,-1.28459,-3.51469,1.66383,-2.23806,1.74540,0.36577,0.44954,0.72872,-0.36482,21.52233,7.12925,-5.58042
-0.09101,1.59867,0.00389,0.84161,-0.07881,0.35779,2.58376,-1.23836,-3.60334,1.44653,-2.93405,2.05601,0.36263,0.42382,0.75234,-0.35052,20.10752,1.54025,-3.02835
-0.07820,1.59441,0.01093,0.85714,-0.12508,0.38766,2.80133,-1.29904,-3.71896,1.04298,-3.84175,2.16083,0.35734,0.39775,0.77669,-0.33295,16.41510,-5.60880,-6.37499
-0.06557,1.58805,0.01869,0.86730,-0.19383,0.42260,3.02239,-1.44231,-3.89617,0.25867,-4.90562,2.14101,0.34987,0.36996,0.80224,-0.31166,11.17157,-10.26584,-12.10995
-0.05357,1.58016,0.02620,0.86611,-0.27198,0.44691,3.33368,-1.48487,-4.01585,-0.67738,-6.09538,1.51291,0.34138,0.33754,0.82688,-0.29291,17.69995,-9.07785,-9.64906
-0.04207,1.57094,0.03328,0.85731,-0.35230,0.45925,3.74158,-1.44023,-4.05643,-1.04213,-7.02942,0.91056,0.33135,0.29965,0.85039,-0.27794,29.74189,-5.11079,-2.23001
-0.03152,1.55797,0.04023,0.83707,-0.47169,0.46750,4.29953,-1.43682,-4.11474,-1.46639,-7.99038,0.17121,0.31723,0.25453,0.87463,-0.26382,36.24790,-8.16583,0.45012
-0.02183,1.54389,0.04668,0.80778,-0.58448,0.46676,4.60958,-1.57059,-4.25744,-2.51590,-8.56707,-0.61385,0.30164,0.21254,0.89708,-0.24306,24.44741,-12.54413,-8.96724
-0.01363,1.52775,0.05241,0.76142,-0.70403,0.45479,4.74738,-1.76797,-4.45629,-4.06128,-8.95753,-1.46435,0.28478,0.17260,0.91763,-0.21692,10.37516,-11.92877,-16.51889
-0.00692,1.51067,0.05723,0.70425,-0.81161,0.43255,4.80981,-1.95044,-4.63906,-5.51161,-9.21197,-2.38334,0.26699,0.13361,0.93554,-0.18874,3.80273,-10.86357,-18.92463
-0.00220,1.49163,0.06087,0.63103,-0.92182,0.39817,4.88471,-2.10661,-4.83810,-6.78648,-9.25863,-3.36525,0.24792,0.09262,0.95126,-0.15829,4.00411,-8.79539,-19.58381
-0.00181,1.46858,0.06177,0.51068,-1.06760,0.33129,5.02501,-2.27385,-5.12486,-8.40035,-9.00602,-5.08714,0.22660,0.04778,0.96490,-0.12381,7.62123,-7.22079,-19.39793
-0.00342,1.44538,0.06074,0.38434,-1.18883,0.24942,5.19569,-2.34984,-5.39513,-9.73791,-8.45007,-6.49388,0.20588,0.00023,0.97455,-0.08871,11.66318,-3.26557,-20.01388
-0.00802,1.42134,0.05694,0.23989,-1.29621,0.14370,5.44182,-2.39170,-5.63803,-11.25850,-6.87407,-8.54154,0.18391,-0.05147,0.98015,-0.05325,18.98240,-4.54589,-16.69110
-0.01468,1.39841,0.05110,0.09715,-1.36550,0.03173,5.67592,-2.47791,-5.76119,-12.87999,-4.55325,-10.09076,0.15903,-0.10319,0.98167,-0.01990,18.74415,-5.63471,-12.25786
-0.02817,1.37606,0.03922,-0.11443,-1.41260,-0.14430,5.96724,-2.79629,-5.80532,-13.54361,-1.30617,-11.89228,0.12447,-0.15624,0.97978,0.01147,13.13840,-23.18061,-6.75514
-0.04431,1.35709,0.02356,-0.32727,-1.40055,-0.34432,6.15139,-3.16875,-5.72675,-13.32378,2.99813,-12.89012,0.08619,-0.20600,0.97394,0.03956,3.46539,-21.62314,-6.79496
-0.05760,1.34026,0.00977,-0.45298,-1.36184,-0.47415,6.24104,-3.55527,-5.55839,-12.42049,5.17776,-12.96232,0.04489,-0.25231,0.96450,0.06366,-4.33211,-34.39101,-3.02047
-0.07763,1.33000,-0.01309,-0.65007,-1.23552,-0.70873,6.15994,-4.27958,-5.23155,-9.61377,9.19275,-13.58980,-0.00968,-0.29109,0.95326,0.08039,-21.13695,-42.15699,-4.08613
-0.09543,1.32407,-0.03682,-0.78039,-1.06452,-0.91666,5.83983,-4.68717,-4.96136,-6.58491,12.32135,-13.03466,-0.05710,-0.32216,0.93989,0.09772,-29.62126,-21.64879,-2.04590
-0.11083,1.32091,-0.06067,-0.84880,-0.88643,-1.08552,5.48943,-4.92214,-4.64294,-3.46987,13.57521,-11.43889,-0.10054,-0.34961,0.92479,0.11149,-33.68271,-12.97097,4.76190
-0.12465,1.32132,-0.08555,-0.87924,-0.69217,-1.23457,5.05147,-5.25235,-4.21973,-1.31676,14.86463,-9.92955,-0.14691,-0.37141,0.90912,0.11822,-41.21167,-15.74961,9.03809
-0.13723,1.32370,-0.11049,-0.88357,-0.51134,-1.35018,4.60326,-5.71574,-3.81849,0.16939,15.84988,-9.11998,-0.19900,-0.38958,0.89119,0.12007,-51.23417,-26.77503,4.99878
-0.14845,1.33200,-0.13782,-0.86725,-0.28329,-1.47599,3.98066,-6.38379,-3.40892,1.96249,17.19963,-8.83423,-0.25957,-0.39889,0.87201,0.11449,-59.58618,-38.06718,-5.22661
-0.15786,1.34487,-0.16653,-0.82751,-0.03496,-1.59648,3.28847,-7.07002,-3.11581,3.71397,18.54007,-8.47915,-0.32441,-0.40141,0.84991,0.10625,-60.38241,-37.25988,-15.09200
-0.16495,1.36241,-0.19657,-0.76223,0.23132,-1.71237,2.53107,-7.79792,-2.94000,5.59458,19.94173,-8.06450,-0.39393,-0.39636,0.82381,0.09517,-58.95997,-36.94012,-25.36550
-0.16913,1.38514,-0.22787,-0.66654,0.51890,-1.82123,1.67846,-8.60936,-2.88322,8.02380,21.53522,-7.38707,-0.46956,-0.38187,0.79197,0.08045,-59.33950,-43.26379,-36.98122
-0.16984,1.41313,-0.25963,-0.53991,0.82494,-1.91526,0.70909,-9.30096,-3.01913,10.56026,22.66849,-6.34024,-0.54575,-0.35519,0.75606,0.06609,-59.47334,-39.80819,-52.25826
-0.16679,1.44644,-0.29143,-0.38401,1.14594,-1.99032,-0.20809,-9.53275,-3.40481,12.91390,23.30570,-4.87193,-0.61305,-0.31932,0.72014,0.06008,-42.19959,-13.93941,-62.57613
-0.15959,1.48476,-0.32288,-0.19912,1.47485,-2.04502,-0.97731,-9.31239,-3.93550,14.63875,24.05719,-3.31234,-0.66877,-0.27763,0.68682,0.06279,-19.35132,17.25832,-62.69326
-0.14782,1.52856,-0.35378,0.01486,1.81774,-2.08138,-1.72584,-9.01771,-4.65642,16.41219,25.64060,-2.03806,-0.72045,-0.22566,0.65192,0.07095,-3.98422,26.05113,-69.35088
-0.13044,1.57854,-0.38439,0.26758,2.17895,-2.10410,-2.50682,-8.88924,-5.58847,19.88006,26.81264,-1.24113,-0.77251,-0.15990,0.60909,0.08168,-0.95693,10.27430,-83.93200
-0.10546,1.63453,-0.41436,0.58026,2.55529,-2.11387,-3.25005,-8.78282,-6.62677,25.24145,27.73036,-0.10224,-0.81917,-0.08302,0.55957,0.09460,1.11039,-2.40733,-91.16624
-0.06806,1.69886,-0.44382,1.01849,2.98370,-2.11527,-3.65144,-8.86311,-7.98004,32.76808,27.58102,2.19276,-0.86076,0.00185,0.49490,0.11902,22.16495,-14.65782,-94.38284
-0.02535,1.76356,-0.47044,1.44360,3.32824,-2.07280,-4.34600,-8.30970,-8.89411,39.50082,29.80515,4.87980,-0.88144,0.09339,0.44375,0.13206,12.52073,3.49600,-80.44159
0.04074,1.84071,-0.49267,2.12797,3.78279,-1.97216,-4.16409,-7.30411,-10.38150,48.06224,25.90020,9.07894,-0.88150,0.18986,0.39429,0.17733,76.56052,-3.60410,-95.77158
0.11115,1.91387,-0.51149,2.73371,4.08628,-1.84355,-3.62324,-6.31882,-11.23109,54.26420,24.38494,13.05396,-0.86916,0.26982,0.35000,0.22195,105.15330,2.12695,-43.29887
0.20458,1.99276,-0.52188,3.54591,4.40900,-1.61994,-2.79568,-5.17861,-12.60758,62.74632,22.52156,18.68446,-0.83346,0.36107,0.30643,0.28472,118.61830,-21.84529,-62.16361
0.32688,2.07397,-0.51938,4.62658,4.69801,-1.24541,-1.46021,-4.01861,-14.86670,74.48873,13.83536,29.96905,-0.76059,0.46821,0.25342,0.37157,113.98100,-55.93470,-107.65320
0.45348,2.14718,-0.51011,5.55053,4.81417,-0.85076,0.56898,-3.09261,-16.70853,83.53907,4.30258,39.25428,-0.65823,0.55316,0.19965,0.46999,156.63270,-108.73640,-114.27900
0.62962,2.20726,-0.47279,7.01485,4.70073,-0.11897,3.93086,-2.33314,-19.97288,103.26290,-22.76344,53.37967,-0.47196,0.63193,0.12507,0.60189,138.32510,-190.98450,-176.02960
0.81506,2.23728,-0.42559,8.31258,4.16968,0.60446,5.67354,-1.83798,-23.38729,116.14180,-69.56946,65.35206,-0.24644,0.70067,0.01749,0.66934,99.39803,-149.97570,-270.27770
1.03571,2.19082,-0.34896,9.83947,2.63218,1.59858,7.01323,0.03679,-27.02145,99.99001,-153.96710,73.28647,0.03543,0.74748,-0.08057,0.65843,154.40130,-55.09283,-265.19450
1.23886,2.04193,-0.26009,10.77954,-0.08241,2.56243,9.25842,3.37985,-29.27691,28.80607,-233.04330,60.57328,0.33146,0.74070,-0.12113,0.57169,178.26980,-141.79420,-225.99570
1.37486,1.82882,-0.18415,10.56802,-3.12294,3.13538,12.93104,6.01746,-28.79276,-65.64923,-269.26770,33.32881,0.57905,0.66515,-0.08945,0.46290,108.04950,-266.70620,-219.01570
1.40691,1.52568,-0.13020,8.92192,-6.78033,3.26981,19.36398,7.84307,-26.71047,-166.08490,-248.53360,-19.54778,0.80372,0.50394,0.02830,0.31508,-99.64697,-261.85610,-346.02750
1.32598,1.21928,-0.12511,6.01211,-9.74729,2.68766,29.87498,8.34863,-23.31224,-241.28340,-176.36890,-67.09810,0.95124,0.19305,0.23333,0.05863,5.69728,-91.13805,-706.17110
1.07266,0.95436,-0.20350,1.87501,-11.44222,1.12780,40.41531,0.67621,-20.86634,-248.41890,-19.54694,-116.43000,0.85870,-0.29592,0.38392,-0.16634,377.40610,520.95730,-619.21720
0.84009,0.86223,-0.29327,-1.16053,-10.63542,-0.50813,37.33996,-7.82585,-19.18172,-164.50670,110.26000,-85.38969,0.69857,-0.54723,0.43031,-0.16543,195.94750,668.49620,-320.75870
0.69846,0.85591,-0.34780,-2.55214,-8.74904,-1.36203,24.01334,-5.27887,-17.86567,-46.26374,127.63360,-21.69464,0.77320,-0.51169,0.37461,0.00248,-405.70200,638.33390,565.32170
0.64737,0.84735,-0.35907,-2.74953,-7.07063,-1.27280,13.51114,-0.84010,-13.01636,15.45301,92.88108,22.16612,0.86287,-0.36526,0.32088,0.13810,-347.07770,442.78130,671.76810
0.61547,0.81428,-0.34396,-2.62798,-6.08308,-0.79679,9.43873,-2.22873,-8.28312,9.41755,57.62487,40.92202,0.85146,-0.30738,0.39509,0.15634,-404.59460,-70.90631,318.05070
0.58018,0.76588,-0.31984,-2.59590,-5.54289,-0.28705,4.96797,-3.17547,-7.10628,-4.14184,36.78781,41.40863,0.81453,-0.29969,0.43516,0.23949,-396.42530,2.92605,52.38757
0.54142,0.71742,-0.28790,-2.62740,-5.12246,0.21397,0.87891,-1.97158,-6.18468,-4.51564,27.46111,31.05385,0.79749,-0.26295,0.42238,0.34126,-267.90650,200.37600,29.53893
0.49832,0.67143,-0.25827,-2.71401,-4.75016,0.58371,-1.79780,-0.20888,-5.62293,-8.17794,31.48063,22.63711,0.78640,-0.22962,0.38192,0.42777,-153.35580,202.06960,26.74323
0.45228,0.63634,-0.23169,-2.82712,-4.29717,0.84270,-2.99457,1.21031,-5.67996,-4.92724,36.28814,15.38843,0.77437,-0.22287,0.32977,0.49186,-51.66933,158.63450,-23.31043
0.40887,0.61115,-0.20740,-2.88410,-3.79916,1.02235,-3.34890,1.49809,-5.73252,-0.16987,36.17519,11.14227,0.75499,-0.23468,0.29975,0.53392,-17.08752,43.52789,-14.78815
0.37123,0.59108,-0.18391,-2.84774,-3.33042,1.15519,-3.60187,1.39663,-5.40311,6.62170,31.11697,8.18153,0.73351,-0.24113,0.28471,0.56812,-15.42900,8.80747,12.28141
0.34093,0.57265,-0.16073,-2.72466,-2.93259,1.25688,-4.02540,0.83696,-4.44735,10.91288,25.44638,6.44391,0.70812,-0.23339,0.29557,0.59727,-24.84299,-5.48006,65.07154
0.31598,0.55466,-0.13842,-2.56981,-2.61141,1.32828,-4.62531,0.34107,-3.22526,9.99137,21.45955,3.52050,0.67954,-0.21119,0.31765,0.62667,-49.79116,-1.54134,94.93356
0.29084,0.53597,-0.11829,-2.44628,-2.36453,1.35495,-4.95882,0.30062,-2.27306,8.92425,21.01404,0.97035,0.65600,-0.18554,0.32920,0.65335,-30.68311,22.49507,84.83418
0.26794,0.52717,-0.10044,-2.30230,-2.02257,1.34058,-5.10090,0.69246,-1.19681,7.84407,23.23018,-3.13390,0.64078,-0.14562,0.33507,0.67522,-9.21068,46.24160,58.44913
0.24434,0.52211,-0.08658,-2.19886,-1.69149,1.27289,-4.76816,1.46871,-0.61342,5.06575,25.47105,-6.64935,0.63731,-0.10976,0.32197,0.69147,21.25423,57.25660,33.30454
0.22057,0.52534,-0.07780,-2.11928,-1.30316,1.14540,-3.82792,3.16394,-0.80177,2.69090,24.39767,-9.42124,0.65457,-0.07546,0.26614,0.70357,52.93263,90.50411,-38.29080
0.19402,0.52847,-0.07119,-2.07919,-0.98995,1.00798,-2.66109,4.91771,-1.67785,2.05881,21.40803,-10.10229,0.67675,-0.05263,0.18263,0.71125,67.25033,102.63190,-100.47690
0.16699,0.53055,-0.06498,-2.05744,-0.76013,0.89575,-1.70036,6.14642,-2.72052,2.18810,17.14487,-8.70570,0.69196,-0.03981,0.09337,0.71476,57.02954,90.43732,-128.54200
0.13992,0.53305,-0.05871,-2.04156,-0.57575,0.81100,-1.14635,6.36533,-3.49760,3.77002,12.76790,-6.26989,0.69513,-0.04010,0.02379,0.71737,31.63670,42.21579,-112.78340
0.11479,0.54134,-0.05398,-2.00074,-0.34291,0.71777,-1.13839,4.48926,-3.56407,4.65758,11.82808,-5.56481,0.68329,-0.07121,0.02010,0.72639,-23.85728,-93.69769,2.06180
0.09185,0.54759,-0.04900,-1.93543,-0.18049,0.64518,-1.31685,2.33576,-3.07162,5.91310,11.03693,-5.49431,0.66778,-0.10362,0.04579,0.73569,-40.09357,-145.28970,49.84226
0.07248,0.55444,-0.04541,-1.82922,-0.04260,0.56745,-1.30682,0.71215,-2.56124,8.21541,9.45611,-5.16261,0.65613,-0.13267,0.07165,0.73943,-26.78152,-126.66760,51.89830
0.05579,0.56054,-0.04188,-1.70455,0.05364,0.50452,-1.10076,0.05565,-2.34324,10.49659,7.63272,-4.19743,0.65079,-0.15207,0.07709,0.73987,-2.40042,-76.64877,34.90052
0.04663,0.56755,-0.03861,-1.49781,0.14337,0.45170,-0.79679,0.04429,-2.16315,13.76825,4.01893,-1.41455,0.65133,-0.15944,0.06974,0.73857,21.49684,-6.86824,11.60430
0.03994,0.57268,-0.03266,-1.29336,0.18892,0.44784,-0.84667,0.20373,-1.85150,15.32073,2.09670,0.73627,0.64601,-0.15746,0.06349,0.74421,4.46674,11.87250,18.14655
0.03658,0.57656,-0.02508,-1.08017,0.20577,0.46921,-0.84720,0.46553,-1.17169,14.84789,-0.00696,2.81010,0.64435,-0.14258,0.06476,0.74853,7.23591,18.36336,42.10001
0.03515,0.57973,-0.01628,-0.88312,0.20937,0.50355,-0.96840,0.83968,-0.65444,13.17866,1.01402,2.04863,0.63949,-0.12332,0.06263,0.75625,-10.06901,28.56252,45.72385
0.03366,0.58326,-0.00799,-0.72860,0.21768,0.52245,-0.95007,1.21682,-0.54450,12.33231,1.26341,1.15560,0.63604,-0.10917,0.05041,0.76223,1.73172,31.06839,14.71287
0.03540,0.58751,-0.00024,-0.56158,0.23265,0.52988,-0.88550,1.63127,-0.57924,11.63307,0.97646,-0.07307,0.63325,-0.09482,0.03194,0.76746,5.87897,31.95042,-4.93045
0.03965,0.59188,0.00655,-0.38967,0.24610,0.52228,-0.89804,1.85333,-0.53763,10.46864,0.21104,-1.06526,0.62854,-0.08161,0.01803,0.77327,1.01892,17.55493,-1.81864
0.04345,0.59554,0.01249,-0.25659,0.24838,0.50317,-0.96297,1.80904,-0.32276,9.19506,-0.29902,-1.90763,0.62271,-0.07012,0.01424,0.77917,-2.92712,1.13152,13.16020
0.04807,0.59874,0.01745,-0.13908,0.24284,0.47318,-1.00227,1.68108,-0.05307,7.88699,-0.52828,-2.56492,0.61732,-0.05894,0.01513,0.78435,-1.33192,-6.74695,20.61893
0.05239,0.60172,0.02171,-0.05046,0.23539,0.43937,-0.99258,1.57779,0.09903,6.89516,-0.49516,-3.15357,0.61266,-0.04922,0.01438,0.78868,1.02191,-8.41735,17.32777
0.05986,0.60417,0.02355,0.06693,0.22141,0.37641,-1.00366,1.37476,0.27068,6.55197,-1.23642,-4.19161,0.60754,-0.04164,0.01731,0.79301,1.90922,-8.19832,6.10483
0.06575,0.60663,0.02543,0.13874,0.20993,0.32614,-1.01088,1.16467,0.46854,5.71389,-0.85809,-4.33900,0.60240,-0.03412,0.02306,0.79713,-0.78699,-18.49517,20.19209
0.07256,0.60880,0.02626,0.20760,0.19695,0.27245,-0.97533,1.05872,0.57816,5.45886,-1.10882,-4.55539,0.59823,-0.02610,0.02629,0.80047,3.32243,-10.99680,12.50246
0.08210,0.61022,0.02435,0.30258,0.17229,0.18680,-0.86112,1.00184,0.64987,5.00173,-1.59899,-4.96360,0.59630,-0.01782,0.02823,0.80207,6.70224,-2.94545,3.55495
0.09093,0.61165,0.02273,0.36963,0.14987,0.11890,-0.76400,0.98560,0.71845,4.54980,-1.73863,-5.01256,0.59443,-0.00849,0.02979,0.80355,7.46182,-0.67405,4.56285
0.10025,0.61267,0.02002,0.43047,0.12673,0.04975,-0.66833,1.00329,0.75253,4.04112,-1.66305,-5.02729,0.59302,0.00120,0.03022,0.80462,7.35636,0.63866,3.32067
0.10998,0.61331,0.01618,0.48493,0.10267,-0.02069,-0.55434,1.08900,0.68296,3.58547,-1.74869,-5.11969,0.59253,0.01079,0.02660,0.80504,7.18137,5.27190,-3.56241
0.12011,0.61378,0.01135,0.53316,0.07815,-0.09223,-0.43567,1.18001,0.59441,3.29029,-1.82585,-5.43865,0.59275,0.02034,0.02153,0.80484,7.35512,7.22116,-7.88969
0.13057,0.61395,0.00508,0.57706,0.05641,-0.16928,-0.32901,1.21305,0.52167,3.04810,-1.58458,-5.78020,0.59328,0.02875,0.01722,0.80430,7.51860,3.33795,-6.08953
0.14162,0.61393,-0.00247,0.61825,0.03424,-0.24885,-0.25067,1.22613,0.45918,2.81308,-1.86024,-5.73910,0.59357,0.03671,0.01310,0.80384,5.04088,1.04687,-4.56937
0.15329,0.61331,-0.01118,0.65910,0.00619,-0.32898,-0.14138,1.24942,0.42214,3.01118,-2.32994,-5.96153,0.59509,0.04524,0.00901,0.80234,6.22648,1.57728,-4.97784
0.16607,0.61164,-0.02220,0.70991,-0.03019,-0.42812,0.06078,1.33106,0.45522,3.16327,-2.50993,-6.39276,0.59956,0.05659,0.00549,0.79831,12.21151,3.94321,1.52960
0.17866,0.60939,-0.03305,0.74847,-0.06377,-0.50352,0.23721,1.47746,0.43827,3.04086,-3.17102,-6.18380,0.60438,0.06929,-0.00072,0.79368,13.44222,10.31745,-0.90441
0.19262,0.60525,-0.04636,0.79834,-0.12052,-0.59979,0.54209,1.70680,0.44293,3.18214,-3.97058,-6.08562,0.61330,0.08531,-0.00866,0.78518,17.57742,15.31343,-3.32449
0.20665,0.60035,-0.06023,0.84127,-0.17244,-0.68433,0.84138,1.87751,0.57293,3.11608,-3.63218,-6.25283,0.62314,0.10345,-0.01282,0.77513,20.84549,13.03244,4.95457
0.22139,0.59571,-0.07538,0.88253,-0.21610,-0.77109,1.15658,2.04479,0.73601,2.63389,-2.78069,-6.33185,0.63446,0.12357,-0.01575,0.76285,24.02949,11.54515,10.08012
0.23599,0.59131,-0.09108,0.91268,-0.24491,-0.84572,1.42641,2.20036,0.83909,2.18208,-2.11365,-6.18670,0.64599,0.14392,-0.01975,0.74940,22.89747,13.63875,7.14891
0.25077,0.58698,-0.10856,0.93953,-0.26481,-0.93003,1.73021,2.32805,0.96261,1.62308,-0.71292,-5.97390,0.65919,0.16524,-0.02244,0.73326,22.28421,11.52333,5.81969
0.26565,0.58465,-0.12678,0.95896,-0.25747,-1.00807,1.97104,2.40964,1.14483,0.98509,1.53649,-5.20528,0.67146,0.18764,-0.02242,0.71654,21.09706,6.57518,9.00388
0.28004,0.58461,-0.14532,0.96696,-0.21780,-1.07396,2.05697,2.50079,1.27427,-0.22272,3.83260,-3.82858,0.68056,0.21038,-0.02359,0.70144,11.46398,4.20972,11.91874
0.29339,0.58729,-0.16352,0.95837,-0.14487,-1.12196,1.94299,2.65751,1.26595,-1.16694,5.22259,-1.93608,0.68517,0.23257,-0.03029,0.68959,-5.99469,9.12973,2.41555
0.30624,0.59087,-0.18021,0.94362,-0.07645,-1.13821,1.73089,2.75254,1.23766,-1.59854,5.95837,-0.71136,0.68667,0.25325,-0.03767,0.68039,-14.61222,7.61462,1.22290
0.31855,0.59602,-0.19631,0.92435,-0.00112,-1.14136,1.48184,2.82930,1.23438,-1.96557,6.39360,0.24863,0.68563,0.27432,-0.04528,0.67276,-20.33781,4.90851,4.13280
0.32978,0.60443,-0.21160,0.89306,0.10192,-1.13016,1.09102,3.03223,1.18083,-2.26847,6.38981,1.43436,0.67961,0.29726,-0.05876,0.66807,-24.63783,9.60832,3.43895
0.34069,0.61499,-0.22592,0.85954,0.20415,-1.10344,0.65809,3.25268,1.12044,-2.26854,6.22477,2.12803,0.67052,0.32055,-0.07501,0.66485,-28.29813,12.36530,2.24301
0.35121,0.62569,-0.23952,0.82958,0.29401,-1.07149,0.27973,3.38590,1.15506,-2.24278,6.21545,2.51657,0.65970,0.34431,-0.08882,0.66209,-27.11408,8.68781,6.91789
0.36082,0.63635,-0.25230,0.79726,0.38205,-1.03567,-0.08018,3.45588,1.26287,-2.41564,6.16894,2.59051,0.64635,0.36854,-0.10060,0.66052,-24.03623,3.71901,12.76530
0.36983,0.64822,-0.26474,0.76268,0.46572,-1.00144,-0.39944,3.51093,1.37364,-2.70959,5.71468,2.46523,0.63137,0.39277,-0.11219,0.65918,-21.34642,2.02454,14.16003
0.37805,0.66050,-0.27687,0.72428,0.54032,-0.96951,-0.68369,3.57779,1.45350,-2.97468,4.97900,2.27869,0.61499,0.41692,-0.12493,0.65754,-19.50633,2.81053,11.20566
0.38568,0.67181,-0.28859,0.68810,0.59632,-0.94320,-0.88613,3.61403,1.51678,-3.15458,4.48314,2.03768,0.59857,0.44026,-0.13711,0.65505,-16.88200,2.68509,9.04526
0.39164,0.68467,-0.29955,0.63481,0.66376,-0.91178,-1.10099,3.63891,1.62145,-3.56719,3.98516,1.86236,0.57966,0.46394,-0.14855,0.65321,-11.79623,0.81375,9.91684
0.39709,0.69734,-0.31053,0.58356,0.71469,-0.88563,-1.27378,3.64445,1.69213,-3.87069,3.45397,1.85966,0.56038,0.48658,-0.16005,0.65084,-10.62772,-0.13067,8.30256
