posX, posY, posZ, velX, velY, velZ, angVelX, angVelY, angVelZ, accX, accY, accZ, rotX, rotY, rotZ, rotW, angAccX, angAccY, angAccZ
0.36604,1.08559,-0.34871,-0.18294,0.32535,-0.24362,-1.46010,-0.61043,-0.30357,-1.48102,0.25805,-3.27186,0.18496,0.69942,-0.14440,0.67509,14.95227,0.70329,-0.73517
0.36190,1.09105,-0.35470,-0.20682,0.34434,-0.28019,-0.26662,-0.36666,-0.11347,-1.40524,1.43015,-3.15137,0.20118,0.70679,-0.12119,0.66730,75.42676,13.87708,13.27699
0.35773,1.09708,-0.36099,-0.22610,0.36683,-0.31359,0.75519,-0.14888,0.07190,-1.83321,2.40555,-2.29816,0.21846,0.71482,-0.09476,0.65751,94.45258,20.36433,18.26707
0.35286,1.10388,-0.36799,-0.25136,0.39511,-0.34997,1.46074,-0.03590,0.22673,-2.41261,2.44586,-2.09006,0.23346,0.72056,-0.06986,0.64916,61.42017,10.41989,14.00755
0.34698,1.11149,-0.37604,-0.28745,0.43290,-0.39481,1.61755,-0.02421,0.29615,-1.89220,2.73472,-1.97109,0.24091,0.72265,-0.05572,0.64547,12.81846,1.32974,4.72064
0.34167,1.11926,-0.38361,-0.30789,0.46344,-0.42463,1.50848,-0.07471,0.31513,-1.75096,2.67571,-2.78518,0.24402,0.72244,-0.04808,0.64515,-9.62487,-4.42029,0.92053
0.33549,1.12822,-0.39243,-0.33589,0.50158,-0.46723,1.59520,-0.02107,0.29603,-1.89675,2.75455,-3.84090,0.25129,0.72422,-0.03775,0.64104,-1.07490,0.32063,-0.36068
0.32803,1.13786,-0.40216,-0.37738,0.54310,-0.51404,1.95828,0.01482,0.38524,-2.63530,2.89346,-4.39618,0.26207,0.72681,-0.01757,0.63463,21.58397,-5.39202,17.50322
0.32116,1.14850,-0.41243,-0.40114,0.59024,-0.55874,2.46590,0.29131,0.59596,-0.93706,4.20514,-3.70661,0.27383,0.73566,0.00890,0.61947,35.01124,29.01456,4.58669
0.31444,1.16186,-0.42427,-0.41808,0.66677,-0.61711,3.17330,0.80287,0.95520,-1.87619,4.90957,-3.26294,0.28635,0.75106,0.04514,0.59318,46.37199,29.99189,32.05251
0.30669,1.17524,-0.43604,-0.44784,0.73041,-0.66313,3.40546,1.07472,1.11119,-2.84475,4.85332,-2.36542,0.29525,0.76148,0.07108,0.57264,27.80265,20.88340,16.52514
0.29806,1.18944,-0.44789,-0.48437,0.79309,-0.70095,3.13503,1.20199,1.16334,-2.69706,4.82538,-1.85399,0.29664,0.76978,0.08468,0.55882,-11.60505,9.10366,8.77549
0.28899,1.20448,-0.45884,-0.51957,0.85528,-0.71723,2.71081,1.22703,1.16144,-2.67281,4.43974,-0.63554,0.29484,0.77659,0.09253,0.54901,-33.31916,2.96056,4.77910
0.27939,1.22047,-0.46946,-0.55610,0.92049,-0.72559,2.58505,1.25044,1.22863,-2.74656,4.81945,-1.03684,0.29536,0.78307,0.10686,0.53679,-17.31432,-5.76514,3.74121
0.26885,1.23785,-0.47992,-0.59896,0.99212,-0.72993,2.62781,1.34482,1.36459,-3.23997,5.32226,0.04034,0.29657,0.79090,0.12578,0.52029,5.31173,7.46836,9.41369
0.25838,1.25490,-0.49018,-0.63129,1.04409,-0.73007,2.69987,1.39741,1.49169,-3.21303,5.32449,-0.34948,0.29767,0.79782,0.14629,0.50347,2.20632,1.66095,11.48407
0.24608,1.27456,-0.50031,-0.68469,1.12583,-0.72759,3.05516,1.63759,1.72222,-3.51458,4.86132,0.55650,0.30089,0.80725,0.17517,0.47658,21.89156,14.24240,16.12142
0.23345,1.29410,-0.50965,-0.73076,1.18539,-0.71402,3.20539,1.78264,1.82631,-3.42669,3.87144,1.80479,0.30343,0.81475,0.19921,0.45214,15.90804,12.41275,11.01577
0.22047,1.31335,-0.51770,-0.77422,1.23360,-0.68509,3.32174,1.84195,1.85636,-3.14449,3.27869,2.48456,0.30684,0.81984,0.22232,0.42927,5.79671,4.85279,2.49929
0.20696,1.33266,-0.52473,-0.81729,1.27387,-0.64626,3.41385,1.86279,1.86142,-3.25690,2.64210,3.25374,0.31044,0.82343,0.24526,0.40674,10.80075,4.53506,0.53191
0.19247,1.35234,-0.53081,-0.86535,1.30888,-0.60177,3.15077,1.79441,1.80841,-2.91095,2.03224,2.93073,0.30959,0.82733,0.25880,0.39077,-13.97771,-5.05550,-1.85583
0.17818,1.37122,-0.53705,-0.90317,1.33290,-0.56499,2.95601,1.77475,1.77871,-2.70598,1.63594,2.25371,0.30862,0.83135,0.27236,0.37341,-19.19370,-6.45015,-1.26992
0.16358,1.39001,-0.54287,-0.93854,1.35020,-0.52862,3.04365,1.91465,1.74898,-2.49353,1.05642,2.42021,0.31217,0.83465,0.29051,0.34858,0.76468,7.18377,-0.56015
0.14851,1.40885,-0.54737,-0.97206,1.35947,-0.48216,3.28491,2.13711,1.65186,-1.94130,0.12855,3.17309,0.32051,0.83608,0.31080,0.31882,12.53653,16.78093,-3.01242
0.13374,1.42749,-0.55144,-0.99108,1.35786,-0.44176,3.50266,2.30153,1.50434,-1.51342,-0.39871,3.54491,0.33075,0.83518,0.33077,0.28928,13.39236,17.30442,-8.95918
0.11883,1.44557,-0.55407,-1.00877,1.34956,-0.38891,3.78287,2.48609,1.30919,-1.18517,-0.66533,3.99272,0.34459,0.83151,0.35169,0.25723,16.14517,18.86080,-13.03511
0.10371,1.46323,-0.55575,-1.02650,1.33800,-0.33308,3.99274,2.63848,1.13891,-1.40674,-0.98199,4.27699,0.35820,0.82642,0.37160,0.22504,14.48042,17.16307,-11.67717
0.08787,1.47980,-0.55650,-1.05252,1.31794,-0.27085,4.01471,2.71238,0.99204,-1.75134,-1.40753,4.05406,0.36968,0.82137,0.38777,0.19577,1.62848,8.89367,-7.97517
0.07213,1.49663,-0.55808,-1.07032,1.30205,-0.23534,3.92014,2.70784,0.91774,-1.79101,-1.74460,3.58496,0.37786,0.81685,0.40165,0.16930,-6.24328,2.80753,-6.36776
0.05621,1.51178,-0.55850,-1.08669,1.26511,-0.19182,3.38231,2.53010,0.72045,-1.08455,-2.77627,2.22817,0.38413,0.81568,0.40365,0.15549,-33.54089,-12.39842,-7.86737
0.04010,1.52602,-0.55878,-1.10201,1.22068,-0.15337,3.24319,2.74905,0.51745,-1.23736,-2.68136,2.19406,0.39771,0.81168,0.40816,0.12812,-18.52820,13.40369,-6.80133
0.02398,1.54065,-0.55914,-1.11403,1.18958,-0.12538,3.32565,2.91279,0.41792,-1.16634,-3.18558,3.04083,0.41051,0.80435,0.41833,0.09748,2.75357,19.75624,-6.38182
0.00745,1.55326,-0.55749,-1.12852,1.13625,-0.07524,3.23089,2.97905,0.26551,-0.41450,-3.66862,3.65732,0.42348,0.79723,0.42425,0.07145,-1.86740,9.70205,-7.73587
-0.00876,1.56553,-0.55573,-1.13521,1.08819,-0.03300,2.77576,2.83147,0.18255,-0.08341,-3.68207,3.27748,0.43079,0.79526,0.42289,0.05604,-27.26081,-6.66655,-3.62253
-0.02452,1.57700,-0.55287,-1.13472,1.03813,0.01783,2.16478,2.63728,0.16922,0.14431,-2.18704,3.40983,0.43459,0.79747,0.41602,0.04581,-44.37595,-15.18184,3.92886
-0.04043,1.58917,-0.54849,-1.13515,1.00516,0.07948,2.02479,2.54403,0.27511,-0.11751,-2.11348,4.80070,0.43737,0.79575,0.41804,0.02725,-13.88338,-8.46090,7.61067
-0.05634,1.60065,-0.54247,-1.13539,0.96959,0.15277,1.96092,2.39090,0.38794,0.39566,-2.66308,5.60260,0.43832,0.79330,0.42244,0.00971,-3.22592,-10.30164,9.01367
-0.07164,1.61170,-0.53569,-1.12754,0.93564,0.22112,1.98622,2.24273,0.42378,0.83104,-2.83297,5.62854,0.44035,0.78871,0.42891,-0.00730,-0.59908,-13.65304,3.25121
-0.08644,1.62187,-0.52717,-1.11275,0.89339,0.29783,2.12741,2.13376,0.44727,1.27687,-3.01315,5.12699,0.44263,0.78179,0.43840,-0.02636,9.25007,-9.20569,-1.61210
-0.10040,1.63136,-0.51834,-1.08975,0.85089,0.36331,2.18778,2.06204,0.45586,2.09158,-3.30379,4.34641,0.44509,0.77519,0.44604,-0.04499,8.69431,-3.57970,-1.04651
-0.11362,1.64062,-0.51008,-1.06245,0.81491,0.40742,2.08295,1.95080,0.46092,2.58781,-3.10922,3.26358,0.44655,0.77094,0.45022,-0.05959,-4.57456,-9.30199,-0.21908
-0.12505,1.64836,-0.50217,-1.01444,0.76760,0.44733,1.81487,1.83782,0.46135,3.32524,-2.91289,2.26357,0.44775,0.76956,0.44976,-0.07076,-15.02283,-8.43759,0.96173
-0.13573,1.65617,-0.49455,-0.96482,0.73002,0.47597,1.59850,1.77945,0.43447,3.57399,-2.36555,2.12660,0.45018,0.76767,0.44860,-0.08234,-18.43570,-5.35389,0.39342
-0.14507,1.66347,-0.48599,-0.90490,0.69105,0.51012,1.45234,1.73117,0.38648,3.90652,-2.23683,2.32592,0.45325,0.76475,0.44823,-0.09392,-9.78969,-3.27367,-2.24197
-0.15478,1.67105,-0.47739,-0.85969,0.66437,0.53974,1.40780,1.69694,0.34751,3.74434,-2.09395,2.79989,0.45623,0.76048,0.44960,-0.10671,-6.62843,-2.45070,-2.50716
-0.16347,1.67797,-0.46769,-0.80856,0.63370,0.57949,1.44512,1.65682,0.28292,3.86458,-2.00597,2.97744,0.45966,0.75439,0.45308,-0.11972,0.06927,-2.92372,-4.29828
-0.17050,1.68460,-0.45683,-0.74518,0.60373,0.62451,1.52104,1.61115,0.21147,4.12694,-1.69498,2.75503,0.46318,0.74707,0.45796,-0.13275,4.68275,-1.68869,-5.96166
-0.17751,1.69180,-0.44602,-0.69576,0.58616,0.65442,1.51296,1.52248,0.17641,4.49473,-1.40073,2.27961,0.46543,0.74127,0.46177,-0.14374,1.87892,-4.68558,-3.52438
-0.18337,1.69919,-0.43516,-0.64086,0.57496,0.67807,1.46278,1.42716,0.13996,4.67408,-0.61637,1.78102,0.46760,0.73609,0.46484,-0.15312,-4.41631,-8.92843,-3.72358
-0.18659,1.70673,-0.42327,-0.55938,0.56842,0.71271,1.54468,1.33622,0.05905,4.64337,-0.06724,1.97635,0.47022,0.72813,0.47127,-0.16320,3.37185,-3.79590,-3.20018
-0.19030,1.71495,-0.41160,-0.49871,0.57155,0.73673,1.59079,1.29458,0.06514,4.12918,0.41721,1.48756,0.47161,0.72106,0.47654,-0.17482,5.60049,-6.12212,-7.75463
-0.19398,1.72350,-0.40007,-0.45106,0.57926,0.75407,1.61668,1.27071,0.20212,4.05524,0.31485,1.28350,0.46958,0.71619,0.48057,-0.18873,2.79457,0.15736,9.97711
-0.19614,1.73158,-0.38859,-0.39156,0.57895,0.76720,1.34749,1.04393,0.33009,3.87016,-0.83025,0.52981,0.46539,0.71760,0.48074,-0.19328,-11.36776,-12.17080,8.08485
-0.19830,1.73892,-0.37765,-0.34283,0.56739,0.76894,0.89089,0.72448,0.42727,3.45243,-1.21249,-0.21470,0.46058,0.72382,0.47716,-0.19045,-29.96561,-24.24449,7.85143
-0.20068,1.74591,-0.36712,-0.30874,0.55406,0.76553,0.58542,0.53843,0.47094,3.22139,-1.46061,-0.52534,0.45731,0.72835,0.47383,-0.18935,-32.49690,-23.25315,5.81336
-0.20113,1.75109,-0.35705,-0.25047,0.51721,0.75729,0.23390,0.37129,0.47452,3.18385,-2.35910,-0.40805,0.45509,0.73444,0.46811,-0.18539,-21.34230,-11.50391,1.91708
-0.20195,1.75544,-0.34669,-0.20670,0.47532,0.75591,0.27774,0.44643,0.34532,2.63194,-2.75905,0.00183,0.45768,0.73170,0.46808,-0.18984,-5.37790,-0.63358,-7.27359
-0.20242,1.75878,-0.33593,-0.16771,0.42695,0.75968,0.67001,0.74821,0.17867,2.72218,-3.65463,0.27449,0.46353,0.72037,0.47346,-0.20505,23.49342,20.78345,-11.98943
-0.20223,1.76086,-0.32510,-0.13090,0.37047,0.76332,0.98283,0.94709,0.02273,2.78045,-4.60362,0.24657,0.46915,0.70848,0.47957,-0.21900,26.19269,20.08833,-12.45262
-0.20231,1.76235,-0.31450,-0.10601,0.31787,0.76328,1.05027,0.92489,-0.04632,2.07239,-4.87943,-0.20202,0.47164,0.70162,0.48378,-0.22638,11.95468,4.50005,-9.29192
-0.20218,1.76224,-0.30452,-0.08332,0.25335,0.75351,0.94096,0.78682,-0.08010,1.55605,-4.81126,-1.09211,0.47272,0.69882,0.48581,-0.22843,-5.48202,-9.02136,-2.42716
-0.20226,1.76115,-0.29543,-0.06822,0.18811,0.73358,0.75964,0.60314,-0.09250,0.51706,-4.74670,-1.77542,0.47294,0.69848,0.48661,-0.22730,-12.35553,-12.58184,-1.61570
-0.20306,1.75925,-0.28737,-0.06624,0.12424,0.70331,0.64144,0.51401,-0.05949,-0.31422,-4.37422,-2.58375,0.47279,0.69800,0.48678,-0.22871,-10.42787,-9.28617,1.91739
-0.20436,1.75665,-0.28038,-0.07164,0.06314,0.66329,0.58775,0.53306,-0.02949,-0.69634,-4.24903,-3.12638,0.47377,0.69611,0.48639,-0.23321,-4.92503,0.22902,2.95449
-0.20659,1.75233,-0.27545,-0.08971,-0.01222,0.60044,0.60299,0.74958,-0.00722,-1.26563,-3.93748,-3.91503,0.47753,0.69161,0.48419,-0.24332,0.59992,10.87849,2.58093
-0.20892,1.74861,-0.27079,-0.10603,-0.06531,0.54544,0.61049,0.97213,0.01469,-1.30162,-3.85564,-3.91166,0.48200,0.68667,0.48100,-0.25457,1.79022,17.40472,0.78933
-0.21179,1.74486,-0.26622,-0.12647,-0.10689,0.50070,0.49660,1.04050,0.08679,-1.63425,-3.39850,-3.71578,0.48442,0.68534,0.47624,-0.26236,-4.29517,11.15315,4.53274
-0.21538,1.74102,-0.26277,-0.15298,-0.14071,0.44975,0.25610,0.95065,0.24163,-1.88448,-1.89825,-3.71485,0.48337,0.68945,0.46943,-0.26579,-15.94464,-5.66732,11.28434
-0.21959,1.73753,-0.26039,-0.18373,-0.16306,0.39302,0.11107,0.93970,0.42248,-2.08424,-0.66169,-3.45832,0.48152,0.69315,0.46218,-0.27215,-11.50007,-3.64180,12.44704
-0.22375,1.73460,-0.25806,-0.20729,-0.17271,0.34602,0.15587,1.06282,0.56693,-1.51134,-0.45849,-3.30942,0.48037,0.69286,0.45651,-0.28423,2.60538,7.39967,10.77413
-0.22747,1.73188,-0.25542,-0.21933,-0.17718,0.31468,0.17333,1.13342,0.64850,-0.88795,-0.54110,-2.97909,0.47965,0.69246,0.45102,-0.29498,3.99152,10.09742,9.00831
-0.23134,1.72892,-0.25363,-0.23086,-0.18430,0.27850,0.14769,1.11738,0.74402,-0.50387,-0.65877,-2.27892,0.47730,0.69387,0.44543,-0.30383,-0.45525,0.90789,7.36330
-0.23498,1.72559,-0.25198,-0.23666,-0.19503,0.24694,0.11401,1.01935,0.79125,-0.15065,-0.61153,-1.77312,0.47444,0.69586,0.44122,-0.30986,-2.43829,-6.37772,3.62568
-0.23819,1.72225,-0.25018,-0.23533,-0.20404,0.22324,0.11530,0.99555,0.79323,0.18221,-0.55842,-1.69153,0.47301,0.69618,0.43711,-0.31706,0.21984,-3.59927,0.88279
-0.24113,1.71900,-0.24853,-0.23066,-0.20990,0.20265,0.07902,0.97346,0.79596,0.63089,-0.55761,-1.74231,0.47188,0.69706,0.43212,-0.32359,-0.25444,-0.27380,-0.27240
-0.24354,1.71575,-0.24754,-0.21899,-0.21439,0.17664,-0.03744,0.92394,0.79492,0.84806,-0.07627,-1.47422,0.47120,0.69964,0.42548,-0.32777,-7.87537,-4.67941,0.93036
-0.24554,1.71265,-0.24634,-0.20391,-0.21603,0.15860,-0.04148,0.98030,0.74041,1.06575,0.04063,-1.06436,0.47232,0.69887,0.41996,-0.33487,-3.12481,1.36018,-2.22228
-0.24692,1.70951,-0.24517,-0.18264,-0.21806,0.14367,0.01692,1.12479,0.62371,1.46795,-0.06931,-0.84692,0.47594,0.69479,0.41503,-0.34425,2.87042,8.82802,-6.65117
-0.24769,1.70642,-0.24394,-0.15582,-0.21885,0.13210,0.09503,1.34063,0.46098,1.83384,-0.00971,-0.52034,0.48209,0.68797,0.40989,-0.35536,3.18316,13.28866,-10.33297
-0.24843,1.70334,-0.24231,-0.13435,-0.21926,0.12900,0.13086,1.43199,0.33966,1.95572,-0.11487,-0.08516,0.48716,0.68236,0.40534,-0.36436,3.46377,12.10868,-11.05727
-0.24847,1.70041,-0.24037,-0.10710,-0.21749,0.13145,0.10872,1.44960,0.21028,1.68234,0.25071,0.37964,0.49275,0.67752,0.40088,-0.37076,-2.23660,1.40885,-8.43401
-0.24851,1.69774,-0.23794,-0.08497,-0.21184,0.14057,0.12746,1.44853,0.10789,1.52521,0.67619,0.91625,0.49763,0.67230,0.39741,-0.37741,-0.87207,0.28090,-7.05255
-0.24839,1.69539,-0.23494,-0.06527,-0.20278,0.15654,0.21282,1.43862,0.00998,1.36480,0.78032,1.31347,0.50188,0.66587,0.39588,-0.38472,4.21985,0.09611,-7.37898
-0.24831,1.69326,-0.23154,-0.05065,-0.19248,0.17497,0.29619,1.41518,-0.05247,1.16958,0.99774,1.73649,0.50533,0.65956,0.39482,-0.39210,6.20918,-1.49231,-7.07495
-0.24803,1.69167,-0.22716,-0.03617,-0.17627,0.20356,0.44964,1.35465,-0.10358,0.97664,1.40409,2.31598,0.50711,0.65243,0.39649,-0.39995,9.01224,-3.76268,-5.50043
-0.24782,1.69063,-0.22192,-0.02570,-0.15540,0.23905,0.62292,1.22154,-0.09482,0.77586,1.55007,2.63609,0.50592,0.64647,0.40015,-0.40743,12.33082,-7.45555,-2.41936
-0.24759,1.69002,-0.21607,-0.01706,-0.13258,0.27607,0.76116,1.01222,-0.03699,0.64904,1.60811,2.61355,0.50208,0.64277,0.40492,-0.41329,10.74109,-14.26174,1.97219
-0.24732,1.68975,-0.20982,-0.00953,-0.10946,0.31118,0.88237,0.78545,0.03577,0.53387,1.72492,2.40312,0.49657,0.64019,0.41057,-0.41834,8.62236,-17.11127,3.90529
-0.24682,1.68992,-0.20346,-0.00034,-0.08453,0.34093,0.99716,0.60917,0.07863,0.69913,1.85862,1.86428,0.49113,0.63700,0.41668,-0.42357,9.07625,-13.52164,2.36535
-0.24605,1.69059,-0.19724,0.01105,-0.05744,0.36253,1.08369,0.45687,0.11643,0.83836,1.87582,1.26912,0.48543,0.63403,0.42280,-0.42849,7.99462,-10.93205,0.84588
-0.24514,1.69168,-0.19114,0.02214,-0.02983,0.37767,1.08134,0.26816,0.18595,0.85713,1.84739,0.89145,0.47888,0.63367,0.42791,-0.43133,1.73441,-12.77758,3.48266
-0.24414,1.69278,-0.18522,0.03209,-0.00804,0.38712,1.05141,0.09254,0.24975,0.86305,1.65692,0.71678,0.47210,0.63428,0.43265,-0.43316,-1.89238,-14.46217,4.27604
-0.24289,1.69408,-0.17926,0.04351,0.01191,0.39539,1.00338,-0.12581,0.30706,0.79938,1.23614,0.41983,0.46430,0.63655,0.43804,-0.43284,-3.27503,-16.27081,3.87450
-0.24140,1.69520,-0.17352,0.05605,0.02539,0.39841,0.98455,-0.26785,0.29948,0.79224,0.91032,0.17474,0.45779,0.63717,0.44405,-0.43273,-2.94247,-13.52546,0.13196
-0.23959,1.69590,-0.16797,0.07071,0.03001,0.39845,1.08549,-0.23683,0.17480,0.94927,0.09072,-0.02536,0.45437,0.63181,0.45192,-0.43605,5.81665,0.53274,-6.44736
-0.23709,1.69580,-0.16276,0.09280,0.02232,0.39345,1.27147,-0.06606,-0.08525,1.31703,-0.71960,-0.47968,0.45491,0.62010,0.46189,-0.44180,10.35068,10.17233,-12.99901
-0.23471,1.69536,-0.15781,0.10890,0.01104,0.38555,1.37314,0.05634,-0.26364,1.39609,-1.18671,-0.82108,0.45522,0.60969,0.47058,-0.44678,9.94000,11.68069,-14.29157
-0.23184,1.69440,-0.15338,0.12872,-0.00516,0.37186,1.41577,0.13164,-0.43436,1.69263,-1.34319,-1.22503,0.45642,0.59948,0.47921,-0.45018,5.21748,9.49742,-12.88223
-0.22839,1.69298,-0.14945,0.15315,-0.02509,0.35371,1.32376,-0.00016,-0.56307,1.74174,-1.43750,-1.16098,0.45637,0.59418,0.48807,-0.44773,-4.14387,-4.04754,-8.99350
-0.22514,1.69157,-0.14519,0.16954,-0.04066,0.34371,1.21097,-0.22725,-0.61768,1.29631,-1.28008,-0.66347,0.45388,0.59219,0.49735,-0.44266,-10.21050,-16.34336,-7.30940
-0.22164,1.68974,-0.14087,0.18618,-0.05902,0.33730,1.15489,-0.46248,-0.68313,0.99806,-1.26814,-0.21969,0.45031,0.59015,0.50842,-0.43641,-6.53913,-17.53695,-6.27523
-0.21813,1.68761,-0.13624,0.19932,-0.07800,0.33621,1.18925,-0.62976,-0.75280,0.79560,-1.22539,0.13609,0.44606,0.58604,0.52101,-0.43145,0.54578,-12.88444,-6.69660
-0.21457,1.68523,-0.13146,0.21079,-0.09675,0.33767,1.28483,-0.73187,-0.83808,0.73943,-1.26376,0.14428,0.44170,0.57971,0.53479,-0.42760,5.68924,-8.97975,-5.55961
-0.21088,1.68284,-0.12671,0.22145,-0.11157,0.33836,1.42708,-0.72523,-0.92275,0.77566,-1.13356,0.10938,0.43808,0.57042,0.54869,-0.42619,9.55788,-2.53516,-7.03306
-0.20692,1.68015,-0.12205,0.23389,-0.12752,0.33751,1.58892,-0.71645,-1.00307,1.14052,-1.22459,-0.31219,0.43390,0.55967,0.56357,-0.42532,13.64624,2.74688,-4.89789
-0.20253,1.67712,-0.11783,0.25020,-0.14555,0.33083,1.56803,-0.92008,-1.07337,1.24306,-1.46465,-0.71967,0.42824,0.55452,0.57851,-0.41766,1.78497,-8.86583,-5.79553
-0.19830,1.67402,-0.11372,0.26071,-0.16103,0.32343,1.33190,-1.31834,-1.11656,0.63938,-1.12250,-0.61230,0.42104,0.55704,0.59233,-0.40196,-16.19596,-25.18828,-6.95022
-0.19412,1.67094,-0.10980,0.26868,-0.17301,0.31508,1.14641,-1.55205,-1.17801,0.20524,-0.42418,-0.37610,0.41558,0.55791,0.60505,-0.38722,-18.66114,-21.22239,-7.66542
-0.18965,1.66812,-0.10591,0.27949,-0.17884,0.30802,1.15992,-1.51299,-1.27605,0.82007,0.14774,-0.27850,0.41292,0.55156,0.61809,-0.37847,-2.19727,-0.56704,-6.63717
-0.18440,1.66591,-0.10190,0.29934,-0.17456,0.30391,1.38507,-1.22587,-1.40097,1.28761,0.76039,0.08928,0.41305,0.53667,0.63202,-0.37673,13.74018,15.25095,-5.59393
-0.17872,1.66411,-0.09749,0.32158,-0.16500,0.30656,1.64802,-0.99393,-1.47631,2.06016,0.50992,0.27170,0.41153,0.52001,0.64684,-0.37660,23.51041,19.11434,-1.50615
-0.17256,1.66221,-0.09248,0.34669,-0.15931,0.31783,1.73090,-1.06455,-1.58235,2.07622,-0.21791,0.95963,0.40734,0.50833,0.66308,-0.36877,10.13546,1.29510,-5.88230
-0.16639,1.65969,-0.08659,0.36639,-0.16395,0.33978,1.62370,-1.44157,-1.73459,1.40442,-0.79521,1.84130,0.39973,0.50315,0.68116,-0.35083,-6.47341,-20.32605,-12.81096
-0.16042,1.65644,-0.07976,0.37920,-0.17852,0.37088,1.52436,-1.88315,-1.92369,0.65448,-1.16764,2.58648,0.38989,0.49872,0.70111,-0.32820,-11.57852,-29.46736,-17.40777
-0.15470,1.65277,-0.07249,0.38579,-0.19584,0.40185,1.55244,-2.18063,-2.10182,0.31461,-1.37699,2.74919,0.37967,0.49037,0.72190,-0.30699,-2.78329,-26.09506,-18.29354
-0.14885,1.64863,-0.06440,0.39255,-0.21596,0.43737,1.68821,-2.39478,-2.32222,0.32301,-1.18860,2.55434,0.36925,0.47732,0.74457,-0.28538,7.29846,-18.32085,-16.98590
-0.14273,1.64425,-0.05582,0.40200,-0.23597,0.47343,2.04170,-2.40412,-2.50380,0.30994,-1.04743,2.24657,0.35937,0.45609,0.76827,-0.26945,20.27587,-5.01054,-10.25805
-0.13671,1.63979,-0.04766,0.40837,-0.25319,0.49651,2.43045,-2.28216,-2.54697,0.35167,-1.59913,1.80007,0.34946,0.43164,0.79009,-0.25947,31.97389,2.29921,-0.20809
-0.13060,1.63424,-0.03926,0.41412,-0.28215,0.51733,2.91257,-2.13939,-2.55630,0.33673,-2.60258,1.11660,0.33794,0.40168,0.81278,-0.25267,35.94954,3.92035,5.88405
-0.12458,1.62739,-0.03123,0.41779,-0.32425,0.52904,3.31782,-2.03220,-2.56310,0.28472,-3.67632,0.41915,0.32579,0.37053,0.83443,-0.24555,32.20126,1.90793,6.10002
-0.11866,1.61905,-0.02368,0.41940,-0.37919,0.53173,3.57562,-2.01824,-2.66572,0.19936,-4.49796,-0.21318,0.31361,0.33993,0.85536,-0.23336,21.37142,-1.07008,-1.47126
-0.11280,1.60926,-0.01668,0.41952,-0.44360,0.52555,3.78113,-2.00841,-2.82300,-0.03854,-4.76899,-0.68174,0.30201,0.30769,0.87546,-0.21838,14.91472,-0.49248,-9.24787
-0.10671,1.59749,-0.01046,0.42321,-0.52459,0.50955,4.22979,-1.88545,-2.90898,0.11713,-5.18631,-1.10649,0.28967,0.26641,0.89531,-0.20867,26.25121,2.41260,-2.39412
-0.10108,1.58408,-0.00507,0.41926,-0.61602,0.48424,4.82212,-1.81002,-2.90123,-0.65248,-6.19799,-2.00553,0.27308,0.21891,0.91457,-0.20263,39.17421,-1.84672,6.68516
-0.09639,1.56976,-0.00037,0.40145,-0.70239,0.45300,5.09368,-1.89885,-2.99584,-1.52480,-6.67976,-2.87219,0.25465,0.17645,0.93176,-0.18932,24.70282,-9.05646,-2.30747
-0.09256,1.55479,0.00362,0.37523,-0.77962,0.41849,5.13352,-2.02911,-3.17743,-2.61873,-6.74518,-3.33865,0.23650,0.13810,0.94662,-0.17002,8.76911,-6.55908,-14.44195
-0.09051,1.53769,0.00614,0.32863,-0.87140,0.37023,5.07379,-2.21517,-3.43797,-3.91598,-6.67959,-3.80194,0.21696,0.10171,0.95997,-0.14508,-2.22350,-4.05546,-21.71268
-0.09012,1.51923,0.00731,0.26714,-0.96349,0.31157,5.04547,-2.40804,-3.67443,-4.93998,-6.49726,-4.56483,0.19514,0.06445,0.97144,-0.11861,-3.33283,-5.48357,-22.62267
-0.09208,1.49886,0.00594,0.18263,-1.06637,0.22667,5.18715,-2.61115,-3.86079,-5.87284,-6.11657,-5.78445,0.16982,0.02236,0.98082,-0.09305,5.12707,-8.51810,-16.34420
-0.09432,1.47915,0.00382,0.11190,-1.13897,0.14845,5.53167,-2.82304,-3.84292,-6.39406,-5.52504,-6.71652,0.13992,-0.02556,0.98706,-0.07409,18.29323,-16.63989,-7.81365
-0.09886,1.45813,-0.00135,0.02277,-1.21343,0.04253,6.04814,-3.21366,-3.70709,-6.71883,-4.69799,-8.24495,0.10009,-0.07981,0.98998,-0.05955,26.82723,-38.22603,3.49434
-0.10542,1.43752,-0.00938,-0.07768,-1.26711,-0.08329,6.52127,-3.69850,-3.57015,-7.37020,-3.69526,-9.41871,0.05407,-0.13505,0.98830,-0.04582,24.01756,-43.36102,4.01260
-0.11429,1.41847,-0.02085,-0.19125,-1.28753,-0.23401,6.83350,-4.27945,-3.43269,-8.88243,0.16191,-11.57405,0.00202,-0.18688,0.98185,-0.03219,14.47393,-42.41948,-10.29289
-0.12553,1.40197,-0.03587,-0.31608,-1.26547,-0.40516,7.03085,-5.05999,-3.30774,-9.01572,3.07496,-12.89622,-0.06033,-0.23539,0.96984,-0.01914,5.00168,-55.09820,-13.91558
-0.13817,1.38875,-0.05397,-0.43548,-1.20094,-0.58620,7.05150,-5.84759,-3.30634,-7.94444,6.25088,-13.47647,-0.12733,-0.27810,0.95207,-0.00335,-3.38658,-52.17995,-26.23000
-0.15097,1.37945,-0.07482,-0.53288,-1.09243,-0.77041,6.90554,-6.56409,-3.35002,-6.02823,9.50720,-13.21872,-0.19603,-0.31395,0.92889,0.01305,-10.87222,-39.53930,-32.58151
-0.16298,1.37451,-0.09777,-0.59886,-0.94285,-0.94760,6.60148,-7.28022,-3.34386,-3.68693,12.39934,-12.43117,-0.26763,-0.34179,0.90048,0.02620,-19.48106,-36.73438,-32.38489
-0.17342,1.37395,-0.12234,-0.62913,-0.76048,-1.11300,6.05499,-7.95113,-3.38081,-0.65479,14.50266,-11.93745,-0.34069,-0.35783,0.86859,0.03803,-33.41794,-34.16053,-41.06556
-0.18103,1.38081,-0.15064,-0.61045,-0.50259,-1.30045,5.25943,-8.48731,-3.50669,3.29998,18.38208,-11.91950,-0.41248,-0.36108,0.83485,0.05001,-37.18166,-13.59761,-46.37030
-0.18500,1.39170,-0.17943,-0.54225,-0.23558,-1.45967,4.47464,-8.94976,-3.66859,6.92977,20.21389,-11.28983,-0.48294,-0.35763,0.79700,0.06049,-43.23359,-6.66636,-54.22281
-0.18543,1.40563,-0.20849,-0.43727,0.01714,-1.58755,4.04093,-9.23841,-3.60761,10.64451,22.10468,-9.89667,-0.54675,-0.35995,0.75317,0.06511,-35.08784,-17.30616,-23.71851
-0.19170,1.42498,-0.22621,-0.24162,0.37187,-1.71577,3.29578,-9.32601,-3.72920,14.33872,22.67806,-6.35676,-0.60586,-0.34747,0.71213,0.07117,-31.58414,7.67799,-35.18545
-0.19586,1.44432,-0.24359,-0.02678,0.68828,-1.77961,2.53188,-9.29660,-3.86527,16.56912,23.45802,-2.93187,-0.66029,-0.32897,0.67087,0.07561,-32.16921,19.18911,-35.59448
-0.19606,1.46530,-0.25994,0.18313,0.96741,-1.79780,1.69529,-9.41542,-4.05083,18.12452,24.14437,-0.04908,-0.71577,-0.30111,0.62554,0.07550,-39.01472,16.72336,-47.99910
-0.19191,1.49188,-0.27095,0.49587,1.34831,-1.76926,0.23104,-9.86740,-4.50919,20.59015,25.07236,3.56385,-0.77820,-0.24480,0.57474,0.06435,-53.77525,-0.80335,-77.74821
-0.17984,1.52035,-0.28406,0.79923,1.70241,-1.69867,-1.34717,-10.40758,-5.28123,22.45063,26.59465,6.34365,-0.83953,-0.16898,0.51391,0.05034,-57.69317,-11.85154,-108.58420
-0.16490,1.55231,-0.29534,1.12203,2.07399,-1.59522,-2.89283,-10.86633,-6.56428,26.26887,29.97289,10.02296,-0.89322,-0.07052,0.44208,0.04187,-30.23549,-40.42530,-130.01120
-0.14495,1.59032,-0.30347,1.50001,2.50175,-1.44801,-4.47073,-10.75187,-8.29772,30.02894,32.44752,11.99108,-0.92536,0.05336,0.37317,0.04010,-11.77344,-2.41208,-165.31310
-0.11937,1.63429,-0.30920,1.94838,2.96524,-1.27236,-5.50934,-10.13014,-10.42095,36.70225,34.69764,14.63171,-0.93127,0.19100,0.30515,0.05605,42.00569,-18.49192,-162.65840
-0.08535,1.68528,-0.31110,2.51470,3.46560,-1.04678,-5.76249,-8.64675,-12.90478,47.31542,36.53665,20.12714,-0.90156,0.33699,0.25321,0.09758,104.15830,-26.96312,-160.40090
-0.04324,1.74227,-0.30813,3.13189,3.90554,-0.79998,-4.73966,-6.71499,-14.97031,57.60685,34.84334,24.08582,-0.84265,0.46242,0.21974,0.16682,182.16200,-60.21069,-132.61100
0.01513,1.80539,-0.28965,4.20722,4.42225,-0.35948,-1.53679,-4.34275,-17.53266,79.10138,26.47997,33.55161,-0.73400,0.57196,0.20680,0.30223,230.24830,-164.07630,-91.12962
0.09811,1.86476,-0.26108,5.46648,4.68221,0.18734,2.15874,-3.30345,-19.66798,102.01850,7.39774,46.03026,-0.59091,0.64855,0.16911,0.44901,177.05270,-236.52870,-100.40270
0.21361,1.90538,-0.21548,7.02661,4.53652,0.93793,6.14630,-3.94089,-21.54955,120.77570,-31.68634,63.48636,-0.41034,0.67805,0.09256,0.60275,54.60313,-269.69290,-162.54820
0.36220,1.89025,-0.13892,8.96611,3.49467,2.10228,9.41529,-6.42296,-23.77534,120.00360,-103.88520,83.82333,-0.18833,0.65470,-0.04167,0.73086,-58.71213,-196.33450,-229.45090
0.51087,1.82525,-0.05459,10.16637,1.83047,3.18242,10.17361,-7.35170,-26.31068,77.94033,-174.33350,92.15629,0.04955,0.63031,-0.17859,0.75390,1.94055,-53.15283,-259.02960
0.60955,1.65780,0.04725,10.49686,-1.06346,4.42878,10.95460,-5.86785,-26.40354,-34.03677,-229.36160,81.54794,0.24956,0.60335,-0.23001,0.72165,130.31460,-44.53521,-53.89893
0.57544,1.42430,0.14149,9.14442,-4.67413,5.41952,14.67397,-2.82601,-23.04810,-126.09590,-221.61000,39.47187,0.42655,0.57175,-0.13796,0.68711,-42.33657,-300.69450,141.98920
0.47817,1.21383,0.19617,6.89250,-7.58152,5.64313,21.03819,0.15748,-19.28429,-190.74880,-203.61540,-16.02395,0.64139,0.49961,0.03812,0.58099,136.76700,-520.59560,-99.68444
0.31277,1.00661,0.19117,3.81151,-10.25091,4.94666,31.75175,1.09914,-14.56532,-244.11550,-175.21640,-91.92818,0.84807,0.27681,0.30412,0.33416,272.74960,-414.34690,-505.02180
0.13648,0.83008,0.13277,0.69683,-11.97473,3.46549,41.97724,-4.61818,-11.27759,-284.54860,-106.32960,-170.08480,0.86307,-0.16073,0.47856,0.01624,669.16190,-2.28771,-815.87030
-0.10605,0.78037,-0.07188,-3.21504,-11.86876,-0.06586,42.68745,-14.66925,-10.40870,-184.80000,112.80540,-209.23220,0.66548,-0.53364,0.50189,-0.14307,559.97800,373.40260,-162.51590
-0.21952,0.82416,-0.21445,-4.61660,-9.89282,-2.18154,32.97399,-13.04931,-14.36208,-67.21159,180.35050,-110.60950,0.65020,-0.64516,0.39441,-0.07379,26.54489,703.26100,212.11320
-0.25529,0.92417,-0.29507,-4.72204,-7.57069,-2.86196,21.19047,-2.92181,-14.79835,34.66181,145.66290,0.14340,0.79952,-0.54978,0.22462,0.08972,-38.94674,489.27050,1152.47800
-0.06928,0.88744,-0.27056,-4.24909,-5.94365,-2.49181,15.00613,-2.31971,-9.12635,53.91522,93.59890,42.32351,0.82997,-0.46446,0.28427,0.12092,-447.40930,93.30666,532.33840
0.18241,0.75085,-0.19554,-3.76894,-4.98065,-1.79127,9.62525,-7.13022,-5.64212,21.67070,53.95189,53.05559,0.74300,-0.45989,0.46262,0.14977,-555.32120,-245.75570,-179.45490
0.26459,0.66883,-0.14642,-3.54478,-4.45684,-1.15719,5.09215,-6.60299,-4.88861,4.15500,34.78271,50.71991,0.70371,-0.44660,0.50433,0.22581,-396.16610,19.79166,-131.82700
0.29798,0.60561,-0.09130,-3.45578,-4.04435,-0.45877,0.32255,-1.27155,-4.20772,1.16416,25.59848,36.64059,0.73885,-0.35723,0.43127,0.37482,-234.85120,417.12240,10.25357
0.28232,0.56490,-0.05371,-3.46401,-3.62329,0.03625,-2.24606,2.15849,-4.07725,3.23364,32.57872,27.07690,0.74630,-0.29849,0.35498,0.47741,-96.75040,300.06240,-7.16488
0.24958,0.54402,-0.02624,-3.44029,-3.09359,0.36884,-3.36016,2.93506,-4.51600,5.32098,34.49312,16.84836,0.72283,-0.29020,0.31536,0.54208,-64.79552,76.19267,-32.19864
0.21204,0.52591,-0.00696,-3.36029,-2.69264,0.55187,-3.87955,2.76406,-4.69769,10.44325,33.50543,14.59582,0.69416,-0.29358,0.29526,0.58717,-41.30145,14.51133,-17.10125
0.18101,0.51920,0.01562,-3.17761,-2.22726,0.74774,-4.76002,2.41569,-4.29169,15.67579,32.90784,12.93881,0.65875,-0.28057,0.29284,0.63369,-61.94500,-9.05080,29.80898
0.16309,0.52123,0.03678,-2.92279,-1.79511,0.90061,-5.43983,3.09286,-3.36548,17.92911,30.05790,8.49646,0.63740,-0.23711,0.27641,0.67904,-38.83205,56.94736,58.71534
0.14216,0.52216,0.05587,-2.63984,-1.41091,0.98507,-5.53966,4.86586,-2.51524,19.43760,26.83635,2.43940,0.63363,-0.17234,0.22747,0.71908,16.89935,128.41810,17.42801
0.12506,0.52598,0.06965,-2.36276,-1.06464,0.97323,-4.93605,6.96968,-2.02760,19.03696,24.81410,-4.94211,0.64170,-0.10291,0.15226,0.74461,55.08752,149.42300,-32.62155
0.10708,0.53083,0.07763,-2.15299,-0.77735,0.88444,-4.12824,8.07926,-1.95020,17.72214,23.90100,-10.62652,0.64549,-0.05253,0.08166,0.75757,68.60873,111.32000,-61.69521
0.09252,0.54185,0.07895,-1.94626,-0.46325,0.71692,-3.27584,7.99278,-2.03659,14.86436,20.79340,-14.20158,0.64674,-0.02789,0.03115,0.76156,50.27927,7.58994,-46.57928
0.07967,0.55574,0.07436,-1.76132,-0.16736,0.49491,-2.53792,6.37527,-1.98242,10.55183,15.52595,-14.54351,0.64618,-0.03599,0.02121,0.76204,35.94603,-93.43182,-3.27012
0.06318,0.56407,0.07071,-1.65762,-0.01221,0.33894,-2.13510,4.62237,-1.68329,7.62895,9.99828,-12.18758,0.64179,-0.04870,0.02994,0.76474,26.53274,-140.20990,28.74967
0.05745,0.57331,0.05973,-1.43810,0.13307,0.07415,-0.89934,1.85264,-1.32049,6.41622,1.19773,-5.81837,0.65461,-0.09202,0.06682,0.74737,39.23053,-76.67844,4.36085
0.02548,0.57712,0.05795,-1.33368,0.13554,0.01593,-0.52300,1.12217,-1.17904,7.93660,-1.33036,-2.22911,0.65327,-0.10040,0.05577,0.74837,31.30021,-54.22912,0.38115
0.01531,0.57830,0.05708,-1.23045,0.12705,-0.00116,-0.46339,0.56171,-0.77670,8.42694,-0.82055,-0.65249,0.65185,-0.10501,0.06765,0.74799,8.08642,-51.57638,30.35887
0.00969,0.57928,0.05660,-1.08572,0.11863,-0.00912,-0.39410,0.11106,-0.46650,8.34767,-0.09268,-0.22282,0.65081,-0.10996,0.07953,0.74702,2.56364,-30.76598,25.01297
0.00373,0.58071,0.05621,-0.96101,0.11709,-0.01259,-0.34640,-0.16586,-0.38759,8.87331,0.01069,-0.14751,0.64916,-0.11660,0.08486,0.74686,4.80497,-19.99809,6.06683
0.00031,0.58220,0.05558,-0.83380,0.11819,-0.01767,-0.30051,-0.44886,-0.27757,8.60379,0.04017,-0.32667,0.64760,-0.12380,0.09271,0.74612,2.32179,-19.73433,7.96506
-0.00185,0.58356,0.05484,-0.71332,0.11708,-0.02350,-0.27419,-0.74923,-0.21201,7.89957,-0.02452,-0.38137,0.64533,-0.13331,0.10177,0.74527,0.06471,-21.15724,8.16656
-0.00365,0.58494,0.05379,-0.60094,0.11556,-0.03284,-0.27635,-1.09599,-0.12417,8.22012,-0.24098,-1.14124,0.64221,-0.14470,0.11392,0.74408,3.48852,-19.77117,1.23839
-0.00458,0.58654,0.05204,-0.49887,0.11859,-0.04900,-0.39924,-1.69947,0.13953,6.59559,0.42374,-1.24691,0.63515,-0.15946,0.13879,0.74290,-9.72924,-39.99750,20.21219
-0.00596,0.58853,0.05000,-0.42377,0.12592,-0.06663,-0.50345,-2.23608,0.16562,5.84288,1.22278,-1.72520,0.62621,-0.17979,0.16048,0.74148,-10.17936,-44.40036,10.14610
-0.00402,0.59177,0.04650,-0.32234,0.14856,-0.09934,-0.76643,-3.09905,0.14167,7.00208,1.26650,-2.16430,0.60918,-0.21116,0.19079,0.74021,-11.53418,-50.99302,-5.14452
-0.00108,0.59510,0.04300,-0.23058,0.16734,-0.12460,-1.12892,-3.83803,0.37066,8.02873,1.19338,-1.71885,0.58758,-0.23718,0.22902,0.73895,-27.10552,-61.94329,9.15118
0.00442,0.59837,0.03966,-0.12288,0.18056,-0.14293,-1.50524,-4.32971,0.65497,8.73571,0.78013,-0.66318,0.56307,-0.25768,0.26859,0.73785,-37.96077,-52.94320,19.29050
0.01606,0.60050,0.03872,0.05526,0.17183,-0.12221,-1.74819,-4.08006,0.92012,12.63519,-1.76279,6.26967,0.54486,-0.26130,0.29536,0.74001,-24.09745,-3.68547,11.88428
0.03541,0.60039,0.04558,0.31067,0.13035,0.00695,-1.21809,-2.11247,0.61703,15.37248,-1.88093,8.17331,0.55835,-0.23663,0.26876,0.74835,21.69640,112.67150,-20.57454
0.05303,0.60057,0.05121,0.49324,0.10294,0.08914,-0.73733,-0.60189,0.47815,14.65419,-2.89075,5.79685,0.57347,-0.21103,0.24441,0.75290,43.33692,139.37560,-27.92221
0.07214,0.59984,0.05630,0.66256,0.06745,0.14586,-0.29534,0.73539,0.43609,10.63751,-2.73480,2.06028,0.59105,-0.18004,0.21817,0.75541,28.56200,104.44050,-5.36199
0.09120,0.59829,0.05871,0.79756,0.02426,0.15489,0.15607,1.76518,0.33297,7.25736,-2.84069,-0.57130,0.60918,-0.15225,0.19027,0.75466,26.58246,70.17979,-9.17880
0.10933,0.59622,0.05960,0.89874,-0.01567,0.13851,0.51436,2.47251,0.23900,6.20687,-2.23730,-1.39307,0.62511,-0.12798,0.16497,0.75210,21.96164,47.32523,-9.41575
0.12711,0.59537,0.06012,0.96992,-0.03308,0.11866,0.63143,2.83597,0.26448,6.03551,-1.32657,-1.84864,0.63567,-0.10544,0.14713,0.75044,14.33630,36.38768,-3.40137
0.14716,0.59510,0.05932,1.05902,-0.04108,0.08382,0.66583,3.17418,0.41643,5.21965,-0.22642,-2.39737,0.64504,-0.07846,0.13184,0.74859,3.49986,21.50588,9.60506
0.16673,0.59512,0.05812,1.12708,-0.03942,0.04867,0.66749,3.41677,0.54959,4.51384,0.27344,-2.59586,0.65299,-0.05179,0.11751,0.74640,2.82278,18.15880,9.90737
0.18653,0.59610,0.05685,1.17924,-0.03064,0.01732,0.59010,3.55394,0.67787,4.08258,0.75693,-2.79163,0.65827,-0.02537,0.10501,0.74499,-1.31272,13.99364,10.96339
0.20718,0.59796,0.05445,1.23200,-0.01276,-0.02367,0.44862,3.62093,0.87002,3.30948,1.35451,-3.18774,0.66101,0.00238,0.09595,0.74421,-5.85834,5.27114,15.46137
0.22752,0.60036,0.05114,1.27160,0.01037,-0.06956,0.28871,3.60804,1.06737,2.10367,1.73677,-3.54108,0.66182,0.02958,0.08954,0.74371,-7.61019,0.01806,17.34286
0.24748,0.60388,0.04721,1.29399,0.03766,-0.11717,0.14370,3.53868,1.18479,0.75265,2.02937,-3.53424,0.66142,0.05449,0.08329,0.74338,-7.53029,-5.55814,12.44250
0.26647,0.60752,0.04287,1.30044,0.06423,-0.15932,0.03830,3.46656,1.22614,-0.05900,2.25727,-3.72243,0.66068,0.07762,0.07597,0.74277,-7.26536,-6.06919,7.00623
0.28456,0.61209,0.03654,1.29458,0.10196,-0.21954,-0.06026,3.38182,1.23011,-0.99355,2.38644,-3.85211,0.65910,0.09932,0.06853,0.74231,-5.99196,-6.63944,2.82064
0.30223,0.61747,0.02988,1.27914,0.13546,-0.27124,-0.09230,3.33298,1.18985,-1.77755,2.24442,-3.42131,0.65851,0.12045,0.05926,0.74050,-2.72168,-3.34292,-1.79016
0.31909,0.62223,0.02388,1.26000,0.15959,-0.30196,-0.13171,3.26004,1.13398,-2.38398,2.32900,-2.72060,0.65723,0.14001,0.05014,0.73887,-2.71640,-4.72654,-3.69227
0.33368,0.62898,0.01670,1.21323,0.20799,-0.34256,-0.28934,3.07513,1.05536,-2.90697,2.77969,-1.79066,0.65235,0.15573,0.04285,0.74050,-8.50109,-11.25046,-2.04173
0.34830,0.63563,0.01026,1.17377,0.24933,-0.36429,-0.45554,2.91462,1.05730,-2.88889,2.80027,-1.15088,0.64607,0.17285,0.03719,0.74252,-10.89067,-11.67274,0.66205
0.36293,0.64182,0.00435,1.14609,0.27876,-0.37446,-0.58879,2.81565,1.08801,-2.91331,2.83475,-0.71678,0.63932,0.19119,0.03165,0.74412,-10.60356,-11.94139,5.34320
0.37541,0.64982,-0.00163,1.09532,0.33034,-0.38387,-0.81933,2.75617,1.11178,-3.03540,2.91797,-0.10759,0.62895,0.21010,0.02519,0.74810,-11.43417,-5.05435,5.32600
0.38785,0.65710,-0.00702,1.05425,0.36872,-0.38419,-1.00537,2.82786,1.04807,-3.13325,2.83391,0.20794,0.61874,0.23018,0.01367,0.75099,-14.28679,1.26144,0.14702
0.39925,0.66528,-0.01231,1.00629,0.41337,-0.38336,-1.24460,3.07613,0.81066,-3.30290,3.13104,0.21278,0.60687,0.25086,-0.00727,0.75414,-17.62308,11.34635,-10.08748
0.41057,0.67358,-0.01750,0.96752,0.45086,-0.38136,-1.47724,3.30237,0.54362,-3.42026,3.31136,0.29684,0.59390,0.27035,-0.03129,0.75711,-22.70888,16.79731,-17.77560
0.42075,0.68309,-0.02249,0.91961,0.49715,-0.37664,-1.79653,3.49616,0.25283,-3.36281,3.27646,0.19063,0.57711,0.28834,-0.05891,0.76180,-28.59061,13.32812,-18.23395
0.42978,0.69365,-0.02756,0.86457,0.55024,-0.37410,-2.13059,3.56556,0.07058,-3.29741,3.22497,-0.21196,0.55748,0.30481,-0.08394,0.76763,-24.24450,4.37966,-8.29079
0.43858,0.70429,-0.03297,0.81722,0.59436,-0.37745,-2.34371,3.50572,0.06722,-3.27224,2.84153,-0.60168,0.53805,0.32093,-0.10246,0.77266,-17.24986,-2.84529,1.33249
0.44681,0.71504,-0.03877,0.77029,0.63050,-0.38531,-2.44303,3.33897,0.17563,-3.29748,2.17252,-0.92687,0.51939,0.33612,-0.11528,0.77715,-7.80393,-8.59412,9.51711
0.45482,0.72540,-0.04482,0.73084,0.65351,-0.39542,-2.42564,3.15267,0.34299,-3.21773,1.61657,-1.06284,0.50246,0.35138,-0.12390,0.78020,1.65586,-12.17787,14.57334
0.46136,0.73631,-0.05127,0.67833,0.68014,-0.40926,-2.30071,2.84750,0.63867,-3.38610,1.79545,-0.88250,0.48733,0.36577,-0.12413,0.78315,12.51134,-14.81353,18.51871
0.46756,0.74743,-0.05780,0.63016,0.70421,-0.42130,-2.19993,2.57501,0.87442,-3.54251,1.62765,-0.84109,0.47189,0.37919,-0.12393,0.78624,11.91693,-16.19076,19.39402
0.47349,0.75835,-0.06434,0.58882,0.72020,-0.43110,-2.08971,2.36232,1.04163,-3.45975,1.13857,-0.84060,0.45729,0.39210,-0.12384,0.78855,12.18199,-15.61251,15.53622
0.47845,0.76918,-0.07119,0.54298,0.73198,-0.44344,-1.94259,2.15624,1.20550,-3.19987,0.68494,-0.88391,0.44399,0.40453,-0.12141,0.79025,13.93873,-13.07545,12.52889
0.48299,0.77991,-0.07834,0.49953,0.73929,-0.45726,-1.79948,2.03696,1.32855,-3.17254,0.51510,-0.91881,0.43101,0.41799,-0.11969,0.79069,13.46211,-7.34244,9.33378
0.48525,0.79840,-0.08500,0.44708,0.75302,-0.47206,-1.72406,1.98451,1.36762,-3.09302,0.09527,-0.73757,0.41737,0.43129,-0.12075,0.79070,6.46120,-3.04868,3.63528
0.48452,0.82930,-0.09077,0.39242,0.77254,-0.48095,-1.71002,1.98591,1.30665,-2.77766,-0.67479,-0.48709,0.40329,0.44403,-0.12563,0.79020,0.29865,-0.40426,-3.25183
0.48452,0.85469,-0.09721,0.35371,0.78214,-0.48503,-1.70482,2.00029,1.24346,-2.63736,-0.83997,-0.36390,0.38906,0.45662,-0.13118,0.78925,0.20244,0.14867,-5.65541
0.48638,0.86651,-0.10428,0.31602,0.77174,-0.48992,-1.70460,2.00956,1.17463,-2.60309,-0.99517,-0.32808,0.37481,0.46859,-0.13714,0.78812,-0.68240,0.61434,-4.72648
0.48791,0.87638,-0.11133,0.27907,0.75634,-0.49324,-1.69363,2.00438,1.12305,-2.60529,-1.29738,-0.21425,0.36074,0.48014,-0.14264,0.78675,-0.48301,-0.29460,-4.02682
0.48894,0.88580,-0.11837,0.24188,0.73720,-0.49527,-1.65661,1.97109,1.07424,-2.63432,-1.50874,-0.14195,0.34754,0.49085,-0.14750,0.78519,1.64903,-2.19786,-3.40775
0.48914,0.89475,-0.12544,0.19927,0.71262,-0.49554,-1.61368,1.90171,1.03252,-2.61336,-1.69115,0.15181,0.33491,0.50036,-0.15159,0.78390,3.42733,-4.26568,-2.24643
0.48941,0.90361,-0.13247,0.16826,0.69042,-0.49445,-1.60289,1.84183,0.98114,-2.42973,-2.08660,0.19712,0.32188,0.50921,-0.15639,0.78272,0.67738,-5.56199,-2.54736
0.48904,0.91171,-0.13944,0.13561,0.66063,-0.49202,-1.53268,1.78142,0.94032,-2.03607,-2.31551,0.19571,0.31049,0.51793,-0.16013,0.78083,2.68361,-4.72267,-4.36558
