posX, posY, posZ, velX, velY, velZ, angVelX, angVelY, angVelZ, accX, accY, accZ, rotX, rotY, rotZ, rotW, angAccX, angAccY, angAccZ
0.00115,1.24716,-0.50103,-0.15256,0.30393,0.00248,1.40683,0.31336,-0.60999,-2.57083,3.12439,-1.16979,0.04689,0.93015,-0.00396,0.36415,13.44656,0.57366,-7.24349
-0.00387,1.25433,-0.50271,-0.19589,0.34904,-0.01955,1.49306,0.34601,-0.60038,-3.60072,3.55235,-1.83501,0.05519,0.93109,0.00628,0.36054,6.05930,0.23393,-0.76317
-0.01032,1.26242,-0.50490,-0.25230,0.39860,-0.04448,1.58793,0.43502,-0.62264,-4.64946,3.23622,-1.48377,0.06457,0.93259,0.01700,0.35472,7.86204,6.46645,2.70503
-0.01826,1.27156,-0.50731,-0.31862,0.45362,-0.06758,1.82631,0.65994,-0.56002,-4.47882,4.79435,-2.02813,0.07364,0.93555,0.03328,0.34382,8.30151,10.17593,-5.72668
-0.02693,1.28182,-0.50977,-0.38159,0.51263,-0.08779,2.08730,0.85419,-0.52965,-4.57798,3.91379,-1.27737,0.08391,0.93814,0.05189,0.33191,21.88426,12.43297,7.70411
-0.03608,1.29261,-0.51235,-0.43913,0.56825,-0.10524,2.35602,1.08282,-0.60294,-3.90344,3.96905,-1.10296,0.09804,0.94060,0.07104,0.31720,20.32183,16.08463,-2.80124
-0.04512,1.30372,-0.51495,-0.48241,0.61594,-0.11961,2.50797,1.22776,-0.66260,-3.53629,4.11691,-0.91039,0.11156,0.94214,0.08828,0.30352,16.95139,14.77549,-5.43551
-0.05531,1.31594,-0.51787,-0.53301,0.66969,-0.13560,2.53779,1.29106,-0.65884,-3.75932,3.90759,-0.93919,0.12227,0.94305,0.10322,0.29164,4.39358,6.03328,-0.47400
-0.06742,1.32953,-0.52132,-0.60328,0.73758,-0.15254,2.57865,1.41834,-0.61886,-4.08638,3.79394,-0.87899,0.13198,0.94428,0.11873,0.27717,1.02301,5.06827,3.64264
-0.07898,1.34262,-0.52413,-0.65124,0.78298,-0.15870,2.72058,1.59504,-0.63198,-4.07122,3.72701,-0.41415,0.14437,0.94497,0.13685,0.25974,9.08302,11.63018,1.84396
-0.09166,1.35687,-0.52642,-0.70497,0.83396,-0.15819,2.97702,1.86743,-0.68859,-3.70919,3.50938,0.24505,0.15993,0.94501,0.15845,0.23720,17.77267,18.38926,-2.02036
-0.10510,1.37179,-0.52820,-0.75960,0.88501,-0.14977,3.20286,2.14297,-0.75411,-3.19117,3.09761,1.03959,0.17648,0.94409,0.18017,0.21233,17.10625,19.45870,-3.43864
-0.11809,1.38629,-0.52971,-0.79627,0.91905,-0.13964,3.25503,2.25950,-0.74345,-2.93418,2.77139,1.10106,0.18935,0.94244,0.19862,0.19106,8.27975,11.06632,0.62335
-0.13172,1.40127,-0.53080,-0.83502,0.95498,-0.12479,3.26616,2.41215,-0.72048,-2.68185,2.53092,1.25804,0.20160,0.94058,0.21570,0.16773,1.80378,9.31902,3.52520
-0.14547,1.41615,-0.53152,-0.86942,0.98671,-0.10478,3.23179,2.53304,-0.66846,-2.40210,2.15542,1.85919,0.21231,0.93837,0.23142,0.14435,0.34815,9.50376,5.55582
-0.15976,1.43132,-0.53126,-0.90365,1.01555,-0.07260,3.18096,2.61100,-0.59950,-2.06807,1.67788,2.28246,0.22178,0.93558,0.24650,0.12142,-3.54447,3.44673,6.38611
-0.17384,1.44611,-0.53018,-0.92846,1.03405,-0.03675,3.21703,2.73493,-0.59230,-1.70189,1.07806,2.77016,0.23338,0.93121,0.26288,0.09634,2.45582,6.96893,2.62963
-0.18786,1.46043,-0.52836,-0.94608,1.04304,0.00545,3.30952,2.88962,-0.65604,-1.06187,0.46758,3.17413,0.24768,0.92486,0.28016,0.06922,5.29529,10.94704,-1.29566
-0.20159,1.47464,-0.52527,-0.95540,1.04653,0.05791,3.48078,3.16907,-0.78746,-0.37428,0.11112,3.41364,0.26554,0.91600,0.29842,0.03720,10.23319,17.30534,-6.36219
-0.21495,1.48860,-0.52214,-0.95719,1.04594,0.09850,3.51474,3.31512,-0.83993,0.25164,-0.03121,3.95517,0.28070,0.90694,0.31404,0.00768,8.26664,19.59052,-4.84894
-0.22816,1.50231,-0.51793,-0.95615,1.04273,0.14793,3.34519,3.21212,-0.76999,0.37963,-0.34549,4.01053,0.28995,0.89983,0.32560,-0.01440,-7.94184,-2.51060,4.26291
-0.24137,1.51595,-0.51275,-0.95381,1.03454,0.19929,3.09114,2.99063,-0.63651,0.16917,-0.74200,3.72592,0.29528,0.89426,0.33482,-0.03179,-16.76491,-16.65498,9.03575
-0.25441,1.52907,-0.50638,-0.94975,1.01930,0.25610,2.78496,2.75724,-0.48198,0.37173,-1.06747,3.48500,0.29842,0.89006,0.34138,-0.04699,-18.17941,-16.70192,10.97266
-0.26727,1.54213,-0.50018,-0.94273,1.00478,0.29788,2.62104,2.64037,-0.41605,0.54314,-1.25633,3.37154,0.30382,0.88401,0.34937,-0.06442,-15.81564,-14.07684,8.45630
-0.27956,1.55431,-0.49231,-0.92909,0.97938,0.35570,2.59848,2.68388,-0.43014,0.83422,-1.74407,3.49395,0.31230,0.87537,0.35887,-0.08607,-2.63662,0.65758,0.15944
-0.29150,1.56626,-0.48454,-0.91500,0.95598,0.39845,2.64500,2.78441,-0.47358,1.40056,-2.06145,3.49159,0.32212,0.86477,0.36926,-0.10979,2.79299,8.46074,-2.26842
-0.30280,1.57750,-0.47586,-0.89358,0.92618,0.44501,2.66298,2.85020,-0.51389,1.72415,-2.30628,3.23966,0.33185,0.85357,0.37899,-0.13290,2.21723,6.58612,-3.14689
-0.31374,1.58822,-0.46690,-0.87076,0.89361,0.48571,2.54067,2.78549,-0.47021,1.99367,-2.59789,2.95181,0.33827,0.84476,0.38576,-0.15214,-4.21780,-0.12521,1.92588
-0.32431,1.59836,-0.45775,-0.84776,0.85946,0.52120,2.26277,2.49305,-0.34238,1.75963,-2.54277,2.51711,0.33974,0.84028,0.38961,-0.16343,-16.90334,-17.94397,8.46101
-0.33491,1.60828,-0.44866,-0.83059,0.82992,0.54816,2.01971,2.22346,-0.20844,1.15561,-2.43591,2.03115,0.33969,0.83674,0.39294,-0.17343,-20.91680,-27.11190,10.82347
-0.34524,1.61729,-0.43924,-0.81213,0.79299,0.57533,1.86745,2.10741,-0.10086,1.12670,-2.67774,1.63023,0.34048,0.83198,0.39624,-0.18674,-12.11039,-14.04624,9.66903
-0.35499,1.62514,-0.43072,-0.78710,0.74754,0.59647,1.75155,2.11130,-0.05198,1.73096,-3.01462,1.22428,0.34361,0.82561,0.39910,-0.20253,-6.44162,-0.80451,4.81169
-0.36455,1.63303,-0.42232,-0.76473,0.71145,0.60793,1.69311,2.17006,-0.06789,1.86748,-2.98776,0.93064,0.34882,0.81757,0.40218,-0.21944,-6.63831,2.59447,1.22916
-0.37328,1.63990,-0.41337,-0.73596,0.66872,0.61888,1.64571,2.31214,-0.12614,2.12495,-3.11302,0.76096,0.35645,0.80803,0.40392,-0.23851,-3.51572,10.07834,-1.78119
-0.38113,1.64544,-0.40409,-0.70209,0.61820,0.62873,1.51292,2.36081,-0.15540,2.34817,-3.23536,0.60435,0.36322,0.80023,0.40343,-0.25484,-6.93811,6.06129,-0.90619
-0.38937,1.65166,-0.39506,-0.68103,0.58692,0.63329,1.38249,2.28346,-0.15118,2.27762,-3.07489,0.40758,0.36778,0.79396,0.40338,-0.26767,-11.81243,-3.39869,1.48128
-0.39640,1.65633,-0.38596,-0.64619,0.53856,0.63674,1.17549,2.13844,-0.13768,2.17399,-3.02299,0.00092,0.37169,0.78998,0.40134,-0.27696,-12.85316,-10.28428,2.51337
-0.40310,1.66090,-0.37714,-0.61326,0.49669,0.63522,1.04733,2.11318,-0.17620,2.30975,-2.77478,-0.25342,0.37789,0.78382,0.39948,-0.28851,-11.60379,-3.71184,-0.32094
-0.40732,1.66295,-0.36846,-0.54519,0.41956,0.63158,1.03940,2.34523,-0.33703,2.43190,-2.69411,0.09242,0.38939,0.77238,0.39790,-0.30575,0.70739,10.43954,-5.71897
-0.41999,1.67184,-0.35037,-0.50935,0.37771,0.63618,1.08037,2.37423,-0.39941,2.29974,-2.63204,0.31025,0.40309,0.75252,0.39875,-0.33502,1.72845,4.12405,-4.83622
-0.42565,1.67538,-0.34114,-0.48895,0.35206,0.63939,1.09007,2.33459,-0.41568,2.05613,-2.65070,0.22615,0.40906,0.74279,0.39960,-0.34821,1.71368,-2.07261,-3.04291
-0.42997,1.67722,-0.33209,-0.45408,0.30779,0.64005,1.06396,2.22284,-0.42774,1.93312,-2.43500,-0.22042,0.41416,0.73440,0.40060,-0.35868,-1.23342,-6.23279,-0.82825
-0.43452,1.67940,-0.32343,-0.42805,0.27574,0.63442,1.00015,2.14074,-0.42008,1.82973,-2.27294,-0.62024,0.41931,0.72656,0.40010,-0.36908,-4.33129,-5.60734,0.24961
-0.43903,1.68157,-0.31513,-0.40764,0.25102,0.62561,0.91225,2.05936,-0.38836,1.67175,-2.02826,-0.89802,0.42390,0.71974,0.39852,-0.37876,-5.95670,-6.67811,2.16398
-0.44289,1.68317,-0.30737,-0.38151,0.22363,0.61167,0.80477,1.97991,-0.31260,1.62268,-1.46562,-0.76628,0.42742,0.71426,0.39553,-0.38820,-7.32496,-5.21489,4.87242
-0.44680,1.68490,-0.29930,-0.36077,0.20332,0.60479,0.75915,1.86924,-0.22005,1.48639,-1.41542,-0.31487,0.42904,0.70909,0.39383,-0.39751,-3.05200,-6.37448,6.47460
-0.45042,1.68641,-0.29108,-0.34037,0.18412,0.60219,0.73978,1.75999,-0.12766,1.52338,-1.24825,-0.08634,0.42961,0.70423,0.39260,-0.40666,-1.20185,-9.06854,6.94064
-0.45378,1.68791,-0.28267,-0.32039,0.16875,0.60240,0.77513,1.71583,-0.09066,1.66054,-1.21320,0.09872,0.43093,0.69744,0.39237,-0.41704,1.77729,-5.59914,4.04305
-0.45621,1.68872,-0.27420,-0.29125,0.14666,0.60357,0.84283,1.68281,-0.08100,2.01110,-1.50351,-0.02365,0.43218,0.68963,0.39332,-0.42771,4.92045,-1.75573,0.11903
-0.45835,1.68938,-0.26594,-0.26304,0.12643,0.60118,0.84451,1.58689,-0.07052,2.22721,-1.53265,-0.34718,0.43314,0.68347,0.39389,-0.43601,1.59276,-4.75545,-0.34677
-0.45999,1.68989,-0.25797,-0.23376,0.10829,0.59563,0.77660,1.39929,-0.03758,2.16015,-1.28067,-0.48551,0.43299,0.68029,0.39409,-0.44093,-3.56387,-12.07139,1.86624
-0.46128,1.69023,-0.25019,-0.20522,0.09131,0.58811,0.72157,1.22376,-0.00342,1.93248,-1.11615,-0.56669,0.43226,0.67767,0.39453,-0.44527,-4.90265,-14.45936,2.71450
-0.46200,1.69023,-0.24270,-0.17385,0.07266,0.57815,0.71004,1.10614,0.00803,1.90206,-1.12621,-0.65739,0.43176,0.67397,0.39556,-0.45042,-0.99618,-7.46749,0.47833
-0.46292,1.69032,-0.23524,-0.15162,0.05897,0.56918,0.70611,1.03554,-0.00021,1.78127,-1.11073,-0.82842,0.43186,0.66955,0.39661,-0.45597,-0.57726,-6.71498,-0.23410
-0.46327,1.69017,-0.22820,-0.12609,0.04498,0.55632,0.71504,1.00580,-0.02840,1.74725,-0.84469,-0.94784,0.43258,0.66426,0.39784,-0.46191,-0.52811,-3.56080,-1.85992
-0.46303,1.68984,-0.22158,-0.09670,0.03091,0.53993,0.74871,1.06021,-0.09615,1.83663,-0.86765,-1.08136,0.43494,0.65665,0.39914,-0.46939,1.92204,3.26612,-4.12489
-0.46288,1.68958,-0.21496,-0.07474,0.02076,0.52653,0.77618,1.08399,-0.15238,1.92731,-0.83260,-1.22485,0.43705,0.64915,0.40076,-0.47642,2.51295,3.89117,-4.66780
-0.46226,1.68919,-0.20875,-0.05067,0.01094,0.51021,0.76592,1.00058,-0.17041,1.79297,-0.75682,-1.24929,0.43769,0.64408,0.40279,-0.48099,0.21021,-3.13875,-2.84723
-0.46151,1.68872,-0.20283,-0.02980,0.00194,0.49335,0.72602,0.86245,-0.16764,1.33529,-0.65812,-1.24572,0.43742,0.64094,0.40491,-0.48364,-3.03829,-10.35232,-0.20344
-0.46051,1.68804,-0.19741,-0.00899,-0.00848,0.47207,0.68867,0.77276,-0.14852,1.23888,-0.66494,-1.41681,0.43711,0.63777,0.40631,-0.48693,-2.22841,-6.11695,0.99119
-0.45944,1.68731,-0.19221,0.00876,-0.01753,0.45139,0.64679,0.72279,-0.16415,1.24175,-0.60631,-1.53330,0.43797,0.63389,0.40759,-0.49013,-2.93598,-3.93568,-0.74421
-0.45831,1.68656,-0.18722,0.02353,-0.02486,0.43266,0.62182,0.70910,-0.19057,1.15176,-0.57333,-1.56734,0.43934,0.62928,0.40888,-0.49376,-2.93364,-2.20777,-2.12382
-0.45671,1.68563,-0.18291,0.04210,-0.03341,0.40764,0.60309,0.73132,-0.23692,1.13579,-0.42908,-1.54621,0.44169,0.62369,0.41009,-0.49775,-1.63828,1.31605,-2.76366
-0.45509,1.68475,-0.17863,0.05746,-0.03959,0.38662,0.59214,0.73278,-0.27588,1.08548,-0.45591,-1.52552,0.44376,0.61821,0.41164,-0.50144,-0.73413,1.09798,-2.77759
-0.45342,1.68385,-0.17447,0.07015,-0.04463,0.36874,0.57682,0.72126,-0.30411,1.05902,-0.44720,-1.51424,0.44568,0.61307,0.41321,-0.50475,-0.88183,-0.92349,-2.69312
-0.45137,1.68282,-0.17101,0.08582,-0.05062,0.34450,0.53990,0.67194,-0.32596,0.95628,-0.44856,-1.56468,0.44744,0.60895,0.41485,-0.50683,-1.79902,-2.47166,-1.86154
-0.44930,1.68178,-0.16769,0.09869,-0.05547,0.32246,0.47310,0.62063,-0.32980,0.95949,-0.28264,-1.57346,0.44937,0.60574,0.41564,-0.50833,-4.62763,-3.80804,0.07710
-0.44704,1.68076,-0.16462,0.11181,-0.05920,0.30156,0.42584,0.61302,-0.36756,0.70649,-0.30874,-1.39478,0.45234,0.60138,0.41663,-0.51005,-3.80623,-2.19506,-2.14441
-0.44471,1.67988,-0.16157,0.12318,-0.05998,0.28493,0.43197,0.67251,-0.40814,0.97924,0.23568,-1.26711,0.45569,0.59508,0.41767,-0.51360,-1.89665,3.02379,-2.41097
-0.44205,1.67917,-0.15871,0.13665,-0.05810,0.26911,0.44730,0.76094,-0.42985,1.13215,0.29990,-0.95137,0.45925,0.58792,0.41806,-0.51833,0.97176,7.18191,-2.13565
-0.43815,1.67849,-0.15573,0.16854,-0.05660,0.25779,0.56573,0.69389,-0.51877,1.26008,-0.12853,-0.03563,0.46071,0.58054,0.42336,-0.52104,4.14155,-3.40042,-3.47069
-0.43247,1.67675,-0.14840,0.18253,-0.05898,0.26000,0.63776,0.52593,-0.52783,0.94125,-0.19065,0.17860,0.46135,0.57060,0.43156,-0.52472,4.83059,-10.55667,-2.28397
-0.42917,1.67587,-0.14460,0.19327,-0.05979,0.26261,0.70139,0.30650,-0.49574,0.64568,-0.03146,0.06522,0.45770,0.56861,0.43860,-0.52424,4.32146,-15.52525,0.59599
-0.42592,1.67520,-0.14106,0.20145,-0.05746,0.26102,0.73928,0.10755,-0.44276,0.39582,0.28508,-0.26535,0.45330,0.56770,0.44524,-0.52344,2.49705,-16.48328,2.83312
-0.42251,1.67485,-0.13794,0.20995,-0.05090,0.25335,0.76561,-0.00581,-0.39209,0.70230,0.56237,-0.82410,0.44944,0.56608,0.45089,-0.52370,2.59860,-8.91046,3.62831
-0.41887,1.67479,-0.13525,0.22017,-0.04169,0.24145,0.73722,-0.11302,-0.33799,0.70413,0.59176,-0.80278,0.44597,0.56573,0.45551,-0.52305,-2.12527,-7.66828,3.29661
-0.41500,1.67483,-0.13253,0.23191,-0.03284,0.23251,0.73049,-0.22409,-0.30767,0.91714,0.63973,-0.45785,0.44206,0.56538,0.46103,-0.52190,-1.68487,-8.43522,2.12247
-0.41085,1.67483,-0.12954,0.24486,-0.02640,0.22898,0.77955,-0.32313,-0.31059,0.98538,0.53555,-0.00130,0.43749,0.56387,0.46826,-0.52095,1.90776,-7.34671,0.08899
-0.40642,1.67484,-0.12617,0.25937,-0.02105,0.23163,0.87841,-0.42124,-0.33076,1.09444,0.35394,0.38664,0.43180,0.56140,0.47723,-0.52021,6.29790,-7.31375,-0.97144
-0.40185,1.67468,-0.12260,0.27298,-0.01913,0.23659,0.99627,-0.46833,-0.37149,1.15884,0.09583,0.48220,0.42631,0.55723,0.48691,-0.52025,8.76221,-4.78942,-3.09757
-0.39648,1.67439,-0.11877,0.29527,-0.01955,0.24404,1.15194,-0.55107,-0.45021,1.35901,-0.06693,0.30424,0.41976,0.55200,0.49921,-0.51951,9.20995,-4.16636,-3.90152
-0.39130,1.67408,-0.11510,0.31059,-0.02017,0.24801,1.21819,-0.64793,-0.50376,1.29410,-0.14399,0.29695,0.41358,0.54839,0.51050,-0.51731,6.31049,-6.63747,-5.39501
-0.38587,1.67369,-0.11120,0.32644,-0.02168,0.25449,1.27119,-0.81593,-0.55237,1.05652,-0.14878,0.56157,0.40589,0.54619,0.52316,-0.51307,3.75918,-10.32877,-4.96550
-0.38049,1.67322,-0.10696,0.33801,-0.02409,0.26436,1.34898,-1.00581,-0.58699,0.68276,-0.15749,0.84235,0.39631,0.54428,0.53710,-0.50815,4.32528,-13.49421,-3.55249
-0.37523,1.67266,-0.10241,0.34578,-0.02716,0.27663,1.45171,-1.16925,-0.60912,0.42887,-0.21023,0.95249,0.38552,0.54177,0.55165,-0.50353,6.42156,-12.45958,-2.54814
-0.37006,1.67199,-0.09761,0.35099,-0.03145,0.29029,1.60305,-1.30882,-0.63395,0.17421,-0.23299,0.77128,0.37331,0.53782,0.56745,-0.49940,9.10509,-9.58613,-2.39700
-0.36497,1.67144,-0.09300,0.35375,-0.03296,0.29838,1.70181,-1.40854,-0.63798,0.23895,-0.06141,0.39929,0.36129,0.53404,0.58216,-0.49534,7.55070,-7.49501,0.01951
-0.35979,1.67106,-0.08859,0.35753,-0.03188,0.30200,1.75726,-1.49371,-0.65488,0.25388,0.10405,0.12145,0.34972,0.53042,0.59651,-0.49044,4.78575,-6.60700,-1.31884
-0.35460,1.67077,-0.08438,0.36076,-0.02964,0.30219,1.78086,-1.54820,-0.66315,0.25263,0.20618,-0.04266,0.33854,0.52688,0.61001,-0.48547,2.58185,-5.33667,-1.18804
-0.34922,1.67055,-0.08029,0.36569,-0.02683,0.30042,1.81888,-1.60027,-0.67101,0.35842,0.13500,-0.15665,0.32671,0.52286,0.62380,-0.48037,1.86169,-2.92674,-0.60493
-0.34380,1.67025,-0.07628,0.37044,-0.02588,0.29787,1.82586,-1.64996,-0.69122,0.34012,-0.04933,-0.26745,0.31530,0.51907,0.63724,-0.47443,1.60862,-3.01063,-1.40286
-0.33831,1.66995,-0.07235,0.37526,-0.02486,0.29479,1.79400,-1.73225,-0.72731,0.48934,0.17661,-0.21782,0.30388,0.51634,0.65059,-0.46667,-1.65729,-4.68093,-2.35531
-0.33261,1.66982,-0.06841,0.38205,-0.02178,0.29237,1.77554,-1.77090,-0.76293,0.58383,0.39241,-0.12462,0.29291,0.51281,0.66365,-0.45913,-2.52037,-4.75240,-4.24156
-0.32652,1.66999,-0.06446,0.39273,-0.01511,0.29056,1.78171,-1.75602,-0.79231,0.77660,0.63652,0.00020,0.28246,0.50789,0.67640,-0.45249,0.24308,0.52405,-2.74098
-0.32014,1.67041,-0.06036,0.40574,-0.00625,0.29160,1.81705,-1.69208,-0.78978,1.01207,0.64559,0.25184,0.27216,0.50160,0.68842,-0.44767,2.42833,3.94588,0.59957
-0.31330,1.67085,-0.05576,0.42296,0.00115,0.29958,1.88437,-1.66363,-0.79743,1.22039,0.25530,0.74900,0.26080,0.49448,0.70122,-0.44245,4.00873,2.59495,0.88234
-0.30617,1.67079,-0.05047,0.44098,-0.00018,0.31604,1.96725,-1.74452,-0.85430,1.29882,-0.41403,1.26928,0.24734,0.48749,0.71596,-0.43425,5.47651,-3.52901,-2.38427
-0.29916,1.67024,-0.04491,0.45384,-0.00830,0.33308,2.01386,-1.89950,-0.95897,1.13605,-0.92374,1.48017,0.23300,0.48145,0.73167,-0.42258,5.07279,-9.70087,-7.84463
-0.29197,1.66913,-0.03877,0.46645,-0.02260,0.35488,2.04565,-2.12735,-1.11988,0.94480,-1.11402,1.61489,0.21730,0.47596,0.74888,-0.40671,3.36573,-14.56099,-12.82755
-0.28454,1.66767,-0.03223,0.47959,-0.03908,0.37764,2.11972,-2.31030,-1.29374,0.80850,-1.23073,1.68966,0.20129,0.46848,0.76690,-0.38970,4.95593,-12.82494,-14.20462
-0.27691,1.66554,-0.02529,0.49357,-0.06233,0.40214,2.28382,-2.39576,-1.42879,0.73652,-1.58917,1.49866,0.18496,0.45722,0.78523,-0.37439,10.06154,-6.04122,-8.61313
-0.26933,1.66322,-0.01860,0.50413,-0.08364,0.41817,2.43124,-2.40230,-1.50506,0.87246,-1.92505,1.24608,0.16929,0.44457,0.80221,-0.36077,12.76470,-2.56993,-4.74107
-0.26145,1.66007,-0.01166,0.51620,-0.11222,0.43408,2.59417,-2.40137,-1.60281,0.78857,-2.22823,0.97399,0.15352,0.42978,0.81968,-0.34618,13.22673,0.43247,-4.48531
-0.25375,1.65629,-0.00485,0.52369,-0.14404,0.44509,2.66972,-2.41535,-1.69416,0.39249,-2.43392,0.56240,0.13831,0.41620,0.83580,-0.33029,8.73300,-1.07096,-5.33314
-0.24613,1.65224,0.00189,0.52843,-0.17307,0.45284,2.74224,-2.40177,-1.76351,0.26148,-2.53382,0.57178,0.12341,0.40163,0.85118,-0.31457,5.66692,0.15614,-5.36867
-0.23846,1.64719,0.00872,0.53254,-0.20980,0.45987,2.83177,-2.33803,-1.81982,0.19545,-2.71323,0.53025,0.10949,0.38509,0.86603,-0.29952,7.04172,3.80835,-2.77803
-0.23083,1.64106,0.01570,0.53549,-0.25502,0.46811,2.97975,-2.22326,-1.83619,0.08375,-2.93448,0.54930,0.09594,0.36550,0.88044,-0.28641,9.48393,5.59965,1.41119
-0.22330,1.63459,0.02268,0.53676,-0.29699,0.47486,3.10884,-2.11106,-1.81834,-0.02187,-3.13313,0.45807,0.08243,0.34531,0.89374,-0.27420,10.45045,6.16615,3.54706
-0.21596,1.62725,0.02965,0.53450,-0.34268,0.47972,3.22421,-2.02479,-1.79290,-0.28212,-3.49521,0.22004,0.06846,0.32444,0.90632,-0.26199,8.97163,5.05105,5.79256
-0.20903,1.61946,0.03649,0.52727,-0.38524,0.48208,3.29070,-2.00212,-1.80923,-0.78173,-3.76220,0.17254,0.05398,0.30436,0.91823,-0.24760,6.51064,2.49760,0.77323
-0.20316,1.60891,0.04325,0.50626,-0.45974,0.48292,3.44593,-2.05276,-1.82444,-1.45007,-4.64296,-0.02790,0.03640,0.28153,0.93030,-0.23228,7.91427,-2.38449,0.05721
-0.19782,1.59780,0.04954,0.48097,-0.52874,0.47617,3.58877,-2.15725,-1.97278,-1.87867,-5.30823,-0.68233,0.01822,0.25777,0.94256,-0.21168,10.66325,-6.51573,-7.72162
-0.19348,1.58445,0.05508,0.44578,-0.61810,0.45973,3.79889,-2.28578,-2.22012,-2.36025,-5.95974,-1.34910,-0.00080,0.23074,0.95498,-0.18646,13.13853,-6.43343,-15.13309
-0.18925,1.57089,0.06004,0.41651,-0.69214,0.43835,4.01572,-2.35727,-2.42784,-2.48515,-6.43691,-2.24752,-0.01926,0.20149,0.96599,-0.16094,18.30139,-5.55770,-14.96696
-0.18564,1.55583,0.06382,0.38471,-0.77002,0.40450,4.25197,-2.39082,-2.68772,-2.73232,-6.67527,-3.47215,-0.03667,0.16908,0.97604,-0.13196,21.85348,-2.43075,-17.86217
-0.18349,1.53774,0.06467,0.33854,-0.87620,0.33510,4.63031,-2.35966,-3.08820,-2.96701,-6.66218,-5.25465,-0.05180,0.12940,0.98549,-0.09690,26.48526,2.55030,-19.37432
-0.18170,1.51953,0.06357,0.29587,-0.96436,0.25064,5.01933,-2.27715,-3.42482,-3.30234,-5.91415,-6.89771,-0.06532,0.08645,0.99222,-0.06132,32.36443,6.03413,-19.13510
-0.18584,1.49811,0.06501,0.25677,-1.03060,0.15921,5.38082,-2.20287,-3.53111,-3.76996,-4.86393,-8.44098,-0.07982,0.04135,0.99548,-0.03051,32.77963,4.15783,-8.92920
-0.19435,1.46910,0.06775,0.20661,-1.09027,0.02903,5.85123,-2.22897,-3.33826,-4.19387,-3.15884,-9.96620,-0.09927,-0.00976,0.99498,-0.00817,30.91301,-9.54323,9.95930
-0.20381,1.43790,0.06328,0.14383,-1.12885,-0.14138,6.35016,-2.62894,-2.58358,-4.55008,-1.00850,-11.21461,-0.13384,-0.06442,0.98890,-0.00370,19.78743,-40.57934,31.67999
-0.21109,1.40921,0.05206,0.08838,-1.13222,-0.30884,6.65776,-3.30726,-1.72755,-3.77902,0.96849,-12.89562,-0.17936,-0.11554,0.97695,-0.00702,5.81909,-71.17019,37.64679
-0.22046,1.38302,0.03463,0.03792,-1.09248,-0.50603,6.79992,-4.01101,-1.12298,-3.04802,4.39338,-15.46058,-0.22821,-0.16303,0.95983,-0.00834,-1.71188,-71.03689,22.89441
-0.22973,1.36124,0.01439,0.00219,-1.01898,-0.69743,6.81876,-4.59543,-0.85989,-2.22460,8.00957,-17.03490,-0.27596,-0.20632,0.93876,-0.00320,-3.93286,-57.75413,0.00286
-0.24118,1.34300,-0.01342,-0.02149,-0.87752,-0.94064,6.74683,-5.29676,-0.72137,-1.09606,12.45345,-17.64263,-0.33006,-0.24546,0.91148,0.00323,-5.85671,-44.62066,-14.91374
-0.25578,1.32930,-0.04678,-0.02028,-0.66205,-1.20426,6.46192,-6.51722,-0.50298,0.82272,14.88792,-15.15003,-0.40245,-0.27559,0.87297,0.00218,-14.13998,-67.91877,-27.62283
-0.27235,1.32103,-0.07820,0.01138,-0.44367,-1.39695,5.97762,-7.73902,-0.45859,3.80291,16.90621,-12.75256,-0.47920,-0.29499,0.82665,0.00065,-21.99129,-80.73772,-43.96133
-0.29687,1.31944,-0.10948,0.09350,-0.15468,-1.57198,5.27880,-8.55606,-0.85902,7.81228,19.61860,-9.84329,-0.55008,-0.29990,0.77935,0.00876,-21.54673,-43.92762,-62.29037
-0.31435,1.32441,-0.14026,0.21114,0.13017,-1.68214,4.71416,-8.55809,-1.38094,10.39066,21.19114,-6.38776,-0.60091,-0.30248,0.73945,0.02498,-11.83227,7.98348,-54.79577
-0.32752,1.33451,-0.16936,0.36494,0.42567,-1.74285,4.17454,-8.28667,-1.78859,12.03938,21.66353,-2.54598,-0.64253,-0.30166,0.70322,0.04053,-11.64834,33.45615,-40.76748
-0.33611,1.34934,-0.19686,0.54299,0.72347,-1.75312,3.39737,-8.14928,-2.08922,13.09095,22.03208,0.87343,-0.68483,-0.29044,0.66657,0.04845,-26.38732,28.43872,-38.98996
-0.34113,1.36819,-0.22157,0.73823,1.02194,-1.71962,2.27680,-8.30148,-2.34221,13.98684,22.01501,3.61040,-0.73174,-0.26425,0.62669,0.04463,-49.88956,13.32513,-54.57111
-0.34327,1.39063,-0.24368,0.94511,1.32151,-1.65509,0.89027,-8.66923,-2.83338,13.93876,19.74581,4.52501,-0.78298,-0.21860,0.58134,0.03475,-72.45850,-3.13724,-80.36588
-0.34183,1.41864,-0.26402,1.17992,1.64664,-1.56316,-0.80043,-9.01535,-3.51739,18.66220,26.81698,7.60163,-0.83233,-0.15181,0.53277,0.01845,-40.95423,-13.36810,-114.16890
-0.33465,1.45139,-0.28165,1.40536,1.96546,-1.46481,-2.61491,-9.47132,-4.68652,18.99263,27.88030,8.14792,-0.87847,-0.05791,0.47427,0.00116,-84.53453,-7.25878,-133.96110
-0.32952,1.49157,-0.29803,1.72132,2.38977,-1.32799,-4.75850,-10.10054,-6.89159,21.76745,26.17179,9.60118,-0.91458,0.08333,0.39560,-0.00971,-52.37156,-59.47910,-187.91360
-0.31046,1.53721,-0.31935,2.04265,2.77380,-1.20043,-5.54371,-9.50180,-9.08620,27.46022,27.85160,11.05761,-0.91767,0.21306,0.33519,0.01161,31.57523,-35.80590,-169.60190
-0.28187,1.59009,-0.34018,2.46192,3.16950,-1.06688,-4.92755,-8.45745,-11.15112,34.84773,26.54855,11.65381,-0.89869,0.32593,0.28539,0.06839,138.24450,-34.96172,-122.83880
-0.24581,1.65247,-0.35200,3.15336,3.63030,-0.83847,-3.29839,-6.68463,-13.36475,52.16647,28.07715,18.71042,-0.84871,0.43320,0.25956,0.15705,168.88150,-40.76382,-76.40805
-0.19289,1.71721,-0.35601,3.83954,3.93529,-0.57965,-1.08593,-5.35029,-14.71622,62.31713,20.82565,26.25119,-0.78448,0.51338,0.23411,0.25735,202.86180,-108.05800,-60.50697
-0.12048,1.78318,-0.34779,4.78959,4.15018,-0.15987,1.99489,-4.65409,-15.78732,76.46516,9.60751,36.62611,-0.69843,0.56603,0.20375,0.38768,173.74340,-179.17490,-8.63077
-0.02653,1.84147,-0.31998,5.92271,4.13687,0.44860,4.53011,-4.65339,-17.48627,89.82311,-12.17889,50.51430,-0.57281,0.62023,0.14651,0.51550,110.03780,-179.89740,-71.93414
0.09712,1.87315,-0.26037,7.37837,3.63162,1.44258,6.21429,-4.39251,-20.36705,93.12914,-53.65171,71.53378,-0.38448,0.68662,0.06870,0.61319,107.14870,-88.21708,-155.31060
0.23154,1.87186,-0.18759,8.43775,2.74694,2.37871,7.72557,-4.10141,-22.51632,83.17805,-97.19849,85.93565,-0.17507,0.71613,-0.00782,0.67561,107.57730,-81.81055,-160.83640
0.37191,1.79913,-0.08063,9.37094,0.98782,3.65650,10.41841,-2.76465,-24.56072,49.54279,-158.68110,94.23540,0.08622,0.70629,-0.04811,0.70101,107.31000,-126.81360,-150.80620
0.47372,1.64099,0.04191,9.57523,-1.65282,4.87528,13.99143,1.11352,-26.19554,-19.68757,-220.73130,74.46902,0.38580,0.67400,-0.02566,0.62946,205.29120,-203.92110,-172.90540
0.51630,1.43079,0.14389,8.83898,-4.49139,5.57676,19.63076,4.75577,-25.53593,-103.26660,-254.68900,38.06523,0.66289,0.55713,0.07170,0.49502,213.72960,-370.64830,-284.47720
0.40826,1.12138,0.19080,6.27440,-8.48552,5.49378,32.31683,8.42712,-20.67220,-211.56230,-238.17900,-63.40977,0.88826,0.25349,0.32646,0.20039,190.26190,-179.22290,-697.75980
0.25573,0.88614,0.16363,3.29301,-10.85803,4.30236,46.90936,7.29313,-11.53336,-262.86640,-145.29350,-139.24590,0.79953,-0.23192,0.50896,-0.21892,741.53720,522.55270,-917.60410
0.02571,0.74668,0.04503,-0.36015,-11.88984,1.78896,54.02954,-7.61959,-3.29282,-237.59470,-6.33875,-181.60050,0.37805,-0.67857,0.48510,-0.40163,1171.12500,965.08150,-41.90401
-0.14409,0.73539,-0.09221,-2.80667,-10.62127,-0.81459,41.20905,-16.67871,-9.09050,-126.81650,145.31890,-154.00180,0.23180,-0.83015,0.46697,-0.19763,470.52880,1062.84600,614.51230
-0.23273,0.80647,-0.18953,-3.66203,-8.10976,-2.04288,24.25436,-9.00176,-14.33345,-6.66962,155.76390,-17.78419,0.39208,-0.77941,0.47242,0.12495,-201.70010,940.08360,924.08860
-0.27173,0.81490,-0.23037,-3.59984,-6.82162,-2.02178,18.11103,-5.28135,-12.90801,28.99884,122.35920,27.59157,0.43580,-0.76046,0.44071,0.19379,-190.67380,629.82980,745.91270
0.01057,0.81776,-0.16730,-3.10243,-5.41666,-1.41383,11.27722,-5.78095,-7.13144,29.84304,47.32193,42.08177,0.43147,-0.66529,0.57907,0.18948,-502.10010,1.00195,117.00450
0.23742,0.73991,-0.09131,-2.83119,-4.99333,-0.90266,6.58074,-5.58266,-4.48895,15.85581,23.76199,39.62486,0.40879,-0.60424,0.65334,0.20231,-448.91090,9.67767,73.12854
0.37123,0.68437,-0.01144,-2.70728,-4.59088,-0.23446,0.72635,-2.26521,-2.97988,0.08167,23.34267,29.70804,0.43763,-0.47371,0.70025,0.30615,-327.05580,246.93740,53.86539
0.38313,0.64272,0.02474,-2.74382,-4.23031,0.10510,-1.24834,0.26506,-2.74888,-2.93508,30.35607,21.82944,0.46369,-0.41740,0.68592,0.37453,-119.93040,240.61820,-3.78468
0.36297,0.60837,0.04695,-2.80891,-3.86242,0.29824,-2.29424,0.91115,-2.59500,-5.85906,31.44080,13.98823,0.45987,-0.38402,0.68486,0.41474,-89.07619,125.43750,24.73763
0.33127,0.58947,0.06656,-2.91635,-3.35788,0.44706,-2.58441,0.98124,-3.21455,-5.96748,31.85270,7.40602,0.43892,-0.38069,0.67389,0.45640,-11.31726,-4.44606,-54.19710
0.29308,0.57350,0.08149,-2.97624,-2.91688,0.53775,-2.96388,1.17494,-3.45888,-4.17869,30.53159,4.35746,0.42220,-0.36709,0.66476,0.49507,-27.38023,8.20862,-16.41221
0.25387,0.56135,0.09466,-2.99866,-2.51452,0.59433,-3.34023,1.84917,-3.53429,-0.68114,27.82641,2.24103,0.41655,-0.34224,0.64806,0.53793,-18.23634,40.83467,-19.21237
0.21681,0.55366,0.10569,-2.97134,-2.13338,0.61388,-3.48985,3.15281,-3.51465,2.55039,26.49930,-1.22270,0.42942,-0.30673,0.61660,0.58422,-1.31974,84.35524,-15.81206
0.18303,0.54723,0.11362,-2.89930,-1.81769,0.59044,-3.23177,4.40905,-3.46088,5.82033,26.36618,-4.37070,0.45208,-0.27339,0.57531,0.62442,30.31639,95.58508,-27.71308
0.15642,0.55230,0.11705,-2.76027,-1.41019,0.50299,-2.24081,5.74229,-3.45001,8.10198,23.82574,-6.72580,0.49278,-0.24951,0.51654,0.65430,73.08691,74.59526,-36.96042
0.12854,0.55329,0.11869,-2.65377,-1.13427,0.41758,-1.51165,5.97512,-3.56972,9.64950,21.72047,-6.11321,0.51322,-0.23979,0.46981,0.67704,66.62917,26.21656,-43.73122
0.10494,0.55941,0.11851,-2.51027,-0.84042,0.32704,-1.22356,5.21891,-3.52863,11.40754,19.81389,-4.76578,0.51261,-0.24060,0.44630,0.69294,22.74938,-42.43013,-10.79464
0.08519,0.56702,0.11838,-2.34023,-0.57750,0.25900,-1.29645,4.38251,-3.31018,11.29857,17.45155,-4.96438,0.50335,-0.23743,0.43464,0.70807,-19.59837,-72.26302,27.81573
0.06904,0.57388,0.11809,-2.15513,-0.37253,0.20677,-0.85338,4.65338,-3.31750,11.63331,12.83594,-4.25740,0.51789,-0.22578,0.39571,0.72404,18.23303,-4.39966,0.32240
0.05576,0.57891,0.11745,-1.96713,-0.22644,0.16088,0.02605,5.34890,-3.52470,12.68210,9.27980,-3.03790,0.54809,-0.21449,0.33638,0.73515,61.19056,35.38881,-36.79216
0.04631,0.58277,0.11654,-1.80797,-0.12603,0.12673,0.66566,5.55415,-3.64835,13.58406,7.57388,-1.97791,0.57096,-0.20812,0.28382,0.74171,59.60439,21.62543,-40.85004
0.04088,0.59044,0.11522,-1.54979,0.01731,0.08662,0.74749,4.48918,-3.21894,13.33117,5.98269,-0.75931,0.57414,-0.21521,0.27138,0.74189,0.07495,-53.85635,16.20643
0.03116,0.59505,0.11538,-1.39764,0.08915,0.07605,0.34693,3.44412,-2.69794,11.91500,5.57326,-0.18025,0.56589,-0.21722,0.27181,0.74746,-31.42228,-80.33650,47.07051
0.02485,0.60088,0.11593,-1.22737,0.16532,0.07638,-0.21237,2.39816,-2.18117,11.13225,5.28674,0.65764,0.55005,-0.22006,0.28147,0.75485,-44.79453,-74.86103,48.78110
0.02120,0.60811,0.11771,-1.03863,0.24143,0.09203,-0.88357,1.64841,-1.67015,11.28716,4.36267,1.30642,0.53030,-0.21679,0.29330,0.76535,-44.87082,-46.64210,40.48390
0.01722,0.61412,0.11953,-0.89506,0.28419,0.10589,-1.19056,1.52337,-1.38874,10.71531,3.42355,1.03391,0.51963,-0.20688,0.29138,0.77607,-33.43537,-18.58247,34.86596
0.01758,0.61978,0.12153,-0.71794,0.31336,0.12015,-1.09349,1.92728,-1.39320,9.70589,1.20656,0.51043,0.52036,-0.19226,0.27218,0.78625,2.41724,20.84395,2.71312
0.01580,0.62434,0.12333,-0.59979,0.31482,0.12659,-0.82290,2.37214,-1.53524,9.56906,-0.44392,0.59107,0.52596,-0.17876,0.24515,0.79455,22.70211,33.66930,-17.95433
0.01676,0.62819,0.12483,-0.46851,0.30554,0.12892,-0.53174,2.80042,-1.60643,9.34614,-0.84375,0.01665,0.53419,-0.16288,0.21685,0.80068,23.63792,29.85850,-12.42377
0.02006,0.63159,0.12554,-0.32619,0.29195,0.11751,-0.23900,3.11683,-1.67952,8.71788,-1.07111,-1.15142,0.54296,-0.14809,0.18825,0.80488,19.41718,19.34037,-7.62182
0.02223,0.63477,0.12577,-0.22669,0.27494,0.10046,-0.04409,3.27719,-1.78783,7.65239,-2.06986,-1.66114,0.54915,-0.13596,0.16023,0.80887,15.54349,10.91560,-8.71243
0.02664,0.63628,0.12501,-0.11583,0.23672,0.07314,0.24888,3.36117,-1.82928,7.97650,-3.49364,-2.11078,0.55865,-0.12516,0.13299,0.80905,20.53605,6.10297,-11.91098
0.03244,0.63631,0.12343,-0.00685,0.18562,0.03825,0.52816,3.39422,-1.69078,8.19590,-4.13047,-2.60819,0.56989,-0.11227,0.11059,0.80647,22.69671,2.63870,-3.98094
0.04027,0.63499,0.12066,0.11274,0.12302,-0.00639,0.74414,3.31753,-1.34470,7.39844,-4.16347,-2.53115,0.58142,-0.09742,0.09672,0.80194,19.00799,-4.75695,17.44944
0.04734,0.63394,0.11839,0.19570,0.07851,-0.03588,0.82889,3.21952,-1.08012,6.67771,-3.53629,-2.21159,0.59004,-0.08300,0.08380,0.79871,12.87002,-10.71379,20.00380
0.05622,0.63234,0.11555,0.28713,0.03696,-0.06807,0.88396,3.12786,-0.85896,6.55931,-2.70923,-2.00272,0.59807,-0.06857,0.07166,0.79528,9.35729,-7.66219,14.32232
0.06739,0.63077,0.11234,0.39827,0.00209,-0.09871,0.72113,2.94263,-0.35074,6.13794,-1.62809,-1.16551,0.60151,-0.04991,0.07087,0.79415,-1.29472,-10.49127,26.86974
0.07729,0.63031,0.10986,0.46731,-0.00781,-0.11383,0.54299,2.83895,-0.00016,5.41761,-0.20407,-1.11107,0.60310,-0.03085,0.06823,0.79414,-8.45397,-13.82687,36.35512
0.08877,0.63020,0.10705,0.54339,-0.00876,-0.13130,0.42509,2.94264,0.11459,4.66931,0.55171,-1.08272,0.60476,-0.00995,0.05777,0.79425,-7.64309,0.34133,17.32351
0.10034,0.63047,0.10388,0.60798,-0.00540,-0.14922,0.39837,3.25883,-0.11103,4.19996,0.43435,-1.26872,0.60733,0.01080,0.03393,0.79365,-5.66224,21.12629,-9.67656
0.11184,0.63075,0.10062,0.65698,-0.00209,-0.16537,0.39776,3.56651,-0.37517,4.07578,0.28196,-1.35762,0.60978,0.03124,0.00625,0.79193,-4.67028,26.52109,-21.31066
0.12475,0.63145,0.09662,0.71701,0.00637,-0.18873,0.32408,3.85051,-0.55893,3.99302,0.44991,-1.67588,0.60973,0.05347,-0.02173,0.79050,-6.83169,20.41581,-12.90331
0.13718,0.63245,0.09259,0.75939,0.01687,-0.20755,0.22950,3.95358,-0.52118,3.81658,0.83294,-1.50149,0.60835,0.07604,-0.04209,0.78889,-6.00913,11.42317,0.29807
0.15018,0.63388,0.08857,0.80046,0.03110,-0.22244,0.08764,3.98320,-0.36623,3.69825,1.20105,-1.15811,0.60462,0.09982,-0.05788,0.78812,-7.34558,5.44545,11.73144
0.16535,0.63661,0.08362,0.86490,0.06315,-0.24777,-0.12728,4.08253,-0.11909,3.73871,2.16681,-1.51553,0.59728,0.12807,-0.07188,0.78847,-7.67336,4.26879,17.42078
0.18040,0.63964,0.07843,0.91628,0.09457,-0.27168,-0.28317,4.22285,0.05666,3.96941,2.35256,-1.82739,0.58958,0.15708,-0.08797,0.78739,-7.45747,10.79040,13.75003
0.19599,0.64333,0.07281,0.96493,0.12952,-0.29818,-0.44327,4.32384,0.29174,3.26838,2.53245,-2.05384,0.57993,0.18741,-0.10131,0.78632,-6.45947,7.46401,19.65459
