posX, posY, posZ, velX, velY, velZ, angVelX, angVelY, angVelZ, accX, accY, accZ, rotX, rotY, rotZ, rotW, angAccX, angAccY, angAccZ
0.28412,1.17576,-0.37289,-0.06106,0.08690,-0.07287,-0.21716,0.22765,0.20094,-0.50393,1.41284,-0.39265,0.13457,0.81940,-0.07942,0.55151,4.28576,2.91471,1.20223
0.28271,1.17828,-0.37415,-0.06937,0.10696,-0.07697,-0.20958,0.22296,0.23865,-0.68949,1.58125,-0.13988,0.13162,0.82046,-0.07919,0.55068,1.93795,0.58309,1.96271
0.28130,1.18084,-0.37532,-0.07584,0.12291,-0.07870,-0.22462,0.19419,0.27287,-0.67008,1.71793,-0.12914,0.12820,0.82100,-0.07930,0.55067,-0.16222,-1.76894,3.23955
0.27937,1.18465,-0.37677,-0.08867,0.15428,-0.08456,-0.27388,0.12704,0.35256,-0.77725,1.70989,-0.60615,0.12272,0.82081,-0.07931,0.55220,-3.80504,-4.03147,4.94762
0.27746,1.18815,-0.37839,-0.09845,0.17464,-0.09193,-0.18818,0.14632,0.37331,-0.77077,1.46507,-1.00461,0.12048,0.82210,-0.07705,0.55109,1.97488,-1.12814,3.35514
0.27559,1.19173,-0.38021,-0.10543,0.19109,-0.10016,-0.00324,0.20455,0.34613,-0.64258,1.52870,-1.12750,0.12167,0.82437,-0.07238,0.54806,12.23789,4.08411,-0.45948
0.27328,1.19648,-0.38275,-0.11698,0.22190,-0.11738,0.48777,0.33320,0.25698,-0.66531,1.74548,-1.10783,0.13105,0.82867,-0.05959,0.54090,26.82838,7.64119,-4.76371
0.27093,1.20136,-0.38539,-0.12663,0.24937,-0.13275,0.84896,0.42865,0.18694,-0.75797,2.36676,-1.00940,0.13968,0.83248,-0.04774,0.53402,27.78333,8.74877,-6.33958
0.26847,1.20637,-0.38804,-0.13615,0.27211,-0.14473,0.99078,0.45057,0.18831,-1.09764,2.58971,-1.02681,0.14422,0.83516,-0.03850,0.52937,21.66591,5.52263,-3.08147
0.26490,1.21314,-0.39181,-0.16022,0.31617,-0.17036,1.17827,0.49282,0.21931,-1.50823,2.41519,-1.69088,0.14912,0.83832,-0.02677,0.52371,8.53519,1.23307,2.20197
0.26097,1.21998,-0.39585,-0.18553,0.35378,-0.19529,1.44986,0.59889,0.20418,-1.61201,2.17055,-1.70104,0.15699,0.84246,-0.01287,0.51522,15.26866,6.56464,-0.11532
0.25702,1.22702,-0.39997,-0.20634,0.38672,-0.21654,1.83990,0.73807,0.11852,-1.45117,2.46041,-1.73717,0.16973,0.84686,0.00416,0.50398,23.64087,9.83538,-5.29007
0.25292,1.23469,-0.40415,-0.22499,0.42306,-0.23424,2.39898,0.89132,0.03918,-1.71525,3.33104,-2.02426,0.18704,0.85120,0.02784,0.48960,36.56266,12.87404,-6.86280
0.24762,1.24428,-0.40897,-0.25721,0.47987,-0.25692,3.50690,1.23346,-0.08905,-3.28430,3.67079,-2.13230,0.21711,0.85636,0.06835,0.46352,69.91141,20.48265,-5.86351
0.23997,1.25588,-0.41380,-0.31875,0.55627,-0.27505,4.93388,1.60412,-0.03431,-3.51382,5.89228,-0.41337,0.25112,0.85885,0.12555,0.42843,92.96955,31.25142,-5.05805
0.23243,1.26838,-0.41795,-0.36648,0.63196,-0.27956,5.61755,1.83716,0.21903,-3.21897,5.39750,1.20390,0.27057,0.85982,0.17357,0.39671,62.73885,19.66655,18.51339
0.22533,1.28017,-0.42155,-0.39625,0.67775,-0.27475,5.63065,1.70422,0.36171,-3.28069,4.47322,1.78346,0.28274,0.85672,0.20799,0.37792,30.51677,-5.63295,12.14923
0.21646,1.29363,-0.42526,-0.44539,0.73785,-0.27281,5.02611,1.26239,0.58523,-3.07865,3.62411,0.11105,0.28164,0.85326,0.22898,0.37443,-27.19446,-30.02527,5.18113
0.20742,1.30639,-0.43050,-0.48826,0.77850,-0.29463,3.98381,0.78360,0.67784,-3.18676,2.65910,-2.60792,0.27434,0.85175,0.23371,0.38031,-65.31124,-44.89703,4.65146
0.19848,1.32022,-0.43794,-0.52042,0.82601,-0.34331,3.13881,0.77391,0.71815,-1.79803,3.90842,-5.09799,0.26921,0.85534,0.23404,0.37568,-70.97301,-18.09410,2.44220
0.18976,1.33498,-0.44609,-0.54238,0.87502,-0.39153,2.89324,1.07619,0.75124,-2.06446,4.04251,-4.58491,0.27146,0.85982,0.24375,0.35723,-33.85154,15.14981,10.61040
0.17999,1.35108,-0.45503,-0.57750,0.93761,-0.44140,2.79386,1.49070,0.76870,-2.46943,3.80284,-1.98785,0.27641,0.86522,0.25436,0.33211,-6.36662,29.49532,7.90210
0.16980,1.36732,-0.46247,-0.61101,0.98868,-0.45887,2.57878,1.55616,0.77340,-2.45293,3.57607,-0.00470,0.27845,0.86780,0.26339,0.31625,-12.60501,9.22194,3.54228
0.15940,1.38355,-0.46869,-0.64030,1.02836,-0.45533,2.32164,1.41803,0.77423,-2.51829,3.16636,0.87878,0.27814,0.86872,0.27138,0.30712,-20.83243,-8.13558,1.70991
0.14834,1.40035,-0.47373,-0.67579,1.07402,-0.43419,2.16942,1.26369,0.72778,-2.18475,2.76251,1.29678,0.27941,0.86812,0.28055,0.29932,-13.26649,-11.85811,-2.90514
0.13710,1.41733,-0.47800,-0.70665,1.11227,-0.40448,2.35613,1.28856,0.64415,-1.92323,2.31079,1.62402,0.28658,0.86548,0.29670,0.28423,7.68170,0.09118,-6.19378
0.12596,1.43431,-0.48195,-0.72717,1.13675,-0.37903,2.63335,1.42773,0.56367,-1.65558,1.96140,2.24945,0.29635,0.86200,0.31519,0.26417,19.82849,11.15280,-6.64912
0.11455,1.45117,-0.48448,-0.75104,1.16163,-0.33541,2.94088,1.56353,0.46021,-1.45410,1.22850,3.45492,0.30818,0.85662,0.33530,0.24249,20.96261,12.60793,-6.72273
0.10321,1.46765,-0.48653,-0.76699,1.17192,-0.29378,3.03988,1.54624,0.38333,-1.26838,0.60678,3.96232,0.31704,0.85105,0.35243,0.22582,11.32499,3.47396,-7.05189
0.09140,1.48377,-0.48626,-0.78708,1.17563,-0.22692,3.04837,1.45665,0.27087,-0.97404,-0.09114,3.71474,0.32578,0.84469,0.36764,0.21262,0.26046,-3.78978,-7.69114
0.07988,1.49950,-0.48672,-0.79770,1.17056,-0.18458,2.95509,1.39553,0.22102,-0.84431,-0.66170,3.62344,0.33246,0.83965,0.38031,0.19955,-3.84017,-3.06215,-5.24105
0.06822,1.51456,-0.48643,-0.80843,1.15755,-0.14006,2.72250,1.28933,0.17919,-0.71699,-1.09104,3.01616,0.33723,0.83599,0.38899,0.18997,-15.52193,-6.90421,-3.23531
0.05661,1.52944,-0.48613,-0.81552,1.14306,-0.10646,2.52390,1.24439,0.14769,-0.62536,-1.17152,2.56152,0.34215,0.83270,0.39663,0.17951,-18.13601,-5.50354,-2.43996
0.04471,1.54348,-0.48499,-0.82571,1.12089,-0.06631,2.35719,1.27396,0.14466,-0.80633,-1.33830,2.24726,0.34706,0.83002,0.40340,0.16698,-12.07718,0.18726,1.00604
0.03265,1.55731,-0.48384,-0.83599,1.09850,-0.03398,2.38916,1.41882,0.16727,-0.82917,-1.47810,1.98521,0.35371,0.82575,0.41337,0.14880,-0.73959,7.52352,1.71063
0.02050,1.57096,-0.48267,-0.84493,1.07773,-0.00953,2.43296,1.57760,0.21187,-0.67525,-1.85494,2.10270,0.36015,0.82131,0.42332,0.12857,6.09950,13.79800,4.99079
0.00820,1.58363,-0.48089,-0.85395,1.04707,0.01918,2.27212,1.63640,0.29555,-0.30104,-1.99663,2.03264,0.36324,0.81952,0.42891,0.11173,-6.15032,4.43570,6.22362
-0.00398,1.59621,-0.47902,-0.85927,1.01962,0.04363,1.96732,1.55065,0.37819,-0.38114,-2.10305,1.88120,0.36327,0.81975,0.43119,0.10064,-18.81395,-5.64510,7.12092
-0.01614,1.60846,-0.47702,-0.86358,0.99407,0.06469,1.68569,1.45645,0.45402,-0.34047,-2.10652,1.79065,0.36238,0.82060,0.43250,0.09078,-23.41400,-9.57205,7.52092
-0.02834,1.62028,-0.47460,-0.86653,0.96708,0.08694,1.43347,1.36660,0.52907,-0.24220,-2.29571,1.93985,0.36064,0.82203,0.43309,0.08151,-20.66141,-9.28786,7.96277
-0.04050,1.63069,-0.47097,-0.86862,0.92487,0.12264,1.12914,1.24049,0.64430,-0.04032,-2.30313,1.96018,0.35617,0.82542,0.43162,0.07435,-16.74990,-9.46200,6.64612
-0.05236,1.64113,-0.46734,-0.86562,0.89049,0.15170,0.93974,1.15985,0.69845,0.39704,-2.53915,2.24599,0.35342,0.82744,0.43134,0.06623,-13.00117,-5.78079,6.56380
-0.06390,1.65128,-0.46327,-0.85889,0.85947,0.18096,0.81176,1.08035,0.71104,0.58431,-2.60673,2.67460,0.35137,0.82872,0.43163,0.05879,-12.27393,-7.35835,2.28497
-0.07523,1.66011,-0.45738,-0.84976,0.81448,0.23029,0.76765,0.95794,0.69764,0.53196,-2.84318,3.35859,0.34935,0.82869,0.43412,0.05263,-3.85694,-7.51022,-0.58303
-0.08649,1.66830,-0.45050,-0.84166,0.77054,0.28113,0.83278,0.82795,0.66968,0.58735,-3.17879,3.66003,0.34761,0.82682,0.43977,0.04634,3.80149,-8.26900,-1.82083
-0.09771,1.67616,-0.44358,-0.83536,0.73138,0.32211,0.92861,0.71568,0.62681,0.40275,-3.10606,2.93823,0.34637,0.82392,0.44673,0.04024,6.43487,-11.11587,-4.71285
-0.10853,1.68279,-0.43617,-0.82332,0.68090,0.36194,1.10715,0.73827,0.54653,0.84821,-3.10622,1.87693,0.34815,0.81901,0.45508,0.03039,10.77553,0.22936,-4.44860
-0.11903,1.68935,-0.42962,-0.80927,0.63883,0.38267,1.14971,0.81395,0.47171,1.10574,-3.09420,1.23953,0.35089,0.81548,0.45985,0.02020,6.59152,7.31303,-6.30196
-0.12916,1.69557,-0.42321,-0.79191,0.59987,0.39710,1.06806,0.89362,0.40603,1.33868,-2.69376,1.08521,0.35384,0.81365,0.46114,0.01096,-5.70982,5.17271,-3.42634
-0.13924,1.70173,-0.41659,-0.77832,0.56796,0.41231,1.05299,0.98053,0.37667,0.88884,-2.52763,1.30921,0.35659,0.81122,0.46342,0.00014,-4.15322,7.44521,-2.86967
-0.14934,1.70718,-0.40944,-0.76811,0.53293,0.43124,1.14315,1.17418,0.38652,0.56578,-2.22921,1.07096,0.36032,0.80740,0.46693,-0.01592,3.62601,9.98452,0.22258
-0.15918,1.71252,-0.40226,-0.75560,0.50292,0.44639,1.29264,1.45775,0.41003,1.08677,-2.09421,0.96770,0.36554,0.80207,0.47084,-0.03698,10.83226,20.54131,1.99218
-0.16837,1.71726,-0.39500,-0.73643,0.46952,0.45980,1.29932,1.64953,0.44047,1.58431,-2.41937,0.94088,0.36977,0.79840,0.47193,-0.05586,3.04862,14.67239,2.86548
-0.17715,1.72171,-0.38767,-0.71542,0.43836,0.47106,1.12881,1.62016,0.46244,1.78378,-2.46557,0.95767,0.37129,0.79766,0.47048,-0.06734,-9.31239,1.32048,2.74116
-0.18622,1.72652,-0.38050,-0.70285,0.41964,0.47808,1.00029,1.54658,0.47502,1.67322,-2.41433,0.91406,0.37207,0.79686,0.46969,-0.07725,-14.58941,-6.47001,3.23644
-0.19356,1.72869,-0.37237,-0.66871,0.36612,0.49708,0.80026,1.39596,0.52024,1.49545,-2.52238,0.56281,0.37050,0.79836,0.46727,-0.08374,-7.78320,-8.03144,3.03908
-0.20130,1.73141,-0.36496,-0.64581,0.32942,0.50333,0.80057,1.42767,0.51245,1.51046,-2.63504,0.10596,0.37229,0.79611,0.46736,-0.09587,-2.71862,-0.39048,0.48815
-0.20868,1.73343,-0.35789,-0.62150,0.28984,0.50308,0.84194,1.53189,0.48076,1.87799,-3.04705,-0.29537,0.37583,0.79246,0.46752,-0.11035,3.44251,7.98387,-1.15286
-0.21576,1.73518,-0.35124,-0.59820,0.25506,0.49674,0.80724,1.59218,0.41630,2.00694,-2.97256,-0.71512,0.38023,0.78932,0.46619,-0.12276,-1.42260,6.05007,-4.17696
-0.22226,1.73621,-0.34505,-0.57193,0.21714,0.48505,0.76256,1.68526,0.35787,1.70104,-2.59358,-0.95222,0.38554,0.78604,0.46371,-0.13594,-4.52244,5.57289,-4.22294
-0.22874,1.73691,-0.33897,-0.55011,0.18221,0.47395,0.70929,1.75976,0.34873,1.57187,-2.52170,-0.62596,0.38986,0.78328,0.46053,-0.14962,-3.35289,7.36473,-0.47895
-0.23513,1.73723,-0.33273,-0.53215,0.14882,0.46789,0.62734,1.72776,0.36926,1.30289,-2.34615,-0.20921,0.39212,0.78182,0.45737,-0.16068,-5.49439,-0.81202,1.56385
-0.24151,1.73742,-0.32612,-0.51794,0.12108,0.46878,0.62220,1.67440,0.39125,1.17889,-2.22434,0.22263,0.39347,0.77952,0.45612,-0.17174,-3.10356,-4.74044,2.23911
-0.24756,1.73687,-0.31916,-0.50152,0.08876,0.47425,0.66290,1.61139,0.40306,1.27315,-2.27045,0.39349,0.39440,0.77638,0.45636,-0.18280,2.91972,-4.03920,0.47030
-0.25288,1.73584,-0.31224,-0.47810,0.05531,0.47729,0.68761,1.56622,0.38830,1.55265,-2.04668,-0.10640,0.39601,0.77296,0.45639,-0.19343,1.79591,-4.22144,-1.02621
-0.25763,1.73483,-0.30570,-0.45105,0.02868,0.47491,0.71554,1.62306,0.32790,2.11357,-1.82494,-0.22274,0.40024,0.76811,0.45546,-0.20584,0.54437,3.13270,-3.02822
-0.26185,1.73360,-0.29908,-0.42114,0.00461,0.47435,0.83104,1.77170,0.22092,1.94968,-1.39861,0.00401,0.40702,0.76005,0.45574,-0.22127,4.17177,8.82561,-8.00585
-0.26581,1.73244,-0.29227,-0.39356,-0.01365,0.47692,0.94887,1.87090,0.16094,2.19509,-1.33653,0.35371,0.41257,0.75166,0.45675,-0.23703,10.34207,12.52354,-6.19751
-0.26968,1.73133,-0.28526,-0.37052,-0.02752,0.48201,0.91982,1.75570,0.16797,1.63535,-0.97033,0.38998,0.41440,0.74741,0.45691,-0.24676,-0.32128,-5.84013,-0.90474
-0.27314,1.73033,-0.27830,-0.34522,-0.03708,0.48507,0.84705,1.62886,0.20558,1.57805,-0.35109,0.04964,0.41513,0.74464,0.45603,-0.25539,-4.04941,-10.08735,2.44021
-0.27615,1.72974,-0.27142,-0.31781,-0.03929,0.48652,0.83660,1.58571,0.23097,1.74224,0.09719,0.12050,0.41651,0.74047,0.45547,-0.26603,-1.17529,-2.96408,1.44560
-0.27901,1.72955,-0.26448,-0.29376,-0.03452,0.48905,0.79678,1.49866,0.28354,1.81050,0.42115,0.22238,0.41656,0.73752,0.45459,-0.27548,-1.04751,-4.53293,2.10414
-0.28162,1.72965,-0.25731,-0.27080,-0.02586,0.49427,0.73734,1.35552,0.35909,1.65173,0.78225,0.58029,0.41489,0.73604,0.45372,-0.28328,-3.82926,-9.99216,5.47019
-0.28388,1.73003,-0.24965,-0.24732,-0.01508,0.50616,0.80137,1.27703,0.41504,1.57822,0.96418,1.03950,0.41279,0.73255,0.45498,-0.29319,1.73391,-8.12538,4.24987
-0.28574,1.73049,-0.24157,-0.22296,-0.00541,0.52209,0.91727,1.19735,0.45723,2.02165,0.49398,1.17807,0.40989,0.72804,0.45803,-0.30357,9.50490,-3.41918,2.15878
-0.28790,1.73096,-0.23321,-0.20051,0.00020,0.53644,0.95618,1.05168,0.47621,2.23244,0.17862,1.07208,0.40647,0.72487,0.46111,-0.31100,5.62015,-10.25032,1.30538
-0.28930,1.73137,-0.22443,-0.16706,0.00251,0.55309,0.96048,0.81996,0.46163,2.31397,-0.04951,0.83301,0.40221,0.72288,0.46541,-0.31474,1.16452,-14.56832,-1.27295
-0.29004,1.73144,-0.21601,-0.13577,0.00099,0.56233,0.97366,0.68289,0.41802,2.25542,-0.21520,0.37795,0.39932,0.71984,0.46954,-0.31924,0.69701,-11.27650,-3.51550
-0.29015,1.73124,-0.20801,-0.10899,-0.00237,0.56476,0.96203,0.58601,0.37614,2.17089,-0.40728,0.03142,0.39697,0.71687,0.47306,-0.32362,0.22934,-7.42767,-4.33131
-0.28977,1.73085,-0.20034,-0.08106,-0.00798,0.56206,0.95355,0.53372,0.31692,1.67393,-0.47716,-0.39180,0.39556,0.71334,0.47652,-0.32804,-1.88327,-6.73570,-4.32357
-0.28935,1.73012,-0.19307,-0.05831,-0.01729,0.55434,0.96553,0.53367,0.26335,1.50075,-0.74435,-0.68758,0.39475,0.70891,0.47988,-0.33367,0.42651,0.86749,-3.69243
-0.28888,1.72913,-0.18621,-0.03933,-0.02840,0.54125,0.98003,0.57117,0.21364,1.16278,-0.81648,-1.20244,0.39461,0.70383,0.48293,-0.34013,1.14825,1.51867,-3.76601
-0.28817,1.72797,-0.18014,-0.02058,-0.03978,0.51911,0.97298,0.63358,0.16948,1.10046,-0.64953,-1.52478,0.39525,0.69857,0.48510,-0.34707,-0.18348,4.55445,-2.35802
-0.28776,1.72696,-0.17419,-0.01027,-0.04670,0.50031,0.96653,0.67628,0.16051,0.68153,-0.54764,-1.67000,0.39516,0.69371,0.48704,-0.35414,-0.71954,2.79210,-1.86880
-0.28717,1.72573,-0.16924,0.00075,-0.05545,0.46935,0.93346,0.69998,0.19384,0.69899,-0.66711,-1.76497,0.39430,0.68977,0.48801,-0.36137,-0.46864,3.59746,1.30440
-0.28671,1.72441,-0.16419,0.00791,-0.06407,0.44614,0.82885,0.56251,0.24061,0.65967,-0.70947,-1.58145,0.39143,0.68913,0.48902,-0.36434,-6.79784,-8.41396,3.45949
-0.28614,1.72286,-0.15908,0.01496,-0.07426,0.42948,0.75897,0.41678,0.25630,0.57523,-0.91277,-1.24706,0.38827,0.68855,0.49099,-0.36616,-7.01505,-12.39844,1.90102
-0.28537,1.72090,-0.15415,0.02348,-0.08830,0.41346,0.74299,0.30086,0.24320,0.49593,-0.87840,-1.10179,0.38517,0.68707,0.49414,-0.36798,-2.84194,-10.05197,-0.68911
-0.28455,1.71881,-0.14949,0.03084,-0.10130,0.39682,0.76708,0.26260,0.22501,0.44497,-0.87331,-1.28226,0.38264,0.68422,0.49752,-0.37135,1.78708,-3.62611,-1.62082
-0.28370,1.71668,-0.14524,0.03724,-0.11215,0.37764,0.76399,0.22490,0.22028,0.50102,-0.79738,-1.47008,0.38002,0.68191,0.50037,-0.37445,0.89484,-2.14252,-0.37949
-0.28282,1.71448,-0.14132,0.04274,-0.12182,0.35722,0.71739,0.13744,0.22810,0.40898,-0.70464,-1.49284,0.37674,0.68113,0.50283,-0.37589,-2.18234,-5.14141,-0.49814
-0.28200,1.71234,-0.13734,0.04595,-0.12821,0.34273,0.67682,0.07077,0.23769,0.25456,-0.62171,-1.41658,0.37343,0.68051,0.50510,-0.37727,-4.53825,-7.76310,0.52525
-0.28107,1.70968,-0.13418,0.05027,-0.14120,0.31931,0.66222,0.00548,0.23643,0.17597,-0.76637,-1.27046,0.36988,0.67966,0.50799,-0.37840,-0.91574,-3.96973,-0.10983
-0.28017,1.70699,-0.13102,0.05330,-0.15209,0.29962,0.66044,0.00558,0.21474,0.18910,-0.69201,-1.53962,0.36752,0.67768,0.51073,-0.38057,-0.07198,-1.40900,-1.31808
-0.27901,1.70432,-0.12834,0.05963,-0.16026,0.27725,0.67992,0.09986,0.17131,0.45810,-0.44424,-1.64018,0.36704,0.67388,0.51304,-0.38465,0.32875,4.11060,-1.95000
-0.27747,1.70170,-0.12611,0.07039,-0.16614,0.25273,0.73147,0.30132,0.09659,0.87865,-0.30153,-1.87450,0.36914,0.66730,0.51506,-0.39136,3.56296,13.16757,-4.26877
-0.27546,1.69922,-0.12433,0.08601,-0.16854,0.22652,0.73243,0.45373,0.01492,1.46514,-0.16955,-1.85843,0.37216,0.66105,0.51653,-0.39711,1.22768,14.02169,-5.19070
-0.27308,1.69679,-0.12252,0.10352,-0.16984,0.20666,0.70162,0.50535,-0.08014,1.71025,-0.11881,-1.50060,0.37515,0.65584,0.51853,-0.40034,-2.20561,7.04076,-6.45305
-0.26989,1.69443,-0.12104,0.12946,-0.16974,0.18609,0.62719,0.42566,-0.20710,1.81829,0.09621,-1.15391,0.37791,0.65239,0.52163,-0.39934,-4.16328,-3.19188,-8.05023
-0.26627,1.69219,-0.11929,0.15708,-0.16785,0.17360,0.57860,0.28922,-0.32370,1.73332,0.13374,-0.43044,0.37957,0.64956,0.52602,-0.39661,-4.85823,-8.41311,-7.40159
-0.26264,1.68990,-0.11705,0.17904,-0.16714,0.17089,0.59924,0.20733,-0.42443,1.93772,0.24449,0.01601,0.38103,0.64524,0.53147,-0.39499,-0.27561,-7.26671,-8.35196
-0.25805,1.68781,-0.11443,0.21097,-0.16340,0.17474,0.63929,0.05234,-0.56512,2.12951,0.33610,0.45931,0.38193,0.64079,0.53934,-0.39068,2.67165,-8.41937,-9.17205
-0.25347,1.68595,-0.11153,0.23593,-0.15704,0.18189,0.68629,-0.07573,-0.66695,2.05477,0.82618,0.74757,0.38222,0.63627,0.54745,-0.38648,2.02241,-12.22860,-9.11034
-0.24812,1.68464,-0.10827,0.26694,-0.14393,0.19283,0.79006,-0.13990,-0.76766,2.21358,1.03524,0.88628,0.38267,0.62972,0.55676,-0.38346,6.67226,-5.58652,-7.90135
-0.24232,1.68351,-0.10470,0.29793,-0.13096,0.20607,0.90561,-0.20938,-0.85061,2.31289,0.77086,1.05050,0.38238,0.62257,0.56702,-0.38037,8.40227,-4.03247,-7.01959
-0.23621,1.68215,-0.10055,0.32723,-0.12424,0.22525,0.93553,-0.48487,-0.93507,2.34140,-0.00195,1.57137,0.37923,0.61899,0.57882,-0.37149,3.89933,-13.28885,-5.51809
-0.23011,1.68030,-0.09594,0.35008,-0.12603,0.24709,0.92573,-0.84572,-1.02737,1.86122,-0.27899,1.97920,0.37412,0.61748,0.59194,-0.35828,-3.13877,-28.64125,-9.04285
-0.22332,1.67799,-0.09034,0.37800,-0.13421,0.27862,1.03467,-1.18107,-1.17555,1.50293,-0.41886,1.95781,0.36784,0.61307,0.60883,-0.34376,3.52430,-23.18200,-10.65286
-0.21641,1.67567,-0.08500,0.40250,-0.14097,0.30023,1.15211,-1.33420,-1.30281,1.73972,-0.52981,1.25691,0.36341,0.60616,0.62474,-0.33196,9.68643,-12.57850,-9.11529
-0.20924,1.67332,-0.08002,0.42570,-0.14664,0.31208,1.25097,-1.37127,-1.42684,1.84246,-0.45880,0.84897,0.36093,0.59759,0.63978,-0.32140,7.09518,-6.96293,-10.43077
-0.20127,1.67063,-0.07505,0.45518,-0.15610,0.32111,1.40430,-1.29712,-1.56476,2.10260,-0.85924,0.52707,0.36036,0.58539,0.65534,-0.31303,11.57963,3.43218,-8.32713
-0.19258,1.66716,-0.07007,0.48942,-0.17530,0.32826,1.56401,-1.20950,-1.73392,2.14177,-1.62957,0.44695,0.36101,0.57100,0.67160,-0.30428,11.86310,6.18011,-8.88291
-0.18422,1.66323,-0.06507,0.51193,-0.19719,0.33461,1.65931,-1.21528,-1.87086,1.87098,-2.07124,0.54524,0.36032,0.55782,0.68774,-0.29330,10.21778,2.13131,-10.07915
-0.17542,1.65817,-0.05978,0.53661,-0.23113,0.34408,1.74633,-1.30861,-2.04973,1.49051,-2.23169,0.62570,0.35871,0.54408,0.70536,-0.27888,5.87619,-4.90273,-11.10357
-0.16656,1.65281,-0.05438,0.55686,-0.26265,0.35296,1.87793,-1.34884,-2.21033,1.43704,-2.11751,0.71689,0.35716,0.52799,0.72343,-0.26517,8.27616,-4.78845,-11.67004
-0.15722,1.64677,-0.04867,0.58071,-0.29854,0.36487,2.13378,-1.31930,-2.36716,1.45490,-2.31312,0.79740,0.35565,0.50701,0.74306,-0.25359,17.30206,1.02204,-8.37455
-0.14788,1.64050,-0.04279,0.60013,-0.33088,0.37737,2.35981,-1.33803,-2.50973,1.32851,-2.39248,1.00892,0.35300,0.48526,0.76284,-0.24080,16.00976,-1.94526,-8.74707
-0.13863,1.63393,-0.03672,0.61313,-0.36022,0.38938,2.57644,-1.38733,-2.61044,1.00220,-2.47162,0.99218,0.34860,0.46229,0.78287,-0.22778,18.71146,-3.79734,-8.11678
-0.12942,1.62643,-0.03032,0.62330,-0.39766,0.40423,2.72510,-1.55226,-2.75903,0.40993,-2.47683,0.82716,0.34215,0.43951,0.80343,-0.21041,10.26697,-9.37937,-9.61330
-0.12071,1.61893,-0.02404,0.62348,-0.42676,0.41371,2.80705,-1.70906,-2.86941,-0.28595,-2.44323,0.73077,0.33476,0.41735,0.82274,-0.19196,5.04317,-12.66016,-11.84903
-0.11240,1.61097,-0.01773,0.61803,-0.45613,0.42170,2.94097,-1.84016,-2.95243,-0.73197,-2.32911,0.66566,0.32594,0.39288,0.84210,-0.17399,7.25331,-11.56253,-9.82719
-0.10467,1.60203,-0.01134,0.60547,-0.49387,0.42937,3.19134,-1.96375,-2.99074,-0.96688,-2.28592,0.33950,0.31443,0.36435,0.86224,-0.15790,14.06568,-10.51728,-3.54749
-0.09709,1.59272,-0.00509,0.59267,-0.52962,0.43322,3.47227,-2.03328,-2.94999,-1.07152,-2.75623,0.30443,0.30163,0.33357,0.88135,-0.14482,15.69989,-9.47587,1.92312
-0.08995,1.58231,0.00101,0.57632,-0.57444,0.43412,3.79352,-2.12204,-2.88625,-1.29583,-3.68235,-0.23215,0.28631,0.29984,0.90022,-0.13312,22.41853,-11.58755,6.95682
-0.08357,1.57056,0.00669,0.55200,-0.62970,0.42860,3.93808,-2.30236,-2.93149,-2.00605,-4.79740,-0.84149,0.26948,0.26816,0.91763,-0.11587,11.78753,-13.98964,-0.75209
-0.07851,1.55714,0.01161,0.51323,-0.69825,0.41311,3.91384,-2.53649,-3.19200,-3.19811,-5.35368,-1.55040,0.25311,0.23801,0.93345,-0.08923,-0.10026,-11.39263,-19.51249
-0.07493,1.54235,0.01558,0.46064,-0.77268,0.38671,3.92016,-2.72826,-3.44810,-4.45674,-5.32673,-2.17664,0.23622,0.20611,0.94763,-0.06106,-0.25530,-7.85221,-24.43941
-0.07318,1.52632,0.01830,0.39226,-0.85026,0.34760,4.09212,-2.89951,-3.57244,-5.56125,-5.35180,-3.22121,0.21629,0.16958,0.96079,-0.03663,8.50533,-10.86211,-13.52390
-0.07296,1.50913,0.01956,0.31530,-0.92833,0.29494,4.44306,-3.06925,-3.51272,-5.78674,-5.52785,-4.05660,0.19218,0.12735,0.97289,-0.01854,16.85611,-16.78513,0.14126
-0.07472,1.48985,0.01833,0.22394,-1.02274,0.21517,4.96502,-3.28093,-3.37095,-5.76225,-6.17498,-5.83695,0.16358,0.07805,0.98342,-0.00492,25.60412,-23.82171,10.87019
-0.07637,1.47079,0.01613,0.15328,-1.09426,0.13796,5.32694,-3.42503,-3.32183,-6.06130,-5.97792,-7.25221,0.13625,0.02926,0.99018,0.01101,25.75368,-21.83608,5.20149
-0.08089,1.44940,0.00945,0.05447,-1.18527,0.00988,5.79705,-3.63216,-3.32327,-6.30451,-5.40188,-9.02879,0.10528,-0.02594,0.99373,0.02742,26.20784,-20.12311,1.66990
-0.08609,1.42874,0.00062,-0.03497,-1.24723,-0.12516,6.10728,-3.78803,-3.41208,-6.47336,-3.64134,-10.65019,0.07500,-0.07964,0.99289,0.04698,22.77445,-15.98806,-4.80981
-0.09174,1.40917,-0.00994,-0.11140,-1.27975,-0.25588,6.27353,-3.87251,-3.52383,-6.26587,-1.95828,-11.66093,0.04599,-0.13080,0.98799,0.06815,16.15283,-9.33040,-8.36080
-0.09977,1.39062,-0.02658,-0.20704,-1.29032,-0.44974,6.47175,-3.90029,-3.67581,-5.81098,0.78466,-12.88288,0.01818,-0.18381,0.97860,0.09074,14.56746,-1.36493,-7.68592
-0.10764,1.37439,-0.04496,-0.28160,-1.26324,-0.63128,6.66609,-3.94051,-3.71517,-5.04245,3.31347,-13.12570,-0.01037,-0.23700,0.96517,0.11035,14.17701,-2.92745,-2.54490
-0.11570,1.36097,-0.06627,-0.34339,-1.20003,-0.81890,6.85902,-4.15115,-3.56030,-4.21350,6.36352,-13.52205,-0.04414,-0.28999,0.94806,0.12305,8.85691,-14.81429,3.49663
-0.12293,1.34924,-0.08708,-0.37905,-1.12795,-0.95610,6.97463,-4.51500,-3.31600,-3.43954,8.63990,-13.27125,-0.08385,-0.34068,0.92733,0.13022,1.91173,-32.42372,5.89705
-0.13172,1.34649,-0.11577,-0.42944,-0.93784,-1.17820,6.91633,-5.67121,-2.82882,-1.82173,12.59985,-11.84614,-0.15049,-0.38654,0.90167,0.12218,-19.52242,-68.99608,-8.65314
-0.13752,1.34618,-0.14307,-0.42610,-0.74725,-1.34147,6.67994,-6.54826,-2.52757,2.02999,15.05257,-11.43607,-0.21394,-0.42481,0.87200,0.11569,-26.69373,-61.09884,-18.51768
-0.14100,1.34874,-0.17023,-0.38969,-0.55602,-1.46599,6.33778,-7.36716,-2.33564,3.96300,17.37137,-9.45305,-0.28051,-0.45655,0.83745,0.10749,-31.73245,-57.02364,-26.07044
-0.14126,1.35863,-0.19880,-0.31409,-0.29991,-1.58303,5.78177,-8.31856,-2.25817,7.05193,19.62062,-7.34006,-0.35628,-0.47721,0.79761,0.09572,-36.77903,-57.68431,-43.81038
-0.13671,1.37627,-0.22651,-0.18211,0.02084,-1.66492,5.04746,-9.03575,-2.35452,10.00407,20.65445,-3.19273,-0.43020,-0.48601,0.75591,0.08556,-35.72139,-33.73057,-46.50613
-0.13359,1.38799,-0.25055,-0.10149,0.18388,-1.67785,4.63166,-9.19482,-2.45075,11.02657,20.72701,-0.50769,-0.48898,-0.49665,0.71258,0.08040,-30.69470,-16.18855,-48.84367
-0.11792,1.42049,-0.26928,0.14594,0.61560,-1.60604,3.29918,-9.33913,-2.70041,12.04088,20.15718,7.10404,-0.55256,-0.47610,0.68052,0.07002,-36.94461,4.96310,-37.58561
-0.10533,1.44644,-0.28373,0.30758,0.88174,-1.48406,2.05157,-9.35136,-2.93681,11.35739,19.20971,10.49560,-0.61086,-0.45007,0.64888,0.05686,-60.26130,21.04852,-61.05642
-0.09226,1.47358,-0.29530,0.44013,1.10638,-1.34729,0.83091,-9.41201,-3.27360,10.74321,19.47183,12.64107,-0.66945,-0.41345,0.61577,0.04146,-59.22535,21.08849,-77.67082
-0.07470,1.50993,-0.29971,0.61188,1.42160,-1.12990,-1.00846,-9.66563,-3.97742,10.07198,20.61390,14.71765,-0.73489,-0.34519,0.58348,0.01822,-64.47733,5.34684,-101.70230
-0.05874,1.54608,-0.30361,0.72362,1.66805,-0.95173,-2.41419,-9.79998,-4.84273,9.43919,22.48987,16.13292,-0.79463,-0.26984,0.54383,0.00043,-51.65929,-4.06887,-119.28340
-0.04068,1.59100,-0.30198,0.84214,1.99120,-0.73171,-4.20016,-9.67199,-6.07951,8.29117,24.53856,15.49478,-0.84556,-0.16339,0.50796,-0.01742,-46.63007,11.14611,-150.57620
-0.02138,1.64307,-0.29806,0.95396,2.35120,-0.52287,-5.80212,-9.17525,-7.81308,9.00200,27.43286,14.46344,-0.88131,-0.03375,0.47080,-0.02211,-10.00800,1.87165,-162.68680
0.00142,1.70326,-0.29301,1.09564,2.75825,-0.34119,-6.86556,-8.11898,-9.87216,13.08981,31.04523,11.56532,-0.89256,0.10871,0.43759,-0.00615,32.40094,4.61986,-182.00050
0.03319,1.77423,-0.28709,1.34225,3.24097,-0.18364,-7.43336,-6.48060,-11.97027,24.56607,38.02136,12.38046,-0.87340,0.25595,0.41353,0.02573,78.61810,-14.65752,-168.30980
0.07966,1.85511,-0.28057,1.75597,3.76900,-0.05028,-6.93274,-4.37806,-14.23729,37.53211,36.89138,9.30736,-0.82142,0.39767,0.39894,0.08925,144.16150,-34.72144,-179.04700
0.14141,1.93767,-0.27420,2.30119,4.20593,0.05256,-5.71712,-2.77716,-15.93422,54.31425,34.25008,9.20110,-0.75159,0.51590,0.37687,0.16407,153.10440,-82.38108,-136.32290
0.23588,2.02559,-0.26383,3.19996,4.62394,0.19120,-3.59409,-1.46860,-17.78594,74.70525,23.57591,11.61537,-0.65217,0.61688,0.34896,0.26901,133.91750,-140.68780,-114.00470
0.36226,2.10397,-0.24704,4.37525,4.81974,0.39480,-1.10981,-0.81757,-19.47603,94.22159,3.01129,18.14804,-0.52795,0.69277,0.30561,0.38463,75.86792,-171.44780,-102.82710
0.52090,2.16041,-0.22133,5.77582,4.66060,0.68559,1.53208,-1.15911,-21.04660,106.67630,-27.63979,24.68561,-0.38273,0.73544,0.23616,0.50682,12.40368,-188.74370,-112.83700
0.67188,2.15564,-0.17890,7.49463,3.83578,1.16219,3.76247,-2.46097,-23.48393,107.11830,-80.54854,34.88651,-0.19453,0.74925,0.11883,0.62182,-60.65680,-141.06420,-175.35190
0.81787,2.10184,-0.13466,8.79206,2.31191,1.72282,4.15860,-2.62295,-24.72031,75.43842,-136.11520,43.48049,-0.01758,0.75198,0.01111,0.65886,-10.84089,-30.51891,-127.82910
0.93109,1.98399,-0.08713,9.45166,0.13456,2.36837,5.23942,-1.45159,-24.65199,18.97711,-173.31300,46.65884,0.15644,0.73450,-0.04183,0.65900,50.21394,-56.05645,-12.83204
0.97460,1.80026,-0.03470,9.16782,-2.73070,3.03420,8.21139,0.70570,-23.44510,-52.87082,-182.51020,30.45829,0.34093,0.69536,-0.01879,0.63237,61.80949,-202.12810,29.12045
0.97905,1.63717,0.00554,8.16355,-4.84617,3.33575,12.07263,3.70489,-21.33610,-109.65790,-172.85440,15.25416,0.52605,0.64701,0.06150,0.54852,207.91790,-307.71860,-15.72021
0.90307,1.45422,0.02502,6.30818,-7.12389,3.35724,18.47408,4.92375,-17.65735,-153.19720,-153.16090,-15.57754,0.69736,0.51660,0.23141,0.43962,145.48190,-475.34940,-214.58220
0.75482,1.28424,0.00755,3.60929,-9.26714,2.81361,26.95910,2.99766,-14.29550,-186.74010,-116.67650,-54.13244,0.82619,0.24028,0.42779,0.27688,183.19180,-300.96470,-452.57900
0.63518,1.14431,-0.01361,1.29048,-10.42140,1.88552,31.32574,-2.22830,-14.85989,-212.35540,-72.67841,-102.12160,0.85496,-0.11249,0.48052,0.15967,223.05300,42.78761,-578.23380
0.44843,1.08248,-0.11418,-1.80577,-10.35190,-0.22186,31.49846,-7.49737,-16.66974,-152.34730,80.42790,-126.92720,0.78395,-0.42247,0.44716,0.08362,254.53500,281.48620,-139.71350
0.34096,1.08702,-0.19085,-3.21243,-8.97255,-1.49207,27.49519,-9.64795,-15.89012,-79.65234,131.21500,-76.13566,0.70021,-0.56461,0.43269,0.06084,-162.00920,280.20530,-133.49070
0.28387,1.14600,-0.24123,-3.64902,-7.18276,-2.10604,23.12478,-10.22577,-13.95326,11.12288,117.87060,-12.20373,0.63496,-0.63713,0.43458,0.04498,-175.87580,300.45860,77.00709
0.28046,1.22054,-0.24384,-3.31575,-5.68759,-1.92438,18.10818,-13.78799,-10.37747,26.43078,75.41975,28.11301,0.50139,-0.67307,0.54303,0.02646,-340.72910,114.90740,-304.73100
0.41492,0.98478,-0.19686,-2.94997,-4.86988,-1.37589,12.61590,-12.95241,-7.66384,16.76627,43.30611,44.62661,0.44951,-0.65418,0.60640,0.04754,-354.56070,168.12660,-163.04920
0.46960,0.81532,-0.14760,-2.75651,-4.45986,-0.68387,6.64572,-8.38257,-4.74385,5.11209,15.26139,49.36646,0.50212,-0.56614,0.64145,0.12610,-386.10520,344.38790,119.20550
0.45919,0.70800,-0.10871,-2.77615,-4.33903,-0.11013,0.45655,-3.92418,-3.29511,-4.68884,10.82359,41.33345,0.54402,-0.44577,0.66018,0.26360,-448.43340,488.40480,46.22726
0.42786,0.62816,-0.06480,-2.94897,-4.08019,0.46192,-4.55406,1.80838,-1.33066,-15.20615,26.62802,22.69220,0.61719,-0.26848,0.62202,0.40011,-300.28850,376.24520,100.90670
0.37847,0.58818,-0.04144,-3.15627,-3.66673,0.68380,-5.21954,5.64918,-2.94025,-15.21681,42.16870,15.68060,0.64942,-0.22546,0.51666,0.51038,-92.11462,297.95670,-187.39180
0.32513,0.57087,-0.02059,-3.33690,-3.07682,0.82859,-5.23871,8.31206,-4.37650,-7.42837,44.74343,8.55616,0.66700,-0.19148,0.39986,0.59880,-18.28935,206.39040,-159.88290
0.27545,0.56443,-0.00452,-3.40660,-2.49684,0.88215,-4.47209,8.53725,-5.72727,1.75202,39.72768,3.72660,0.65863,-0.20122,0.31526,0.65294,-0.83252,4.50279,-132.73860
0.24101,0.56962,0.00814,-3.33404,-1.95397,0.90313,-4.26493,7.49624,-6.28552,11.56243,38.66684,0.23197,0.63113,-0.21170,0.27042,0.69550,-46.74155,-77.66903,-43.12531
0.20790,0.57450,0.01996,-3.13229,-1.47676,0.89011,-4.44055,6.30343,-5.97598,17.49013,29.99957,-2.27544,0.60142,-0.20791,0.24953,0.72993,-23.77746,-74.96526,49.57521
0.18049,0.57535,0.02968,-2.89247,-1.16272,0.84453,-4.61689,5.79698,-5.21142,21.43689,23.25215,-6.16554,0.58023,-0.18468,0.22850,0.75961,-15.97294,-34.56601,71.17318
0.18062,0.58663,0.02375,-2.23254,-0.72942,0.52981,-2.69560,6.55131,-2.84394,20.20259,9.92216,-15.28643,0.62364,-0.12907,0.20694,0.74269,111.62550,32.79929,33.28195
0.13348,0.57331,0.02632,-2.00540,-0.62553,0.34340,-1.29083,6.76967,-2.36959,18.84272,8.26849,-16.57600,0.64552,-0.07799,0.12144,0.74998,131.16170,15.66122,-21.04478
0.12103,0.57256,0.01588,-1.77841,-0.51070,0.11473,0.12742,6.41212,-1.99984,15.30481,7.46405,-16.35089,0.67801,-0.06689,0.08808,0.72668,104.94910,-31.61948,-20.71714
0.10873,0.57203,0.00334,-1.59574,-0.41610,-0.09118,1.32898,5.79519,-1.81696,11.86866,5.66190,-12.84759,0.70837,-0.06532,0.05993,0.70026,83.46370,-54.17133,-25.97307
0.09667,0.57166,-0.00795,-1.44270,-0.33861,-0.23775,2.08290,5.15454,-1.65410,10.92665,4.72571,-8.11427,0.73241,-0.06427,0.03722,0.67680,55.72369,-52.33051,-22.26025
0.08524,0.57164,-0.01652,-1.31548,-0.27262,-0.31529,2.32955,4.61189,-1.40889,10.91617,5.23748,-4.76907,0.74819,-0.05833,0.02044,0.66060,30.44426,-49.91013,-2.34431
0.07749,0.57395,-0.02412,-1.16456,-0.18731,-0.36119,2.31402,4.15930,-1.17707,10.52224,6.38670,-1.48194,0.75885,-0.05050,0.00637,0.64928,5.40205,-43.65545,12.07030
0.07295,0.57859,-0.02928,-0.99312,-0.08668,-0.36411,2.08674,4.02597,-1.18161,10.67266,5.87504,1.52438,0.76360,-0.04059,-0.01732,0.64418,-11.57687,-11.41019,3.80244
0.06800,0.58196,-0.03240,-0.86254,-0.02333,-0.33813,1.77134,4.08303,-1.24432,11.24152,4.40866,2.95631,0.76449,-0.02778,-0.04659,0.64235,-23.95870,3.75986,1.50459
0.06785,0.58591,-0.03423,-0.69247,0.03551,-0.29999,1.58008,4.29908,-1.53684,2.81289,10.29419,-6.64080,0.76428,-0.01682,-0.08492,0.63905,-34.18942,3.90412,22.50349
0.07665,0.58911,-0.03220,-0.38664,0.07154,-0.20569,0.42148,1.40857,0.29148,3.87770,7.31498,6.32417,0.75208,-0.02698,-0.00785,0.65848,-58.43515,-190.97080,274.47400
0.07810,0.59089,-0.03176,-0.20603,0.06705,-0.12078,0.11363,1.11379,-0.58638,17.45846,-3.00481,2.20032,0.74731,-0.04210,-0.03564,0.66218,-18.60072,23.67490,-125.98890
0.09078,0.59145,-0.02736,0.02756,0.05769,-0.03552,-0.44621,-1.26392,1.03722,13.10733,-0.82633,7.21285,0.73705,-0.05285,0.05524,0.67150,-32.86472,-164.85570,109.64010
0.09842,0.59176,-0.02423,0.13331,0.04928,0.01397,-0.62342,-1.70687,1.40169,10.56650,1.25102,8.04853,0.73000,-0.05397,0.08760,0.67565,-35.35947,-135.43910,103.02770
0.11447,0.59382,-0.01745,0.33073,0.06897,0.10389,-0.80826,-1.24387,1.27960,8.99930,2.32585,4.32443,0.72281,-0.04666,0.08876,0.68373,-11.51678,25.42291,-11.34932
0.12778,0.59750,-0.01210,0.45598,0.10888,0.15950,-0.90416,-0.40004,0.92733,6.58027,2.93057,3.03836,0.71767,-0.03500,0.07222,0.69175,-9.49098,46.51249,-21.60945
0.13921,0.60126,-0.00800,0.52933,0.14157,0.18630,-0.97508,0.26638,0.61358,5.74309,2.57844,1.51364,0.71238,-0.02410,0.05466,0.69925,-8.55717,57.93616,-32.72519
0.15119,0.60573,-0.00426,0.59476,0.17711,0.20245,-1.08409,0.67602,0.36288,4.54115,2.31540,0.17915,0.70536,-0.01574,0.03989,0.70755,-9.98388,37.34720,-23.04863
0.16398,0.61082,-0.00152,0.65962,0.21480,0.20071,-1.26097,0.60536,0.31457,4.81838,1.88898,-1.22943,0.69571,-0.01290,0.03889,0.71716,-11.01750,0.61538,-7.60325
0.17704,0.61539,0.00006,0.71586,0.23761,0.18309,-1.36172,0.26050,0.58949,5.42600,1.30230,-2.29610,0.68682,-0.00933,0.05282,0.72484,-9.88836,-21.09201,15.18509
0.19224,0.61974,0.00013,0.78988,0.25205,0.14764,-1.36815,-0.19177,1.13414,5.39399,0.61221,-2.88021,0.67923,-0.00218,0.07939,0.72962,-1.18077,-30.76420,40.38467
0.20927,0.62343,-0.00140,0.87674,0.25442,0.09590,-1.20084,-0.40223,1.65995,5.03235,0.27507,-3.34648,0.67568,0.01034,0.10425,0.72971,9.33866,-14.11328,37.57109
0.22710,0.62694,-0.00408,0.96027,0.25416,0.03647,-0.89870,-0.18151,1.91647,4.85033,0.22567,-3.58602,0.67692,0.02762,0.11549,0.72642,17.24541,13.75385,17.83729
0.24447,0.63070,-0.00663,1.01884,0.25735,-0.00860,-0.67948,0.16433,2.00676,4.53450,0.50384,-3.62632,0.67798,0.04638,0.11994,0.72375,15.11531,27.65833,8.42465
0.26275,0.63492,-0.01026,1.07826,0.26674,-0.05976,-0.43820,0.62860,2.03487,3.78765,1.02129,-3.60348,0.68116,0.06864,0.11878,0.71917,12.54252,34.37133,1.85134
0.28128,0.64009,-0.01473,1.13035,0.28870,-0.11329,-0.21213,1.13137,2.01265,2.74307,1.78115,-3.04819,0.68529,0.09280,0.11352,0.71336,10.61973,35.02323,-2.80627
0.29885,0.64589,-0.01847,1.15671,0.31486,-0.14502,-0.13410,1.44292,1.98065,1.79330,2.50281,-2.34101,0.68645,0.11478,0.10995,0.70959,5.27274,28.58800,-2.85626
0.31617,0.65308,-0.02247,1.17419,0.35587,-0.17359,-0.14566,1.76229,1.90074,0.78490,3.33035,-1.78183,0.68588,0.13747,0.10313,0.70713,-2.70003,23.03746,-4.97998
0.33290,0.66193,-0.02660,1.18014,0.41353,-0.19869,-0.25606,2.09854,1.77225,-0.04400,3.70606,-1.29491,0.68295,0.16074,0.09263,0.70651,-9.85812,20.57929,-7.12467
0.34907,0.67069,-0.03021,1.17561,0.45735,-0.21099,-0.39231,2.31875,1.66648,-0.66136,3.53393,-0.76157,0.67841,0.18296,0.08291,0.70669,-13.37832,17.88008,-6.75689
0.36482,0.67950,-0.03355,1.16678,0.49180,-0.21667,-0.53848,2.47229,1.58355,-1.04068,3.34999,-0.45199,0.67243,0.20474,0.07324,0.70750,-16.32254,15.10100,-6.76345
0.37793,0.69291,-0.03757,1.11742,0.59404,-0.23289,-1.03061,2.78443,1.42706,-2.06087,3.00373,-0.81979,0.65825,0.22944,0.05582,0.71481,-16.53312,7.07529,-0.96195
0.40693,0.71216,-0.04497,1.08613,0.63269,-0.24611,-1.20867,2.89974,1.37658,-2.52822,2.68189,-1.15589,0.64072,0.27287,0.03617,0.71674,-14.19501,6.29709,-0.82139
0.41979,0.72305,-0.04950,1.05442,0.66270,-0.26194,-1.33723,3.03883,1.30550,-2.93170,2.44851,-1.35187,0.62984,0.29565,0.02194,0.71792,-12.94349,7.79094,-2.68527
0.43112,0.73467,-0.05477,1.00613,0.69623,-0.28492,-1.53572,3.27426,1.14561,-3.30265,1.87396,-1.47877,0.61672,0.31910,0.00142,0.71960,-15.43461,12.75619,-7.88721
0.44134,0.74615,-0.06040,0.95073,0.72220,-0.30926,-1.72944,3.50519,0.97141,-3.71994,1.45447,-1.59168,0.60264,0.34213,-0.02132,0.72064,-15.83656,12.63294,-9.40800
0.45085,0.75739,-0.06619,0.89575,0.74011,-0.33155,-1.89297,3.67736,0.81281,-4.17639,1.10965,-1.63543,0.58798,0.36402,-0.04424,0.72098,-15.23016,11.02939,-9.17024
