posX, posY, posZ, velX, velY, velZ, angVelX, angVelY, angVelZ, accX, accY, accZ, rotX, rotY, rotZ, rotW, angAccX, angAccY, angAccZ
0.33434,1.17009,-0.40195,-0.20538,0.57053,-0.51424,2.79314,1.03380,0.83073,-0.24074,1.48178,0.12755,0.15881,0.82469,0.08859,0.53555,46.03545,15.69721,-7.88709
0.33157,1.17928,-0.40926,-0.20793,0.59306,-0.51656,3.15324,0.92339,0.77920,-0.53612,2.19952,0.11808,0.17325,0.82415,0.11594,0.52661,31.31029,-1.85585,-7.15144
0.32816,1.18955,-0.41692,-0.21811,0.62560,-0.52325,3.24201,0.68106,0.77892,-1.05120,2.87478,-0.50850,0.18250,0.82093,0.13938,0.52282,11.79158,-13.91030,-5.55580
0.32444,1.20030,-0.42529,-0.23150,0.65944,-0.53977,3.12894,0.42703,0.76755,-1.41068,3.15111,-1.99672,0.18824,0.81684,0.15787,0.52194,-3.25184,-21.42067,-4.15129
0.31952,1.21311,-0.43596,-0.26107,0.71774,-0.58628,3.04183,0.41628,0.74416,-2.42410,4.18434,-3.86696,0.19463,0.81583,0.17497,0.51568,-9.02998,-4.15277,-1.44811
0.31312,1.22754,-0.44754,-0.30491,0.78657,-0.63668,3.29020,0.70708,0.88219,-3.39956,5.43323,-3.99604,0.20335,0.81865,0.20159,0.49781,8.30429,15.07386,4.34219
0.30584,1.24303,-0.45899,-0.35254,0.85669,-0.67461,3.73660,1.11189,1.02267,-3.99540,6.46124,-3.18323,0.21610,0.82186,0.23457,0.47204,31.96945,24.64084,18.93809
0.29696,1.26219,-0.47025,-0.41471,0.96765,-0.70152,4.27449,1.57061,1.45230,-4.23158,6.77787,0.02915,0.22343,0.82582,0.27694,0.43749,43.52516,31.13369,35.91168
0.28772,1.28118,-0.48058,-0.46871,1.05214,-0.70939,4.12680,1.54537,1.57538,-4.24197,5.56481,0.47852,0.22513,0.82586,0.30188,0.41969,0.42253,0.95277,13.00200
0.27807,1.30008,-0.49033,-0.52006,1.12188,-0.70751,3.70888,1.32282,1.56125,-3.63076,4.60428,0.39867,0.22368,0.82467,0.31781,0.41096,-27.38084,-19.02714,-0.08461
0.26818,1.31920,-0.49949,-0.56473,1.18073,-0.69679,3.48632,1.22384,1.47383,-3.18103,3.88058,0.53239,0.22644,0.82282,0.33459,0.39968,-21.72128,-12.18079,-6.70993
0.25772,1.33874,-0.50787,-0.60602,1.23008,-0.67652,3.61102,1.35646,1.38725,-2.82812,3.25449,1.37756,0.23573,0.82005,0.35757,0.37960,0.52605,6.09473,-5.21505
0.24705,1.35831,-0.51475,-0.64528,1.27425,-0.63824,4.05118,1.69761,1.27779,-2.39009,2.41434,2.63502,0.25267,0.81494,0.38681,0.34986,24.32425,23.25362,-2.94957
0.23681,1.37716,-0.52159,-0.66769,1.29560,-0.60767,4.31640,1.92379,1.19432,-2.39519,1.94540,3.58087,0.26778,0.80865,0.41365,0.32136,26.53175,29.31324,-3.64723
0.22477,1.39667,-0.52572,-0.71257,1.32244,-0.54302,4.44073,2.05951,0.99981,-2.78338,1.05033,4.36097,0.28476,0.80064,0.43652,0.29553,7.97762,13.54073,-8.21906
0.21267,1.41532,-0.52987,-0.75177,1.33387,-0.49016,4.20772,1.94657,0.82263,-3.01773,0.65538,3.88539,0.29545,0.79391,0.45199,0.27949,-14.74302,-3.93391,-11.90570
0.20018,1.43378,-0.53379,-0.78742,1.33921,-0.44498,4.05849,1.92463,0.72155,-3.11056,0.55503,3.49598,0.30595,0.78714,0.46770,0.26088,-18.77562,-4.41446,-10.37612
0.18615,1.45222,-0.53601,-0.83612,1.33970,-0.38483,3.97184,2.02744,0.65353,-3.10635,-0.31726,3.79698,0.31780,0.78039,0.48301,0.23811,-4.82918,6.97261,-1.92629
0.17234,1.47023,-0.53837,-0.87172,1.33441,-0.33920,3.84404,2.10294,0.60484,-3.07236,-0.43929,4.08568,0.32862,0.77391,0.49643,0.21593,-10.20815,6.89430,-0.88806
0.15746,1.48789,-0.53904,-0.91594,1.32596,-0.27805,3.80594,2.18646,0.62230,-3.36585,-0.51248,4.52394,0.33860,0.76640,0.51117,0.19155,-6.88893,5.43533,1.52526
0.14153,1.50543,-0.53824,-0.96343,1.31373,-0.20985,3.92033,2.32079,0.73852,-3.38934,-0.87792,4.97698,0.34768,0.75684,0.52928,0.16179,6.71616,6.81571,7.65249
0.12557,1.52247,-0.53689,-1.00235,1.29851,-0.14859,3.99838,2.39293,0.86336,-3.14796,-1.74692,5.43893,0.35481,0.74659,0.54701,0.13227,12.69158,7.76847,11.70270
0.10875,1.53855,-0.53414,-1.04418,1.27166,-0.08007,3.80401,2.26444,0.91042,-2.77057,-2.60152,4.97660,0.35833,0.73892,0.55961,0.11154,-6.80948,-7.88825,5.22424
0.09195,1.55288,-0.53050,-1.07902,1.22718,-0.01077,3.48889,2.04046,0.86160,-1.73364,-3.04821,3.98953,0.36106,0.73259,0.56871,0.09761,-20.72333,-15.22000,-3.08915
0.07610,1.56658,-0.52734,-1.09379,1.18222,0.03887,3.29389,2.02109,0.81710,-0.89930,-3.09629,3.00268,0.36681,0.72545,0.57702,0.07887,-15.46426,-7.37320,-4.38573
0.06051,1.58010,-0.52446,-1.09968,1.14119,0.07336,3.21663,2.10081,0.81016,-0.32020,-3.59708,2.55247,0.37370,0.71699,0.58579,0.05583,-7.57638,4.86121,2.26113
0.04528,1.59212,-0.52147,-1.09961,1.08983,0.10243,2.98206,2.14943,0.75706,0.28016,-3.90306,1.87456,0.38073,0.71117,0.58989,0.03626,-13.54080,3.88305,0.80618
0.03086,1.60249,-0.51844,-1.08791,1.02397,0.12785,2.58203,2.17492,0.64311,0.86170,-3.66454,1.09062,0.38862,0.70853,0.58865,0.02112,-23.88839,0.29802,-2.33956
0.01670,1.61326,-0.51580,-1.07381,0.97299,0.14085,2.29590,2.23460,0.55163,1.04406,-3.53509,0.74751,0.39729,0.70479,0.58771,0.00462,-22.20594,3.57497,-3.22130
0.00249,1.62396,-0.51314,-1.06144,0.93066,0.14939,2.07080,2.30341,0.49135,1.02873,-3.47551,0.59204,0.40607,0.70085,0.58630,-0.01270,-19.75197,5.01487,-1.27450
-0.01132,1.63321,-0.51003,-1.04585,0.87594,0.16248,1.80560,2.40474,0.44589,0.92306,-3.38137,1.05933,0.41547,0.69843,0.58195,-0.03004,-18.05563,6.09719,0.95726
-0.02527,1.64264,-0.50669,-1.03700,0.83599,0.17735,1.62612,2.42631,0.43252,0.75699,-3.25748,1.40181,0.42318,0.69533,0.57902,-0.04662,-14.92809,3.59580,0.70520
-0.03912,1.65111,-0.50262,-1.02789,0.79155,0.19799,1.36972,2.40529,0.44657,0.79151,-3.15292,1.59385,0.42947,0.69472,0.57373,-0.06121,-16.91511,-0.88257,4.09635
-0.05268,1.65907,-0.49806,-1.01663,0.74840,0.22161,1.09218,2.34153,0.45999,0.96055,-3.05604,1.76859,0.43482,0.69552,0.56724,-0.07361,-18.89225,-4.52501,4.11817
-0.06593,1.66645,-0.49309,-1.00388,0.70544,0.24744,0.85211,2.25824,0.47108,0.90651,-3.00453,1.85802,0.43955,0.69661,0.56067,-0.08480,-18.52767,-7.17825,3.01925
-0.07888,1.67320,-0.48753,-0.98875,0.66156,0.27578,0.72985,2.22925,0.47736,1.07188,-3.01414,2.06959,0.44496,0.69599,0.55501,-0.09783,-11.32560,-4.31401,2.18774
-0.09148,1.67914,-0.48140,-0.97231,0.61509,0.30683,0.72160,2.22864,0.48175,1.27799,-3.45492,2.23205,0.45058,0.69328,0.55103,-0.11268,-1.26815,0.10689,1.30211
-0.10358,1.68400,-0.47471,-0.95200,0.56117,0.34110,0.65828,2.16622,0.43848,1.21379,-3.30754,2.06303,0.45624,0.69102,0.54670,-0.12429,-3.54655,-3.20992,-2.82188
-0.11593,1.68924,-0.46826,-0.93856,0.52308,0.36461,0.61904,2.13755,0.43951,1.10753,-3.12952,1.86232,0.46135,0.68883,0.54206,-0.13724,-4.19918,-3.44699,-0.76935
-0.12783,1.69407,-0.46157,-0.92211,0.48816,0.38644,0.55547,2.08352,0.42446,1.80067,-2.75294,1.75326,0.46625,0.68707,0.53710,-0.14859,-2.95096,-2.33455,0.87269
-0.13874,1.69825,-0.45449,-0.89529,0.45104,0.40987,0.46408,2.05511,0.43589,1.44830,-1.88552,1.22101,0.47086,0.68634,0.53074,-0.15982,-8.28387,-5.22027,0.43826
-0.14878,1.70239,-0.44711,-0.85859,0.41839,0.43355,0.65022,2.26219,0.46613,2.07721,-1.54655,1.31257,0.47790,0.67965,0.52631,-0.18078,8.48944,10.96018,1.44543
-0.15887,1.70652,-0.43984,-0.83023,0.39213,0.45178,0.91418,2.51239,0.47675,2.16741,-2.09916,1.33600,0.48584,0.66965,0.52295,-0.20508,20.25535,19.73130,-1.62130
-0.16857,1.71037,-0.43226,-0.80241,0.36722,0.47076,0.91569,2.53943,0.48637,2.25051,-2.11928,1.47482,0.49163,0.66406,0.51752,-0.22248,5.98952,7.43025,-0.18071
-0.17809,1.71403,-0.42422,-0.77719,0.34444,0.49208,0.75130,2.39692,0.53542,1.77113,-1.55718,1.61420,0.49457,0.66309,0.51070,-0.23432,-10.44055,-9.14204,3.85290
-0.18742,1.71748,-0.41578,-0.75473,0.32358,0.51543,0.65103,2.24478,0.63413,1.65400,-1.33189,1.66773,0.49524,0.66270,0.50471,-0.24665,-7.37962,-11.42381,7.20097
-0.19657,1.72103,-0.40727,-0.73494,0.30960,0.53482,0.55668,2.07727,0.74975,1.72455,-1.05691,1.48365,0.49424,0.66348,0.49884,-0.25823,-4.51668,-13.45362,8.66484
-0.20502,1.72438,-0.39843,-0.70828,0.29515,0.55397,0.43194,1.88178,0.93914,1.69415,-0.87912,0.84708,0.49023,0.66712,0.49208,-0.26923,-5.80313,-14.42224,12.57124
-0.21306,1.72767,-0.39014,-0.68074,0.28282,0.56209,0.37431,1.80200,1.06497,1.95871,-0.86416,0.33477,0.48772,0.66886,0.48497,-0.28205,-3.10602,-7.75915,9.91853
-0.22086,1.73080,-0.38216,-0.65612,0.27099,0.56439,0.33812,1.76916,1.16068,2.11080,-1.10558,0.08415,0.48559,0.67000,0.47744,-0.29555,-1.40606,-3.66684,8.62774
-0.22791,1.73331,-0.37427,-0.62506,0.25233,0.56421,0.30698,1.75701,1.21696,2.31450,-1.50672,-0.11732,0.48402,0.67065,0.46958,-0.30896,-1.89257,-2.03829,5.72638
-0.23424,1.73517,-0.36660,-0.59034,0.22799,0.56116,0.31710,1.79235,1.20487,2.55074,-1.85916,-0.28265,0.48410,0.66920,0.46214,-0.32288,-0.73259,1.81539,0.43365
-0.23952,1.73619,-0.35911,-0.54710,0.19589,0.55603,0.31183,1.82321,1.15620,3.00751,-2.25579,-0.37329,0.48517,0.66709,0.45466,-0.33600,1.17369,4.33214,-3.39497
-0.24526,1.73752,-0.35152,-0.51952,0.17533,0.55312,0.19300,1.70768,1.14820,3.07816,-2.38629,-0.34555,0.48438,0.66874,0.44659,-0.34456,-4.83168,-3.77232,-2.22006
-0.25032,1.73809,-0.34408,-0.48199,0.14775,0.55007,-0.05389,1.46973,1.15265,2.84352,-1.80451,-0.11409,0.48253,0.67486,0.43737,-0.34704,-17.44367,-19.25467,2.94987
-0.25613,1.73831,-0.33644,-0.44237,0.11807,0.55279,-0.08098,1.35463,1.08897,2.64862,-1.63551,0.20897,0.48167,0.67614,0.43160,-0.35292,-4.63578,-10.62044,-2.42756
-0.26145,1.73835,-0.32866,-0.40711,0.09262,0.55536,0.03778,1.41004,0.95878,2.91717,-1.84132,0.08728,0.48336,0.67204,0.42736,-0.36342,6.63247,2.19407,-8.30491
-0.26414,1.73780,-0.32080,-0.36470,0.06570,0.55643,0.26502,1.59337,0.74964,2.81034,-1.68021,0.14151,0.48798,0.66246,0.42478,-0.37759,10.44018,11.18264,-14.80769
-0.26499,1.73674,-0.31286,-0.31543,0.03673,0.55581,0.53792,1.83873,0.50175,3.00582,-1.96567,-0.33834,0.49453,0.64862,0.42343,-0.39425,16.67079,18.26273,-17.52902
-0.26631,1.73583,-0.30528,-0.27925,0.01573,0.55114,0.65578,1.96468,0.32885,2.80903,-1.74482,-0.46558,0.50044,0.63735,0.42059,-0.40799,8.48363,12.23136,-15.63028
-0.26763,1.73440,-0.29791,-0.23935,-0.01013,0.54563,0.73751,2.03596,0.16523,2.51798,-1.81920,-0.37826,0.50649,0.62590,0.41826,-0.42044,5.24588,7.57862,-11.87412
-0.26962,1.73300,-0.29052,-0.21137,-0.03116,0.54172,0.69853,1.95627,0.10621,2.06358,-1.53762,-0.37443,0.51021,0.61901,0.41511,-0.42919,-1.94978,-4.03215,-5.43128
-0.27162,1.73146,-0.28303,-0.18994,-0.04971,0.53937,0.62535,1.83525,0.10822,1.49783,-1.37283,-0.18536,0.51260,0.61426,0.41133,-0.43673,-4.71810,-6.91499,-0.54003
-0.27307,1.72977,-0.27572,-0.17217,-0.06448,0.53640,0.54446,1.68889,0.13798,0.93286,-0.80424,-0.18285,0.51395,0.61107,0.40755,-0.44311,-6.69214,-12.63629,2.84311
-0.27463,1.72806,-0.26846,-0.15989,-0.07653,0.53352,0.58472,1.68345,0.14146,0.79080,-0.55914,-0.11660,0.51572,0.60438,0.40425,-0.45314,0.68284,-1.70094,0.73805
-0.27630,1.72633,-0.26116,-0.15146,-0.08656,0.53127,0.61495,1.60533,0.21412,0.53707,-0.79651,-0.25196,0.51510,0.59965,0.40122,-0.46273,4.58613,-2.53120,2.07137
-0.27814,1.72468,-0.25379,-0.14740,-0.09332,0.53103,0.54791,1.38790,0.36197,0.62713,-0.69616,-0.01495,0.51179,0.60013,0.39763,-0.46883,-2.77961,-13.56475,10.45616
-0.27975,1.72273,-0.24612,-0.14076,-0.10302,0.53522,0.40080,0.93757,0.58686,0.88384,-0.98092,0.21491,0.50389,0.60803,0.39533,-0.46916,-6.06250,-27.53053,14.34221
-0.28101,1.72050,-0.23841,-0.13032,-0.11507,0.53926,0.15813,0.30424,0.82488,0.90628,-0.99358,0.06197,0.49282,0.62288,0.39421,-0.46233,-13.15459,-44.99337,17.64974
-0.28198,1.71807,-0.23094,-0.11782,-0.12714,0.53833,0.06325,-0.06952,0.87323,-0.07747,0.29498,0.44764,0.48473,0.63240,0.39481,-0.45742,-14.21236,-41.47633,9.51008
-0.28318,1.71608,-0.22365,-0.11134,-0.13022,0.53517,0.43743,0.24231,0.72659,-0.09351,0.21403,-0.35219,0.48207,0.62329,0.39734,-0.47036,21.56243,14.36724,-9.04579
-0.28443,1.71438,-0.21700,-0.10688,-0.12852,0.52316,0.78363,0.63750,0.57119,0.50675,-0.00766,-1.03375,0.48133,0.61011,0.39893,-0.48678,25.70329,33.23032,-11.43331
-0.28573,1.71275,-0.21049,-0.10410,-0.12629,0.51183,0.95123,0.72655,0.55381,0.72610,-0.34290,-1.16281,0.47695,0.60336,0.40037,-0.49817,16.51778,16.70934,-4.83255
-0.28701,1.71100,-0.20405,-0.10162,-0.12618,0.50173,0.80637,0.28482,0.71719,0.67383,-0.51484,-0.85205,0.46649,0.61157,0.40183,-0.49689,-3.43285,-20.99589,6.94803
-0.28846,1.70900,-0.19725,-0.10224,-0.12974,0.49904,0.58024,-0.44088,0.95833,-0.32240,-0.15908,0.01832,0.45016,0.62925,0.40512,-0.48712,-15.29641,-54.55424,15.07516
-0.29023,1.70705,-0.19053,-0.10741,-0.13185,0.49563,0.52242,-0.90104,1.10645,-0.97074,0.36824,-0.23678,0.43400,0.64259,0.40944,-0.48071,-6.31000,-43.71281,11.76092
-0.29213,1.70524,-0.18453,-0.11344,-0.13166,0.48229,0.63698,-0.90946,1.11450,-0.96034,0.01586,-1.04839,0.42246,0.64620,0.41317,-0.48296,6.48128,-7.48421,2.93426
-0.29422,1.70323,-0.17941,-0.12099,-0.13419,0.45842,0.77966,-0.67227,1.04699,-0.54563,-0.23897,-2.06985,0.41505,0.64397,0.41549,-0.49032,10.25064,15.52537,-2.58173
-0.29624,1.70105,-0.17487,-0.12588,-0.13880,0.43147,0.83880,-0.45132,0.97200,-0.33592,-0.74209,-2.42276,0.40956,0.64143,0.41651,-0.49735,6.36219,21.22648,-4.95279
-0.29841,1.69848,-0.17095,-0.13179,-0.14793,0.40225,0.80665,-0.33842,0.92373,-0.34440,-1.04428,-2.63719,0.40436,0.64110,0.41656,-0.50196,-0.16857,14.07265,-4.33943
-0.30102,1.69528,-0.16846,-0.14292,-0.16418,0.35754,0.67320,-0.29296,0.87745,-0.76238,-0.95142,-2.45629,0.40045,0.64304,0.41509,-0.50383,-7.28877,2.39267,-2.29008
-0.30378,1.69219,-0.16573,-0.15428,-0.17589,0.32450,0.57940,-0.24420,0.85143,-0.89758,-0.65248,-2.24182,0.39615,0.64476,0.41356,-0.50628,-7.77154,2.33099,-1.79802
-0.30652,1.68928,-0.16269,-0.16285,-0.18259,0.30358,0.54501,-0.20287,0.83878,-0.81374,-0.61183,-1.98595,0.39109,0.64591,0.41266,-0.50947,-5.58342,4.26179,-1.72324
-0.30968,1.68603,-0.16067,-0.17542,-0.19249,0.27204,0.51627,-0.14823,0.78796,-0.58921,-0.29874,-1.49747,0.38721,0.64618,0.41213,-0.51252,-2.60423,2.03018,-1.96130
-0.31250,1.68302,-0.15817,-0.18082,-0.19741,0.25324,0.57526,-0.02022,0.69994,-0.33141,-0.26067,-1.18457,0.38411,0.64315,0.41304,-0.51789,2.99223,8.38902,-5.38350
-0.31520,1.67996,-0.15588,-0.18360,-0.20204,0.23505,0.63013,0.10415,0.59639,0.02329,-0.29754,-1.07002,0.38190,0.63913,0.41440,-0.52338,3.68061,9.09353,-6.42754
-0.31761,1.67694,-0.15329,-0.18129,-0.20508,0.22475,0.66691,0.17405,0.50360,0.42158,-0.21338,-0.69110,0.37958,0.63558,0.41618,-0.52797,2.00526,6.44381,-6.11089
-0.31971,1.67385,-0.15061,-0.17513,-0.20840,0.21836,0.70908,0.13730,0.39811,0.74272,-0.23312,-0.50412,0.37652,0.63286,0.42007,-0.53034,4.08464,3.31824,-8.48152
-0.32176,1.67102,-0.14786,-0.16949,-0.20751,0.21421,0.68328,-0.06170,0.34464,0.32378,0.19518,-0.25603,0.37140,0.63448,0.42443,-0.52853,-1.23406,-13.76095,-5.53084
-0.32379,1.66851,-0.14508,-0.16458,-0.20164,0.21110,0.69276,-0.19225,0.30170,0.20063,0.57165,-0.11418,0.36608,0.63519,0.42903,-0.52769,0.62800,-9.51072,-3.52241
-0.32588,1.66623,-0.14231,-0.16156,-0.19373,0.20866,0.70344,-0.24562,0.27991,0.17263,0.72670,-0.18760,0.36115,0.63509,0.43277,-0.52815,0.89245,-5.39216,-2.54864
-0.32783,1.66426,-0.13951,-0.15724,-0.18325,0.20729,0.71707,-0.25435,0.27381,0.37412,0.75897,0.09560,0.35634,0.63449,0.43596,-0.52952,0.26429,-2.10175,-0.17991
-0.32919,1.66233,-0.13646,-0.14474,-0.17403,0.20967,0.77632,-0.18261,0.22264,1.10356,0.45528,0.25020,0.35275,0.63116,0.43999,-0.53255,3.78625,4.52461,-2.42551
-0.32988,1.66015,-0.13309,-0.12465,-0.17049,0.21656,0.85333,-0.12884,0.13988,1.87048,0.12383,0.72580,0.34948,0.62691,0.44538,-0.53525,4.65175,5.40771,-4.42370
-0.32976,1.65768,-0.12924,-0.09674,-0.17195,0.22914,0.90974,-0.22731,0.01777,2.47436,-0.26605,0.76456,0.34545,0.62438,0.45336,-0.53412,5.84417,-1.78819,-7.92261
-0.32887,1.65517,-0.12536,-0.06310,-0.17387,0.23940,0.90623,-0.41240,-0.11982,2.50960,-0.05282,0.67139,0.34148,0.62403,0.46234,-0.52935,0.18117,-14.58400,-10.34738
-0.32722,1.65278,-0.12167,-0.02528,-0.17316,0.24456,0.90337,-0.49077,-0.27447,2.77529,0.19075,0.09464,0.33942,0.62187,0.47130,-0.52531,0.95158,-5.57549,-11.54739
-0.32488,1.65096,-0.11843,0.01509,-0.16412,0.24199,0.84622,-0.53135,-0.41736,2.89637,0.95992,-0.28996,0.33907,0.61992,0.47917,-0.52070,-3.53153,-4.13819,-10.89690
-0.32179,1.64978,-0.11542,0.05821,-0.14759,0.23682,0.80504,-0.51785,-0.56685,3.22767,1.42711,-0.38986,0.34007,0.61664,0.48715,-0.51652,-2.57766,1.87784,-10.11034
-0.31840,1.64897,-0.11235,0.09614,-0.12918,0.23332,0.78733,-0.52793,-0.69683,3.18619,1.72045,-0.12456,0.34073,0.61329,0.49589,-0.51173,-2.49704,-0.30344,-11.37689
-0.31337,1.64893,-0.10899,0.15067,-0.10353,0.23520,0.87910,-0.44189,-0.88867,3.56928,1.69110,0.44129,0.34278,0.60553,0.50711,-0.50860,4.31103,4.47592,-10.38545
-0.30730,1.64895,-0.10514,0.21066,-0.08140,0.24398,1.08207,-0.31691,-1.12894,3.99540,1.26868,0.61631,0.34513,0.59347,0.52158,-0.50659,13.65656,9.47328,-13.67044
-0.30130,1.64874,-0.10116,0.25702,-0.06756,0.25272,1.23489,-0.34356,-1.32643,4.10905,1.04405,0.66393,0.34562,0.58335,0.53727,-0.50159,13.27761,2.25142,-14.92049
-0.29419,1.64863,-0.09683,0.30974,-0.05515,0.26500,1.37688,-0.56331,-1.56770,3.98051,0.67938,0.89554,0.34400,0.57480,0.55688,-0.49108,11.08007,-9.35030,-17.99474
-0.28644,1.64851,-0.09178,0.36122,-0.04555,0.28553,1.47372,-1.09723,-1.85653,2.86665,0.57304,1.46590,0.33807,0.57090,0.58131,-0.47102,2.62461,-32.49754,-20.75927
-0.27963,1.64821,-0.08685,0.38768,-0.04052,0.29979,1.58344,-1.34432,-2.02248,2.09570,0.64599,1.60181,0.33293,0.56391,0.60310,-0.45545,4.25568,-31.05732,-21.42186
-0.27175,1.64832,-0.08103,0.42428,-0.03051,0.32419,1.93555,-1.44016,-2.23687,1.47016,0.68803,1.48675,0.32638,0.54879,0.62960,-0.44262,18.80268,-7.44078,-11.95865
-0.26462,1.64831,-0.07530,0.44283,-0.02422,0.34274,2.30754,-1.39568,-2.31644,0.99984,0.29218,1.18681,0.31875,0.53056,0.65424,-0.43461,26.56166,-0.34668,-4.81615
-0.25765,1.64801,-0.06965,0.45498,-0.02378,0.35601,2.60257,-1.46096,-2.36969,0.65492,-0.41972,0.69857,0.30874,0.51318,0.67910,-0.42445,22.58863,-6.17233,-2.73595
-0.25074,1.64724,-0.06418,0.46412,-0.03083,0.36394,2.88789,-1.57461,-2.40513,0.63620,-0.66290,0.08285,0.29633,0.49509,0.70444,-0.41332,18.35777,-9.78528,-1.27554
-0.24375,1.64619,-0.05917,0.47214,-0.04044,0.36273,3.03473,-1.67409,-2.43883,0.74740,-1.17308,-0.36082,0.28466,0.47803,0.72797,-0.40065,12.71791,-9.93851,-2.28140
-0.23648,1.64439,-0.05452,0.48274,-0.05941,0.35662,3.12408,-1.87152,-2.53265,0.97537,-1.77646,-0.69572,0.27155,0.46175,0.75217,-0.38378,7.95512,-10.97068,-5.84466
-0.22934,1.64195,-0.05002,0.48892,-0.08366,0.34962,3.05732,-2.19051,-2.67869,0.58055,-2.64689,-0.87116,0.25751,0.44944,0.77571,-0.36051,-1.91213,-18.25234,-14.44477
-0.22254,1.63767,-0.04607,0.48900,-0.13089,0.33597,2.79732,-2.72570,-3.00008,-0.28358,-3.54352,-1.04409,0.24247,0.44289,0.79966,-0.32496,-17.98720,-26.12943,-28.24656
-0.21608,1.63270,-0.04233,0.48335,-0.17796,0.32172,2.65418,-3.00863,-3.24047,-0.94823,-4.19674,-1.19433,0.22881,0.43246,0.82179,-0.29204,-16.48721,-20.22046,-29.72414
-0.21019,1.62506,-0.03958,0.47071,-0.25549,0.29574,2.66437,-3.18213,-3.49423,-0.86693,-5.17124,-1.95432,0.21510,0.41690,0.84430,-0.25900,1.28846,-7.33631,-16.52845
-0.20414,1.61645,-0.03769,0.46357,-0.33249,0.26188,2.70971,-3.16428,-3.75416,-0.57126,-5.70255,-2.72153,0.20529,0.39753,0.86510,-0.22679,4.10410,-0.47033,-19.97633
-0.19798,1.60648,-0.03701,0.45891,-0.41320,0.21646,2.72077,-3.08921,-4.00753,-0.15585,-5.84907,-3.97199,0.19749,0.37690,0.88402,-0.19351,10.58856,5.35863,-14.38628
-0.19126,1.59595,-0.03756,0.46407,-0.48530,0.16254,2.59626,-2.93711,-4.36799,0.78357,-4.87132,-4.01826,0.19537,0.35720,0.89998,-0.15578,0.49829,13.13038,-21.33683
-0.18401,1.58505,-0.03878,0.47598,-0.54791,0.10987,2.68993,-2.55113,-4.52953,-0.06368,-3.63521,-3.22231,0.19701,0.33083,0.91428,-0.12586,8.98107,26.09256,-17.69712
-0.17723,1.57331,-0.04087,0.47800,-0.61076,0.05440,3.21963,-2.01900,-4.05847,-0.46004,-3.59035,-3.36665,0.19371,0.29476,0.92817,-0.11868,35.34578,17.55061,35.95075
-0.17097,1.56186,-0.04280,0.47192,-0.65595,0.01328,3.68232,-1.67484,-3.53402,-0.82416,-3.79243,-3.42768,0.18649,0.25857,0.94080,-0.11517,36.68079,9.75659,51.66609
-0.16531,1.54959,-0.04529,0.45853,-0.70298,-0.02657,4.15112,-1.43904,-3.03787,-1.26826,-4.13379,-3.06601,0.17682,0.21928,0.95262,-0.11475,36.62156,0.90380,51.41229
-0.16104,1.53525,-0.04880,0.42642,-0.77042,-0.07298,4.82082,-1.35613,-2.50329,-2.41225,-4.46335,-2.66748,0.16077,0.17152,0.96466,-0.11902,37.01043,-11.24472,38.99886
-0.15807,1.52059,-0.05245,0.38149,-0.82950,-0.11272,5.40321,-1.49282,-2.14616,-3.61112,-4.04545,-2.95139,0.13929,0.12208,0.97548,-0.11886,38.71962,-21.91904,25.45464
-0.15601,1.50626,-0.05647,0.33324,-0.87060,-0.14912,5.70191,-1.72667,-1.95237,-4.01168,-3.31558,-3.52340,0.11543,0.07710,0.98375,-0.11385,28.29070,-30.05882,16.01932
-0.15567,1.49181,-0.06145,0.27035,-0.90436,-0.19143,5.71611,-2.01511,-2.04310,-4.44803,-2.27682,-3.13411,0.09114,0.03801,0.99017,-0.09907,5.22959,-19.87320,-6.08413
-0.15731,1.47777,-0.06702,0.19025,-0.92563,-0.23448,5.47522,-2.34187,-2.44734,-5.25660,-0.85450,-2.75453,0.06685,0.00576,0.99517,-0.07169,-12.26891,-7.33435,-32.46580
-0.15758,1.46451,-0.07180,0.14821,-0.93086,-0.25629,5.35408,-2.51085,-2.59198,-5.65905,-0.19390,-2.70913,0.04361,-0.02805,0.99736,-0.05075,-13.12516,-3.51538,-34.50602
-0.16244,1.45154,-0.07952,0.05015,-0.93066,-0.31547,5.20584,-2.88131,-2.72656,-5.78559,0.59030,-3.64255,0.01223,-0.05908,0.99779,-0.02773,-9.85024,-13.33382,-17.46577
-0.16843,1.43959,-0.08898,-0.04997,-0.91479,-0.39153,5.23685,-3.32063,-2.60754,-5.40556,1.58074,-4.92616,-0.02480,-0.09420,0.99516,-0.01308,-3.08395,-27.31584,-1.71638
-0.17326,1.42840,-0.09820,-0.11276,-0.89158,-0.44904,5.24952,-3.57672,-2.54850,-5.12924,2.27065,-4.73715,-0.05833,-0.12917,0.98990,0.00210,-2.70391,-22.20851,-2.49836
-0.17911,1.41837,-0.10873,-0.17667,-0.85572,-0.51298,5.21869,-3.91985,-2.42803,-4.14619,3.07163,-4.66055,-0.09641,-0.16232,0.98191,0.01477,-5.53315,-24.19449,-3.31715
-0.18487,1.40965,-0.12026,-0.22570,-0.80779,-0.57875,5.14427,-4.22779,-2.25834,-3.08973,4.11753,-4.90443,-0.13519,-0.19352,0.97143,0.02462,-10.26774,-22.49338,-0.30484
-0.19034,1.40270,-0.13307,-0.26020,-0.74338,-0.64983,5.04312,-4.52969,-2.00564,-2.03478,5.30251,-5.28008,-0.17507,-0.22312,0.95847,0.03001,-13.70218,-23.96894,4.85233
-0.19532,1.39766,-0.14705,-0.28032,-0.66387,-0.72338,4.92047,-4.84962,-1.69887,-1.01359,6.40406,-5.31151,-0.21657,-0.25122,0.94288,0.03114,-15.94321,-26.28306,8.11003
-0.19973,1.39393,-0.16138,-0.28762,-0.58276,-0.78606,4.76908,-5.18203,-1.37810,-0.57935,7.40415,-5.10026,-0.25955,-0.27736,0.92460,0.02867,-20.42894,-28.66572,9.19221
-0.20394,1.39415,-0.17767,-0.29057,-0.46004,-0.86435,4.45839,-5.85890,-0.94230,-0.08897,8.16112,-4.55499,-0.31379,-0.29738,0.90156,0.01680,-26.83411,-44.22376,5.29695
-0.20787,1.39545,-0.19371,-0.28874,-0.34519,-0.92390,4.03978,-6.52498,-0.71787,0.51553,8.60881,-4.17874,-0.37110,-0.31086,0.87499,0.00647,-33.95895,-49.63624,-8.64435
-0.21153,1.39806,-0.20971,-0.28346,-0.23632,-0.96978,3.60017,-6.96880,-0.73496,0.81712,9.55475,-3.80924,-0.42576,-0.31887,0.84679,0.00136,-31.29317,-37.69066,-21.98317
-0.21466,1.40568,-0.22703,-0.27129,-0.07629,-1.02555,2.97674,-7.35208,-1.02205,1.22428,10.62487,-3.48003,-0.48199,-0.31510,0.81755,0.00149,-26.36781,-17.83980,-37.62018
-0.21701,1.41504,-0.24449,-0.24991,0.07871,-1.07283,2.37893,-7.53950,-1.40925,2.37347,11.88292,-3.56442,-0.53428,-0.30598,0.78797,0.00532,-23.07896,-6.16918,-46.47357
-0.21760,1.42772,-0.26289,-0.20660,0.25092,-1.12439,1.82015,-7.62660,-1.77177,3.92978,13.15659,-3.86020,-0.58357,-0.29261,0.75746,0.00935,-20.97990,2.32387,-45.01787
-0.21597,1.44400,-0.28215,-0.13937,0.44089,-1.17788,1.26599,-7.76289,-2.09106,5.61938,14.37270,-3.77203,-0.63284,-0.27443,0.72393,0.01116,-21.40533,-1.07749,-41.00322
-0.21192,1.46390,-0.30188,-0.05036,0.64497,-1.22702,0.67057,-7.94776,-2.42989,7.06339,15.39322,-3.29267,-0.68227,-0.24943,0.68714,0.01124,-24.09397,-5.54211,-41.34058
-0.20527,1.48766,-0.32170,0.05883,0.86394,-1.26739,0.03609,-8.03143,-2.88195,9.04455,16.48262,-2.50190,-0.72883,-0.21590,0.64963,0.01308,-22.80136,-3.75773,-51.34647
-0.20863,1.50851,-0.33651,0.21409,1.13955,-1.30165,-0.66036,-7.85073,-3.51435,11.12787,18.71780,-1.85057,-0.76854,-0.17199,0.61596,0.01925,-14.56254,14.85466,-54.73997
-0.21002,1.53395,-0.35252,0.38456,1.41955,-1.32519,-1.30706,-7.68292,-4.22843,13.53159,21.96213,-1.62287,-0.80536,-0.12071,0.57972,0.02725,-10.55827,16.73871,-62.82491
-0.20698,1.56173,-0.36893,0.52942,1.64089,-1.34049,-1.66525,-7.56467,-4.81741,15.89608,22.79359,-1.42855,-0.83842,-0.07098,0.53907,0.03781,-2.56856,10.45945,-72.95853
-0.20170,1.59721,-0.38467,0.80933,2.01858,-1.37086,-1.84497,-7.65897,-5.77316,18.05228,24.83332,-4.31950,-0.87057,-0.01085,0.48835,0.05913,-1.67808,12.25068,-51.66314
-0.19038,1.63930,-0.40184,1.12910,2.40491,-1.38218,-2.30195,-7.69296,-7.36363,27.80625,28.90768,0.91930,-0.89481,0.07736,0.43026,0.09060,52.03944,-48.71709,-121.88230
-0.17134,1.68447,-0.41759,1.48313,2.74859,-1.36638,-2.41087,-7.47223,-8.58452,32.86699,27.87353,2.78740,-0.90476,0.15971,0.37479,0.12426,2.12303,2.13089,-75.01277
-0.14376,1.73479,-0.43109,2.05315,3.16387,-1.30292,-1.76570,-7.05637,-10.04289,40.10722,24.03049,6.82795,-0.89806,0.24089,0.31838,0.18465,72.48553,-26.76543,-65.28237
-0.11057,1.78505,-0.43961,2.66338,3.47568,-1.17335,-0.60980,-6.70252,-11.04626,48.94405,20.49576,14.55612,-0.87923,0.30587,0.26096,0.25551,94.03541,-48.43439,-35.50844
-0.06395,1.83554,-0.43791,3.39913,3.72948,-0.90937,1.00471,-5.76062,-11.87019,57.56919,15.00246,25.13346,-0.83813,0.36250,0.22341,0.34091,127.48660,-46.41680,-10.01270
-0.00570,1.88333,-0.42278,4.21817,3.88034,-0.49280,2.81065,-4.95440,-12.58721,60.43517,6.58809,34.95597,-0.77883,0.41177,0.18722,0.43452,140.78680,-69.58043,3.67828
0.06212,1.92526,-0.39255,5.05719,3.88466,0.07533,3.93867,-4.29436,-13.79504,63.35282,-4.71143,46.52359,-0.69687,0.47824,0.14045,0.51569,111.82150,-49.17043,-31.49520
0.14834,1.95648,-0.34711,5.93573,3.69513,0.81508,4.75952,-3.01952,-15.68098,66.13837,-22.26959,60.41270,-0.57571,0.56722,0.09776,0.58075,118.46260,-10.93510,-98.28947
0.24531,1.96909,-0.28245,6.83206,3.23275,1.71825,5.87444,-1.26149,-18.04524,63.95972,-46.30708,72.39049,-0.40421,0.66104,0.06030,0.62929,188.26470,3.45890,-121.84390
0.35628,1.95229,-0.19753,7.68447,2.38155,2.78295,8.86694,0.87486,-19.79362,59.98994,-81.83714,80.70164,-0.17467,0.71192,0.05892,0.67764,215.77230,-91.41461,-115.44220
0.45835,1.88338,-0.09546,8.40499,0.87956,3.84776,12.03420,3.15366,-21.78524,41.79877,-137.14570,69.02540,0.10215,0.72815,0.05814,0.67526,201.95140,-132.37260,-218.24930
0.52998,1.71607,0.00295,8.68367,-1.88298,4.73500,16.04794,5.81915,-22.44569,-12.22782,-204.65550,34.83134,0.38475,0.68499,0.09914,0.61067,203.40260,-162.84800,-161.67220
0.54918,1.50433,0.05794,7.98478,-4.90789,4.84952,19.85605,7.62746,-21.61872,-90.12312,-222.49420,-20.23560,0.62014,0.58552,0.15425,0.49879,139.47510,-152.09740,-210.87140
0.51439,1.29116,0.06947,6.49836,-7.45113,4.32877,24.40836,8.48229,-19.06672,-153.48100,-197.05760,-69.37825,0.79714,0.42677,0.25109,0.34551,69.50866,-217.33710,-285.16740
0.38586,1.08381,0.02083,3.95251,-9.73837,3.10538,33.40493,7.53467,-14.08056,-204.11050,-130.11220,-111.68550,0.88898,0.12109,0.43303,0.08677,202.23680,-101.37410,-609.57660
0.21251,0.94484,-0.07838,1.00979,-10.83314,1.21497,40.54371,0.31864,-10.70670,-204.80080,-16.72119,-144.91010,0.78970,-0.28983,0.52592,-0.12563,432.08230,392.73250,-623.41050
0.06323,0.91639,-0.20423,-1.43274,-10.11596,-0.83182,36.12651,-6.89414,-11.85522,-139.79760,98.93572,-115.74590,0.66871,-0.52324,0.51830,-0.10205,109.44570,601.75270,-242.08460
-0.02592,0.96131,-0.29292,-2.63621,-8.29956,-1.96459,26.23205,-5.94308,-13.83160,-41.80479,136.20870,-37.87672,0.68396,-0.57004,0.45462,0.02409,-226.05370,641.33120,306.86100
-0.06158,0.99707,-0.33194,-2.82717,-6.84984,-2.05382,18.76742,-3.41990,-12.12796,7.93507,107.95880,15.88874,0.71966,-0.53985,0.42552,0.09793,-394.12110,376.85430,519.41140
0.05665,0.99807,-0.31241,-2.61483,-5.50951,-1.58643,12.69526,-2.51091,-8.29073,23.44311,68.37612,39.42213,0.73972,-0.46631,0.46288,0.14528,-391.79670,139.38340,235.44540
0.31659,0.86080,-0.23675,-2.37931,-4.82217,-0.96382,8.32723,-3.96947,-4.45054,13.87939,30.97954,48.17820,0.71137,-0.40216,0.55671,0.14929,-379.12530,-124.84580,174.81020
0.40334,0.77050,-0.18040,-2.32146,-4.50933,-0.39089,3.15770,-3.97266,-4.15560,-4.47472,24.88008,40.35802,0.66798,-0.35977,0.60041,0.25274,-450.55180,14.70590,-51.94208
0.43337,0.70334,-0.12757,-2.35020,-4.21012,0.11664,-0.86256,-0.84962,-3.53903,-6.09549,24.47398,29.62567,0.68712,-0.27353,0.56540,0.36519,-260.94360,293.67670,23.92654
0.43168,0.67371,-0.07374,-2.56261,-3.50157,0.65912,-3.67433,2.16265,-4.46057,-5.39140,31.45865,14.72319,0.68959,-0.22283,0.48770,0.48678,-67.68864,125.06870,-4.44062
0.36173,0.61241,-0.03767,-2.68307,-2.95296,0.85635,-4.19015,1.44865,-4.82323,-5.82835,30.43771,8.92889,0.63741,-0.23353,0.46235,0.57044,-43.97251,-46.98053,-1.97463
0.32665,0.59998,-0.01648,-2.70674,-2.53219,0.97268,-4.64648,1.97003,-4.81325,0.15254,30.50395,7.32687,0.61730,-0.21896,0.43268,0.61951,-26.62854,27.19421,-10.56814
0.29456,0.58964,0.00333,-2.66810,-2.17816,1.05401,-5.08755,2.85949,-4.52840,4.22657,28.75729,5.68314,0.60369,-0.18735,0.39494,0.66669,-9.72228,72.47217,-4.46679
0.27373,0.59409,0.02039,-2.56058,-1.74440,1.11583,-5.37300,4.90288,-4.18264,7.72647,26.91217,1.48424,0.60717,-0.12825,0.32425,0.71397,13.47971,120.95270,-22.00223
0.24802,0.59518,0.03496,-2.42738,-1.37880,1.10537,-5.17464,7.02995,-4.09016,10.27169,26.61994,-3.34298,0.61582,-0.06792,0.23374,0.74935,38.16124,136.56360,-57.39021
0.22464,0.60093,0.04444,-2.28452,-1.01684,1.02362,-4.57105,9.00191,-4.44962,10.02941,25.60293,-8.37214,0.62400,-0.01441,0.12308,0.77153,46.98825,114.63420,-88.76283
0.20158,0.60951,0.04886,-2.16150,-0.69073,0.88331,-3.78470,10.22137,-5.21132,8.94340,21.70101,-12.01541,0.62385,0.01978,0.00847,0.78125,26.16251,68.55813,-108.92210
0.17817,0.61854,0.04839,-2.06850,-0.42389,0.70173,-2.90620,10.34076,-6.09645,7.02246,16.82885,-14.39919,0.61786,0.02744,-0.09195,0.78041,3.73554,-2.97413,-94.33327
0.15451,0.62644,0.04442,-1.99455,-0.22623,0.50572,-1.99767,9.35214,-6.65387,6.52197,11.55983,-14.70169,0.61361,0.01216,-0.16333,0.77244,-8.30546,-71.69172,-63.32489
0.13208,0.63277,0.03875,-1.92031,-0.09129,0.32653,-1.32863,7.19577,-6.35831,7.69262,6.34099,-12.03950,0.61382,-0.01982,-0.18427,0.76739,-11.14109,-142.04640,-1.65590
0.11284,0.63703,0.03355,-1.81510,-0.01248,0.19084,-1.13795,4.41544,-4.84436,9.53874,2.77457,-8.00383,0.61495,-0.04955,-0.14750,0.77306,-20.79975,-190.23580,102.47220
0.09907,0.63920,0.02928,-1.64777,0.02114,0.09351,-1.05675,1.86119,-2.60283,10.67588,1.52829,-3.25809,0.61823,-0.06510,-0.07686,0.77952,-5.28725,-164.49340,161.20070
0.08666,0.64014,0.02804,-1.49718,0.03071,0.05782,-1.02565,0.99379,-1.49736,11.97637,1.39656,-1.05766,0.61563,-0.06534,-0.04990,0.78374,1.63929,-99.82327,119.02140
0.07894,0.64094,0.02759,-1.31212,0.03653,0.04127,-0.71422,1.00227,-1.13272,12.50949,1.37256,0.78337,0.61869,-0.05843,-0.05225,0.78172,21.54418,-15.83002,45.14504
0.07362,0.64236,0.02853,-1.12898,0.04982,0.04722,-0.40415,1.52730,-1.32555,12.68556,1.66742,1.11183,0.62112,-0.04809,-0.07971,0.77817,24.38584,31.02467,-9.47288
0.07043,0.64498,0.03041,-0.95265,0.07758,0.06446,-0.26868,2.00195,-1.62997,12.76881,2.16465,1.21861,0.61937,-0.03948,-0.11250,0.77600,16.94117,37.23859,-28.16687
0.06940,0.64909,0.03269,-0.78045,0.12101,0.08404,-0.45969,2.07208,-1.56292,12.80211,2.75845,1.03984,0.61067,-0.03280,-0.12958,0.78053,-6.45019,14.40933,-4.40876
0.07223,0.65441,0.03524,-0.58368,0.17334,0.10359,-0.94421,1.76751,-0.96391,12.64043,2.46957,0.86192,0.59529,-0.02493,-0.12377,0.79353,-26.23880,-12.91754,36.37994
0.07436,0.65884,0.03737,-0.43726,0.20159,0.11216,-1.29953,1.47356,-0.30749,12.03196,1.84935,0.38205,0.58083,-0.01472,-0.11173,0.80618,-26.90659,-19.13833,58.29871
0.07993,0.66276,0.03884,-0.27364,0.21661,0.10941,-1.48558,1.28388,0.28810,11.24306,1.00826,-0.27960,0.56845,-0.00164,-0.09824,0.81683,-14.99777,-14.32107,53.28989
0.08834,0.66589,0.03923,-0.09942,0.21723,0.09099,-1.40227,1.32285,0.66208,10.06015,0.11407,-2.14706,0.56145,0.01499,-0.09222,0.82222,5.68039,5.94783,24.72899
0.09594,0.66873,0.03862,0.02940,0.21307,0.06046,-1.22350,1.33099,0.82239,8.37587,-0.17362,-2.57954,0.55747,0.02832,-0.08961,0.82486,12.57180,3.24112,13.52668
0.10301,0.67147,0.03748,0.12333,0.20855,0.02954,-1.01788,1.29558,0.83582,7.39537,-0.22473,-2.95804,0.55546,0.03831,-0.08933,0.82584,16.65187,0.97330,1.82619
0.11241,0.67440,0.03504,0.23166,0.20749,-0.01381,-0.79863,1.09013,0.88708,6.36713,-0.01124,-2.82153,0.55566,0.04437,-0.08434,0.82593,16.17917,-9.88589,2.55017
0.12180,0.67752,0.03266,0.31888,0.20880,-0.04831,-0.66653,0.81017,1.04884,6.47506,-0.14149,-2.49845,0.55476,0.04933,-0.07380,0.82726,11.84219,-17.29862,6.15955
0.13089,0.68089,0.03045,0.38330,0.21412,-0.07189,-0.62705,0.56350,1.37528,6.79754,0.36680,-2.42455,0.55171,0.05726,-0.05677,0.83013,10.57648,-20.72405,22.10933
0.14490,0.68556,0.02700,0.50356,0.23568,-0.10913,-0.63436,0.27075,2.13679,6.63861,1.15547,-1.80097,0.54645,0.07214,-0.02317,0.83406,2.70367,-17.76559,45.55438
0.15854,0.69009,0.02414,0.59689,0.25158,-0.13160,-0.63852,0.29461,2.48923,6.07094,1.72370,-1.47009,0.54046,0.08914,-0.00227,0.83663,0.31348,-2.50198,34.07959
0.17059,0.69439,0.02141,0.64785,0.26133,-0.14573,-0.60619,0.47724,2.44437,5.66204,1.96806,-1.50998,0.53582,0.10473,0.00582,0.83779,-0.44420,9.48016,15.53505
0.18728,0.69956,0.01758,0.74981,0.28000,-0.17338,-0.54720,1.26202,1.63400,4.90244,1.09127,-0.96580,0.53329,0.12418,-0.02183,0.83648,-5.02801,41.88311,-44.68383
0.20373,0.70464,0.01430,0.83338,0.29388,-0.19128,-0.59306,1.94802,0.84209,4.62910,0.15970,-1.43028,0.52809,0.14188,-0.05379,0.83552,-11.90656,38.72722,-50.73503
0.21873,0.70945,0.01085,0.88093,0.30249,-0.20530,-0.61591,2.17182,0.71851,3.99562,0.37716,-1.65145,0.52217,0.16003,-0.06451,0.83520,-6.91121,24.02422,-21.33698
0.23416,0.71460,0.00655,0.92662,0.31621,-0.22627,-0.66019,2.24237,0.88192,3.12902,0.87946,-1.81893,0.51458,0.17992,-0.06582,0.83576,-2.65926,8.33146,6.65409
0.24970,0.72030,0.00145,0.96567,0.33537,-0.25510,-0.67439,2.18395,1.22164,2.04106,1.25856,-2.10888,0.50667,0.20026,-0.05890,0.83649,1.50334,-1.90156,21.40938
0.26473,0.72619,-0.00408,0.98857,0.35339,-0.28450,-0.63774,2.11372,1.50726,1.23385,1.41185,-2.28464,0.49975,0.22018,-0.05097,0.83617,5.75818,-3.76947,21.28486
0.27935,0.73252,-0.01039,1.00119,0.37445,-0.31955,-0.56238,2.07713,1.68302,0.32254,1.90595,-2.75506,0.49406,0.23965,-0.04443,0.83456,7.83389,-2.76111,15.11434
0.29342,0.73919,-0.01715,1.00347,0.39598,-0.35360,-0.53703,2.12523,1.62954,-0.34394,2.14691,-2.67716,0.48824,0.25774,-0.04485,0.83257,4.82324,2.05559,2.43614
0.29344,0.73942,-0.01752,-0.01632,0.02480,-0.05017,-0.57911,2.26957,1.31017,-0.78153,1.82210,-2.58030,0.48216,0.27395,-0.05547,0.83030,-5.72310,7.82712,-18.39050
0.29344,0.73942,-0.01752,-0.01406,0.01892,-0.05323,-0.63407,2.40883,1.02384,-0.87026,1.84042,-2.64711,0.47574,0.29007,-0.06763,0.82762,-7.87902,8.46719,-21.88341
0.29344,0.73942,-0.01752,-0.01373,0.01530,-0.05566,-0.68432,2.51864,0.86136,-1.04073,1.95469,-2.96475,0.46850,0.30708,-0.07799,0.82470,-8.03298,7.48161,-14.69822
0.29344,0.73942,-0.01752,-0.01705,0.01602,-0.05554,-0.66918,2.54650,0.93976,-1.23087,1.98883,-2.91326,0.46116,0.32600,-0.08095,0.82128,-0.73739,3.99330,0.27526
0.29344,0.73942,-0.01752,-0.02245,0.01966,-0.05329,-0.58834,2.51470,1.17568,-1.67401,2.09789,-2.58942,0.45406,0.34634,-0.07726,0.81726,7.83495,0.07317,14.36578
0.29344,0.73942,-0.01752,-0.02917,0.02438,-0.04937,-0.44903,2.45567,1.47806,-2.49342,2.34104,-2.37811,0.44782,0.36762,-0.06871,0.81215,14.17518,-2.50822,20.99059
0.38102,0.80024,-0.07519,0.87059,0.60410,-0.61569,-0.31909,2.44310,1.67153,-2.71720,2.44860,-1.99111,0.44311,0.37496,-0.07240,0.81106,9.52182,-1.64049,14.83576
0.39088,0.81039,-0.08537,0.83777,0.62936,-0.63904,-0.31893,2.44174,1.71725,-2.97575,2.07449,-1.79855,0.43511,0.39434,-0.06996,0.80640,1.50528,-0.49917,6.74851
0.39998,0.82073,-0.09582,0.80187,0.65185,-0.66120,-0.33704,2.48689,1.69047,-3.31131,2.00037,-1.74646,0.42697,0.41377,-0.07024,0.80097,0.26902,1.74234,0.72263
0.40890,0.82630,-0.10527,0.74118,0.68569,-0.67183,-0.56469,2.61651,1.44025,-3.89676,1.69362,-1.12072,0.42470,0.43300,-0.07703,0.79134,-15.21947,7.16829,-13.02657
0.41562,0.83712,-0.11550,0.68801,0.70443,-0.68465,-0.84924,2.72700,1.09334,-3.90939,1.20282,-0.69469,0.41186,0.44822,-0.09326,0.78789,-25.69979,6.13339,-21.94218
0.42241,0.84782,-0.12537,0.64822,0.71720,-0.68940,-1.02581,2.73576,0.93093,-3.93637,1.17148,-0.61323,0.39904,0.46288,-0.10478,0.78456,-24.01638,1.98948,-17.56793
0.42647,0.85962,-0.13541,0.57534,0.74281,-0.69804,-1.23071,2.68863,0.88924,-4.05280,1.24252,-0.84272,0.38352,0.47707,-0.11431,0.78246,-13.09039,-3.71728,-1.27619
0.43048,0.87144,-0.14541,0.51173,0.76363,-0.70598,-1.27450,2.62638,1.02976,-4.11135,0.98803,-0.73929,0.36922,0.49351,-0.11728,0.77870,-2.51612,-3.19207,8.85948
0.43408,0.88288,-0.15553,0.45567,0.77494,-0.71255,-1.25797,2.57339,1.16398,-4.27797,0.54655,-0.59262,0.35560,0.50997,-0.11872,0.77420,2.51580,-2.77810,9.95973
0.43716,0.89399,-0.16603,0.40525,0.77903,-0.72026,-1.26780,2.54526,1.21591,-4.50692,0.22311,-0.52982,0.34151,0.52543,-0.12173,0.76972,2.50814,-2.31661,6.82538
0.43870,0.90476,-0.17679,0.34318,0.77687,-0.72993,-1.35837,2.52270,1.17849,-4.72822,-0.40080,-0.56461,0.32622,0.53928,-0.12808,0.76574,-4.99659,-2.02513,0.77539
0.43873,0.91484,-0.18755,0.27151,0.76515,-0.73789,-1.47388,2.49503,1.06766,-4.45989,-0.95994,-0.32157,0.31104,0.55148,-0.13714,0.76179,-8.12630,-2.99625,-5.43909
0.43894,0.92455,-0.19849,0.21878,0.75172,-0.74391,-1.56349,2.46421,0.98703,-4.37283,-1.25719,-0.30642,0.29545,0.56324,-0.14580,0.75777,-7.98583,-3.64662,-4.53853
0.43838,0.93382,-0.20951,0.16711,0.73480,-0.74988,-1.60827,2.42984,0.93076,-4.18260,-1.65376,-0.43206,0.28033,0.57468,-0.15375,0.75334,-7.28753,-3.79733,-4.65996
0.43614,0.94223,-0.22058,0.10191,0.70919,-0.75586,-1.49504,2.37700,0.97536,-3.80787,-1.84204,-0.24996,0.26766,0.58702,-0.15638,0.74787,5.42611,-2.89410,0.36171
0.43354,0.95009,-0.23163,0.04790,0.68274,-0.75846,-1.28235,2.31746,1.06519,-3.58112,-2.00788,0.14797,0.25698,0.60002,-0.15487,0.74159,15.60798,-2.24984,5.43482
0.43009,0.95692,-0.24240,-0.00794,0.64576,-0.75614,-1.04080,2.25827,1.09992,-3.21551,-2.34140,0.59271,0.24861,0.61259,-0.15274,0.73457,16.49348,-2.77908,0.59797
0.42697,0.96343,-0.25258,-0.05067,0.61014,-0.74857,-0.92333,2.20684,1.03944,-2.86080,-2.45795,0.89239,0.24031,0.62367,-0.15419,0.72767,10.85333,-3.18131,-3.88616
0.42330,0.96910,-0.26278,-0.08928,0.57183,-0.73967,-0.91810,2.16888,0.90104,-2.43704,-2.56472,0.99979,0.23115,0.63339,-0.15949,0.72107,1.54798,-3.59606,-8.27353
0.41975,0.97461,-0.27279,-0.11881,0.53892,-0.73161,-1.00511,2.14326,0.74169,-2.26582,-2.51048,0.98050,0.22071,0.64212,-0.16788,0.71469,-6.39040,-3.23529,-10.81661
0.41528,0.97918,-0.28225,-0.15610,0.49949,-0.71750,-1.19549,2.08251,0.55762,-2.12489,-2.27032,1.17317,0.20869,0.64854,-0.17979,0.70959,-12.77588,-4.39606,-9.91947
0.41062,0.98373,-0.29154,-0.18714,0.46811,-0.70188,-1.32834,2.00780,0.44606,-1.83920,-2.12896,1.34580,0.19637,0.65460,-0.19022,0.70481,-12.96643,-6.60861,-7.03429
0.40607,0.98847,-0.30035,-0.21123,0.44606,-0.68430,-1.27950,1.92172,0.44816,-1.64247,-1.79222,1.56841,0.18628,0.66152,-0.19503,0.69976,-2.28772,-6.54106,-2.55016
0.40115,0.99300,-0.30839,-0.23643,0.42504,-0.66056,-1.07553,1.83217,0.52687,-1.56407,-1.47299,1.74757,0.17897,0.66944,-0.19414,0.69436,13.30056,-6.59148,3.77689
0.39580,0.99722,-0.31623,-0.26080,0.40443,-0.63692,-0.82607,1.74947,0.61706,-1.44758,-1.43886,1.88987,0.17308,0.67782,-0.19046,0.68872,19.28609,-4.32801,4.80360
0.39064,1.00119,-0.32381,-0.27845,0.38438,-0.61597,-0.64552,1.68630,0.65431,-1.18012,-1.64090,1.99182,0.16758,0.68578,-0.18790,0.68287,17.46456,-4.09599,2.50184
0.38508,1.00386,-0.33031,-0.29819,0.34974,-0.58280,-0.47413,1.58977,0.62301,-0.82185,-1.90014,2.04854,0.16435,0.69236,-0.18589,0.67755,10.62692,-5.36498,-2.38573
0.37989,1.00648,-0.33689,-0.30889,0.32097,-0.55646,-0.42802,1.50867,0.56032,-0.39476,-1.91236,2.12277,0.15965,0.69800,-0.18687,0.67260,3.94147,-4.92426,-4.32062
0.37501,1.00909,-0.34323,-0.31336,0.29721,-0.53258,-0.38718,1.44353,0.51708,-0.00802,-1.91602,2.08688,0.15490,0.70366,-0.18761,0.66758,2.31333,-5.87992,-4.04866
0.37043,1.01136,-0.34882,-0.31382,0.27365,-0.50434,-0.22346,1.39761,0.49356,0.22236,-1.55643,1.94991,0.15321,0.71021,-0.18512,0.66171,8.83982,-3.82192,-3.60655
