posX, posY, posZ, velX, velY, velZ, angVelX, angVelY, angVelZ, accX, accY, accZ, rotX, rotY, rotZ, rotW, angAccX, angAccY, angAccZ
0.28029,1.16331,-0.46970,-0.11580,0.38988,-0.25036,2.01799,0.47645,-0.29466,-1.42361,4.63656,-1.15875,0.03189,0.84339,-0.13245,0.51975,27.33075,3.57461,-4.14553
0.27761,1.17244,-0.47447,-0.13571,0.45309,-0.27012,2.09572,0.36735,-0.23860,-1.67062,4.98466,-1.33931,0.04096,0.84542,-0.11878,0.51912,10.20747,-6.31536,1.82571
0.27427,1.18281,-0.47968,-0.16150,0.52148,-0.29259,2.21274,0.27014,-0.26034,-1.78903,5.17074,-2.49543,0.05247,0.84702,-0.10481,0.51848,2.19575,-12.72113,-2.24171
0.26984,1.19538,-0.48585,-0.19983,0.61203,-0.32667,2.69853,0.47111,-0.21343,-2.60072,5.72290,-2.29693,0.06715,0.85377,-0.07972,0.51012,31.64199,11.47615,10.84615
0.26541,1.20815,-0.49192,-0.22896,0.68443,-0.35105,3.08793,0.62904,-0.24218,-2.49716,6.40696,-1.72922,0.08394,0.85972,-0.05525,0.50078,33.06957,14.01119,-3.58847
0.26002,1.22307,-0.49808,-0.26619,0.77398,-0.37091,3.46644,0.72617,-0.22729,-2.92059,6.71721,-1.00579,0.10110,0.86460,-0.02798,0.49140,27.76155,7.76157,0.93467
0.25382,1.23960,-0.50383,-0.30943,0.87023,-0.37975,3.83613,0.79083,-0.17040,-3.43477,7.17408,-0.16509,0.11819,0.86840,0.00206,0.48157,26.54230,4.20447,3.06504
0.24657,1.25759,-0.50923,-0.35981,0.96791,-0.38079,4.10789,0.81298,-0.07054,-3.75751,7.09084,0.03046,0.13358,0.87081,0.03278,0.47199,24.19433,0.04385,5.61441
0.23842,1.27670,-0.51478,-0.41254,1.06108,-0.38420,4.20497,0.86675,0.02112,-3.96568,6.50880,-0.26074,0.14660,0.87292,0.06056,0.46135,9.37339,0.41629,7.20188
0.22935,1.29660,-0.52038,-0.46935,1.14746,-0.38687,4.27913,0.98547,0.07381,-4.28297,6.06621,-0.21598,0.15986,0.87520,0.08764,0.44810,4.82349,5.67617,5.74026
0.21910,1.31743,-0.52583,-0.53205,1.22867,-0.38620,4.38701,1.19586,0.13009,-4.67984,5.64911,0.25693,0.17334,0.87805,0.11577,0.43079,8.17530,12.63945,6.87359
0.20786,1.33892,-0.53077,-0.59636,1.30191,-0.37787,4.48431,1.39664,0.22266,-4.65170,4.81708,0.99230,0.18556,0.88042,0.14458,0.41174,7.92432,12.56625,10.26007
0.19595,1.36058,-0.53503,-0.65855,1.36255,-0.35963,4.57728,1.58967,0.26921,-4.56593,3.94517,1.67798,0.19862,0.88189,0.17306,0.39099,6.51311,12.21889,7.22498
0.18368,1.38212,-0.53873,-0.71081,1.40586,-0.33685,4.65505,1.73655,0.30242,-4.36788,3.39674,2.25852,0.21167,0.88204,0.20143,0.36963,7.63867,11.84423,5.95912
0.16919,1.40477,-0.54059,-0.78725,1.45734,-0.28933,4.66136,1.86992,0.35795,-4.32698,2.34348,3.27086,0.22316,0.88168,0.22838,0.34741,1.55374,7.04742,5.13155
0.15483,1.42646,-0.54201,-0.84573,1.48284,-0.24435,4.53856,1.86711,0.42307,-4.13109,1.44941,3.49911,0.23199,0.88006,0.25251,0.32852,-6.08037,0.03839,4.84164
0.14018,1.44777,-0.54303,-0.89438,1.49563,-0.20393,4.41659,1.87010,0.48095,-4.11104,0.72742,3.30310,0.24003,0.87791,0.27558,0.30938,-10.67069,-3.75953,5.74492
0.12448,1.46871,-0.54293,-0.94874,1.49933,-0.15501,4.35710,1.93536,0.55113,-3.74285,-0.17712,3.61200,0.24786,0.87539,0.29913,0.28772,-4.21549,2.62036,6.66975
0.10826,1.48877,-0.54184,-1.00202,1.48969,-0.09843,4.25781,1.95443,0.61839,-3.15316,-1.06167,3.66623,0.25448,0.87225,0.32127,0.26686,-5.63977,1.27722,5.46340
0.09225,1.50806,-0.54059,-1.03901,1.46819,-0.05168,4.10703,2.02274,0.63345,-2.20716,-1.82143,3.03970,0.26155,0.86911,0.34069,0.24530,-4.15514,-3.59516,3.15380
0.07648,1.52678,-0.53868,-1.06133,1.43951,-0.00784,3.91770,2.16588,0.61593,-1.41083,-2.62374,3.26809,0.26928,0.86668,0.35667,0.22167,-16.18304,12.97339,5.34486
0.06090,1.54427,-0.53609,-1.07535,1.39709,0.03702,3.73212,2.22809,0.53004,-0.65277,-3.51717,3.28504,0.27812,0.86305,0.37110,0.20021,-13.96903,5.01008,-1.28057
0.04576,1.56059,-0.53283,-1.07848,1.34510,0.08272,3.60223,2.29438,0.37628,-0.08328,-4.07851,3.22239,0.28942,0.85803,0.38472,0.17891,-12.10814,5.52049,-7.44352
0.03098,1.57559,-0.52903,-1.07598,1.28524,0.12876,3.49432,2.34927,0.20920,0.30824,-4.44133,3.44233,0.30185,0.85203,0.39748,0.15793,-9.48522,7.43721,-8.96675
0.01640,1.58955,-0.52460,-1.07096,1.22227,0.17496,3.45659,2.43363,0.06345,0.28127,-4.47065,3.01426,0.31520,0.84479,0.41056,0.13569,-6.95465,5.50987,-9.10325
0.00189,1.60271,-0.51977,-1.06485,1.15943,0.21643,3.39936,2.56161,-0.03039,0.71189,-4.51192,3.08282,0.32843,0.83748,0.42226,0.11161,-2.25811,12.90430,-5.48430
-0.01229,1.61513,-0.51455,-1.05524,1.09905,0.25430,3.23444,2.59559,-0.09696,0.79790,-4.23498,2.70442,0.33998,0.83085,0.43121,0.09034,-11.66476,4.49556,-2.67210
-0.02641,1.62687,-0.50901,-1.04659,1.04088,0.28877,3.00694,2.57889,-0.09334,0.61781,-4.20262,2.52418,0.34910,0.82535,0.43814,0.07043,-13.54573,0.81020,1.23074
-0.04053,1.63799,-0.50328,-1.03947,0.98555,0.31750,2.66156,2.47700,-0.04376,0.55709,-3.93868,1.92221,0.35523,0.82205,0.44174,0.05401,-23.45936,-8.27291,5.78378
-0.05445,1.64801,-0.49702,-1.03004,0.92290,0.34723,2.35875,2.43068,0.00891,0.56218,-3.86636,1.63163,0.36124,0.81915,0.44399,0.03698,-20.53599,-4.75800,5.55251
-0.06817,1.65761,-0.49078,-1.01947,0.86727,0.37013,2.15188,2.43838,0.03223,0.82287,-4.10701,1.58289,0.36825,0.81539,0.44630,0.01870,-13.60877,0.42821,4.97013
-0.08157,1.66630,-0.48439,-1.00631,0.81013,0.39080,1.94046,2.42117,0.03962,1.03756,-4.12512,1.46622,0.37506,0.81191,0.44735,0.00171,-15.33862,-1.87194,3.00169
-0.09447,1.67400,-0.47767,-0.98915,0.75149,0.41220,1.76222,2.40113,0.02191,1.30898,-4.24173,1.53906,0.38228,0.80813,0.44786,-0.01463,-12.88581,-1.09885,1.39777
-0.10709,1.68136,-0.47080,-0.97112,0.70143,0.43103,1.61164,2.37966,-0.00095,1.64931,-4.04402,1.65330,0.38956,0.80418,0.44790,-0.03048,-12.63171,-1.40135,-0.18251
-0.11876,1.68733,-0.46336,-0.94076,0.63944,0.45648,1.40254,2.33855,-0.00236,2.18483,-3.83227,1.66446,0.39603,0.80146,0.44587,-0.04486,-12.42945,-2.85155,1.68802
-0.13018,1.69348,-0.45603,-0.91294,0.59469,0.47569,1.18214,2.24824,-0.00086,2.61901,-3.88808,1.88111,0.40169,0.79946,0.44298,-0.05716,-15.47608,-3.84922,1.57220
-0.14104,1.69898,-0.44828,-0.88309,0.55073,0.49671,0.85299,2.04228,0.01771,2.65265,-3.71217,2.00424,0.40515,0.80011,0.43765,-0.06425,-23.76868,-13.71016,3.73808
-0.15059,1.70272,-0.43933,-0.83796,0.48672,0.53201,0.51151,1.78917,0.03363,2.08123,-3.16866,1.74211,0.40732,0.80221,0.43124,-0.06777,-23.06395,-17.73130,4.15370
-0.16060,1.70710,-0.43058,-0.81036,0.44706,0.55554,0.66071,1.93259,-0.00468,2.01089,-2.58317,1.45626,0.41473,0.79714,0.43073,-0.08386,-0.29544,1.79426,-2.85042
-0.17004,1.71122,-0.42183,-0.78058,0.41319,0.57291,0.90494,2.21419,-0.04898,2.60926,-2.99674,1.26806,0.42445,0.78911,0.43120,-0.10588,22.39718,22.47281,-5.38070
-0.17790,1.71379,-0.41268,-0.73134,0.36077,0.59229,1.03669,2.43282,-0.12096,3.18384,-3.28105,1.23924,0.43499,0.78084,0.43009,-0.12683,8.75997,15.27476,-5.42172
-0.18599,1.71660,-0.40367,-0.69661,0.32370,0.60446,0.90965,2.36691,-0.12262,3.24640,-3.44012,1.17940,0.44156,0.77703,0.42630,-0.13974,-4.54134,0.35337,-0.65439
-0.19313,1.71840,-0.39429,-0.65509,0.27925,0.61978,0.63270,2.12309,-0.08279,3.07964,-3.28441,1.22517,0.44518,0.77690,0.42057,-0.14613,-18.74026,-15.06142,3.85044
-0.19916,1.71890,-0.38434,-0.60317,0.22134,0.64133,0.28356,1.71604,0.01846,2.88972,-3.26303,1.09965,0.44502,0.78016,0.41445,-0.14679,-18.03652,-23.13272,7.24188
-0.20556,1.71982,-0.37463,-0.56920,0.18358,0.65425,0.14669,1.52028,0.05875,2.38730,-2.73019,0.85062,0.44672,0.78074,0.40989,-0.15125,-17.50558,-21.85204,6.44891
-0.21131,1.72015,-0.36479,-0.53282,0.14592,0.66613,0.37187,1.68677,0.01021,1.94860,-1.81471,0.41227,0.45275,0.77474,0.40896,-0.16597,6.65406,1.99772,-2.89098
-0.21643,1.72015,-0.35501,-0.49289,0.11037,0.67346,0.79607,2.00658,-0.16478,2.92408,-3.22222,0.49661,0.46289,0.76240,0.41163,-0.18722,31.94189,26.71907,-7.24810
-0.22119,1.72004,-0.34554,-0.45639,0.08167,0.67450,0.79374,2.09748,-0.05965,3.22099,-2.07546,-0.05647,0.46728,0.75757,0.40795,-0.20324,5.80594,8.77817,-2.40561
-0.22547,1.71989,-0.33619,-0.42090,0.05932,0.67352,0.66266,1.96514,0.07862,3.13877,-2.42107,0.04382,0.46836,0.75633,0.40360,-0.21382,-7.25860,-4.22611,14.48789
-0.22866,1.71841,-0.32674,-0.37597,0.02021,0.67432,0.37187,1.61990,0.20018,3.00012,-2.54728,-0.00672,0.46727,0.75911,0.39820,-0.21645,-16.68823,-21.08474,8.87327
-0.23183,1.71690,-0.31738,-0.34093,-0.01027,0.67326,0.17403,1.36815,0.25989,2.73118,-2.47231,-0.18271,0.46693,0.76109,0.39330,-0.21917,-17.13820,-23.72022,7.98455
-0.23420,1.71467,-0.30808,-0.30136,-0.04505,0.67171,0.13680,1.26556,0.23374,2.36355,-1.94698,-0.23006,0.46854,0.76026,0.39006,-0.22435,-8.76765,-13.66520,1.30377
-0.23647,1.71245,-0.29884,-0.26967,-0.07104,0.66901,0.28949,1.38231,0.13527,2.29517,-1.86313,-0.41260,0.47319,0.75461,0.38873,-0.23567,8.56811,4.23919,-7.37200
-0.23792,1.70961,-0.28994,-0.23174,-0.10124,0.66100,0.50838,1.59211,0.02237,2.51610,-2.01756,-0.60340,0.47940,0.74603,0.38821,-0.25083,14.86600,15.22026,-9.06405
-0.23923,1.70664,-0.28121,-0.20009,-0.12711,0.65246,0.54635,1.61244,-0.02767,2.45286,-2.06658,-0.57827,0.48382,0.74051,0.38637,-0.26132,5.10338,5.35054,-4.99403
-0.24048,1.70353,-0.27251,-0.17561,-0.14886,0.64504,0.48933,1.50365,-0.03075,2.04905,-1.85818,-0.71012,0.48654,0.73746,0.38414,-0.26809,-2.49418,-5.60742,-1.55992
-0.24139,1.70007,-0.26411,-0.15182,-0.17086,0.63463,0.36420,1.30943,0.01352,1.56752,-1.39153,-0.79627,0.48745,0.73702,0.38132,-0.27162,-8.93464,-13.29379,3.49035
-0.24214,1.69647,-0.25595,-0.13044,-0.19044,0.62257,0.32130,1.16927,0.05337,0.96834,-0.91693,-0.81617,0.48794,0.73594,0.37952,-0.27617,-4.13056,-11.07602,2.81466
-0.24277,1.69295,-0.24798,-0.11184,-0.20478,0.60947,0.42384,1.23158,-0.00495,0.89806,-0.56857,-0.79158,0.49122,0.73058,0.37881,-0.28540,3.94800,1.56523,-1.95729
-0.24352,1.68960,-0.23989,-0.09932,-0.21288,0.60177,0.59554,1.37581,-0.10524,0.92879,-0.43552,-0.60708,0.49605,0.72229,0.37914,-0.29748,12.02659,10.71315,-9.04015
-0.24324,1.68643,-0.23192,-0.08441,-0.21609,0.59229,0.76173,1.45403,-0.15105,0.96850,-0.19427,-0.68384,0.49952,0.71398,0.38041,-0.30983,12.54320,8.09252,-6.14492
-0.24246,1.68355,-0.22402,-0.07341,-0.21372,0.58266,0.74784,1.34125,-0.05102,0.61601,0.15786,-0.65426,0.49930,0.71077,0.38000,-0.31798,1.72799,-4.85719,4.12964
-0.24221,1.68085,-0.21619,-0.06739,-0.20875,0.57569,0.68449,1.20641,0.07799,0.44695,0.67178,-0.69511,0.49767,0.70955,0.37869,-0.32475,-3.63621,-13.26922,10.79171
-0.24238,1.67861,-0.20881,-0.05957,-0.19778,0.56466,0.64283,1.00578,0.28596,0.42614,0.56681,-0.55988,0.49245,0.71080,0.37801,-0.33071,-1.13629,-11.54881,12.15954
-0.24286,1.67624,-0.20136,-0.05374,-0.19123,0.55769,0.63598,0.87368,0.40408,0.39103,0.47127,-0.53201,0.48831,0.71077,0.37780,-0.33709,0.16213,-10.07823,8.56120
-0.24325,1.67395,-0.19397,-0.04757,-0.18494,0.55130,0.68858,0.80866,0.46944,0.31925,0.58490,-0.37982,0.48448,0.70940,0.37844,-0.34468,1.73971,-7.44894,5.94067
-0.24358,1.67170,-0.18661,-0.04192,-0.17936,0.54585,0.78713,0.76786,0.49995,0.43415,0.36571,-0.49515,0.48059,0.70688,0.38034,-0.35313,7.78658,-1.52147,1.18137
-0.24396,1.66959,-0.17945,-0.03844,-0.17285,0.53853,0.81288,0.65246,0.56153,0.35533,0.56946,-0.78479,0.47538,0.70629,0.38204,-0.35948,3.93594,-7.07193,3.28308
-0.24433,1.66771,-0.17281,-0.03572,-0.16425,0.52423,0.81503,0.49948,0.65426,0.15963,0.47526,-1.31252,0.46851,0.70723,0.38385,-0.36467,1.90226,-11.09710,5.84911
-0.24464,1.66581,-0.16698,-0.03272,-0.15785,0.49959,0.76417,0.33036,0.73519,0.23950,0.24890,-1.76446,0.46141,0.70939,0.38513,-0.36816,-2.09157,-10.84948,5.00375
-0.24488,1.66372,-0.16140,-0.02906,-0.15612,0.47659,0.70215,0.24057,0.74779,0.21014,0.02482,-2.02581,0.45604,0.71072,0.38580,-0.37157,-4.59716,-9.60678,2.69101
-0.24511,1.66156,-0.15657,-0.02617,-0.15586,0.44690,0.64270,0.21039,0.70764,-0.15465,0.09927,-2.10871,0.45232,0.71110,0.38618,-0.37498,-5.08011,-4.95393,-2.25244
-0.24558,1.65942,-0.15218,-0.02808,-0.15530,0.41694,0.63791,0.27311,0.66372,-0.28291,0.05421,-2.14825,0.44943,0.70981,0.38633,-0.38071,-0.86380,3.84346,-2.98778
-0.24623,1.65724,-0.14831,-0.03236,-0.15567,0.38469,0.63658,0.34738,0.60965,-0.18474,-0.07571,-1.88730,0.44722,0.70787,0.38637,-0.38682,-0.15219,5.36724,-3.01606
-0.24691,1.65500,-0.14442,-0.03632,-0.15691,0.35993,0.63580,0.35954,0.55492,-0.27026,-0.04675,-1.78481,0.44473,0.70625,0.38720,-0.39180,0.08490,1.78762,-3.54125
-0.24782,1.65275,-0.14090,-0.04326,-0.15812,0.33481,0.63467,0.37855,0.52413,-0.63132,-0.13465,-1.86474,0.44213,0.70464,0.38776,-0.39705,-0.21598,0.92350,-3.30267
-0.24897,1.65051,-0.13786,-0.05244,-0.15862,0.30736,0.59576,0.37441,0.52787,-0.62609,-0.04604,-2.02167,0.43915,0.70401,0.38747,-0.40172,-1.82055,0.66274,-0.32905
-0.25030,1.64830,-0.13521,-0.06252,-0.15871,0.27986,0.54858,0.33169,0.54793,-0.76348,-0.06300,-1.99454,0.43556,0.70427,0.38711,-0.40551,-3.78575,-2.92543,1.40672
-0.25189,1.64605,-0.13302,-0.07470,-0.15937,0.25113,0.45437,0.23612,0.60707,-0.91039,-0.13164,-2.10759,0.43100,0.70647,0.38586,-0.40774,-5.22277,-5.62956,3.32234
-0.25386,1.64380,-0.13120,-0.09049,-0.15990,0.22297,0.36265,0.12511,0.69311,-1.32836,0.02112,-2.01580,0.42535,0.70989,0.38419,-0.40932,-6.72844,-9.43515,5.99305
-0.25610,1.64161,-0.12976,-0.10700,-0.15933,0.19506,0.32592,0.11454,0.74174,-1.32543,0.16701,-1.90825,0.42047,0.71183,0.38240,-0.41264,-4.23369,-3.98571,4.64967
-0.25846,1.63936,-0.12862,-0.12154,-0.15988,0.16862,0.33307,0.19478,0.74009,-0.93695,-0.08297,-1.85146,0.41700,0.71175,0.38064,-0.41790,-0.08748,5.66576,1.18018
-0.26065,1.63705,-0.12757,-0.12955,-0.16125,0.14716,0.34563,0.27300,0.70970,-0.39022,-0.09294,-1.68535,0.41426,0.71096,0.37918,-0.42327,0.28266,5.85242,-1.18161
-0.26239,1.63453,-0.12686,-0.12829,-0.16584,0.12523,0.39032,0.33933,0.59369,0.65821,-0.41437,-1.12326,0.41317,0.70843,0.37950,-0.42825,3.09865,6.97966,-6.44039
-0.26370,1.63194,-0.12589,-0.12025,-0.17068,0.11244,0.37908,0.18064,0.50924,0.82974,-0.45997,-0.95451,0.41016,0.70909,0.38151,-0.42827,1.08373,-6.82799,-7.32665
-0.26500,1.62939,-0.12499,-0.11422,-0.17344,0.10134,0.32750,-0.03755,0.46913,0.35926,-0.10945,-1.00108,0.40599,0.71187,0.38356,-0.42579,-3.25828,-18.03134,-3.98031
-0.26647,1.62716,-0.12472,-0.11236,-0.17014,0.08261,0.28185,-0.19982,0.43713,-0.29170,0.49682,-1.28161,0.40195,0.71468,0.38541,-0.42324,-3.02114,-11.98032,-2.52064
-0.26826,1.62536,-0.12475,-0.11624,-0.16049,0.06286,0.25927,-0.19852,0.41958,-0.50056,0.95305,-1.38302,0.39906,0.71580,0.38582,-0.42370,-2.12326,-2.74218,-1.25196
-0.27014,1.62399,-0.12507,-0.12048,-0.14612,0.04284,0.26119,-0.10224,0.39418,-0.24070,1.11741,-1.43430,0.39731,0.71531,0.38562,-0.42637,0.30945,6.75549,-1.80330
-0.27187,1.62305,-0.12570,-0.12128,-0.12762,0.02211,0.23732,-0.02641,0.36742,0.23328,1.17173,-1.11066,0.39601,0.71500,0.38496,-0.42867,-1.50948,4.92211,-1.26018
-0.27311,1.62216,-0.12609,-0.11333,-0.11233,0.01031,0.24110,0.02122,0.30498,1.01029,1.01514,-0.62463,0.39519,0.71410,0.38538,-0.43055,-0.27082,4.70943,-3.60605
-0.27378,1.62134,-0.12616,-0.09817,-0.09976,0.00686,0.22709,-0.10076,0.23236,1.46499,0.85746,-0.05883,0.39336,0.71500,0.38762,-0.42871,-0.13340,-4.74163,-5.16264
-0.27378,1.62079,-0.12587,-0.07867,-0.08720,0.01031,0.23803,-0.27487,0.15411,1.31072,1.00022,0.50778,0.39080,0.71645,0.39152,-0.42507,-0.56699,-12.88691,-5.73387
-0.27126,1.62438,-0.12536,-0.00967,-0.00558,0.00431,0.28443,-0.43199,0.07928,1.00100,1.13539,0.52974,0.38776,0.71758,0.39673,-0.42110,3.55364,-11.62329,-5.85825
-0.27237,1.62375,-0.12407,-0.01111,-0.00724,0.00495,0.33844,-0.50500,0.02118,0.71013,1.55968,0.36917,0.38497,0.71794,0.40180,-0.41823,3.21885,-8.81723,-3.73214
-0.27308,1.62304,-0.12290,-0.00939,-0.00958,0.00455,0.41730,-0.43541,-0.05574,1.06121,1.62388,0.32138,0.38391,0.71576,0.40672,-0.41819,5.77485,2.46025,-5.25808
-0.27380,1.62212,-0.12132,-0.00842,-0.01248,0.00443,0.50938,-0.40400,-0.16978,1.74958,1.59704,0.41829,0.38339,0.71279,0.41313,-0.41745,6.34958,4.47991,-6.73380
-0.27429,1.62133,-0.11982,-0.01002,-0.01428,0.00501,0.56600,-0.48200,-0.24207,2.00913,1.36690,0.38437,0.38145,0.71147,0.42017,-0.41445,4.62447,-4.22070,-5.37491
-0.27456,1.62051,-0.11861,-0.01291,-0.01550,0.00589,0.59121,-0.61912,-0.33317,2.36753,1.16178,0.37910,0.37951,0.71086,0.42818,-0.40905,2.89308,-9.11903,-6.19856
-0.27403,1.61960,-0.11728,-0.01588,-0.01693,0.00667,0.61426,-0.76003,-0.46670,2.27098,0.97499,0.05289,0.37838,0.70974,0.43761,-0.40199,2.22952,-11.64450,-9.78511
-0.27299,1.61832,-0.11619,-0.02017,-0.01771,0.00758,0.60760,-0.95478,-0.61297,2.27871,1.00284,-0.08840,0.37736,0.70939,0.44777,-0.39226,0.53241,-9.90512,-10.06942
-0.27142,1.61732,-0.11510,-0.02311,-0.01800,0.00802,0.59916,-1.08252,-0.70292,1.84314,1.36181,-0.11292,0.37605,0.70905,0.45725,-0.38308,-2.00444,-13.72049,-8.28733
-0.26664,1.61622,-0.11063,-0.02439,-0.02034,0.00783,0.67427,-1.13198,-0.83929,2.16040,1.28885,-0.19002,0.37576,0.70601,0.46872,-0.37505,5.19191,-2.31921,-8.25611
-0.26138,1.61557,-0.10677,-0.02633,-0.02288,0.00765,0.75474,-1.20628,-1.00934,2.14175,1.28518,-0.34726,0.37595,0.70232,0.48147,-0.36550,4.53704,-4.76789,-10.45429
-0.25694,1.61500,-0.10326,-0.02868,-0.02381,0.00755,0.77619,-1.29658,-1.14129,2.24447,1.10232,-0.85378,0.37609,0.69929,0.49367,-0.35473,5.38357,-5.31603,-10.18015
-0.25081,1.61447,-0.09885,-0.03121,-0.02453,0.00720,0.78794,-1.38796,-1.31221,2.07070,1.32072,-0.68184,0.37732,0.69559,0.50664,-0.34220,-0.25820,-7.86402,-11.69574
-0.24243,1.61385,-0.09242,-0.02893,-0.02942,0.00561,0.98131,-1.25775,-1.53496,1.69391,1.53445,-0.19292,0.38104,0.68591,0.52203,-0.33439,10.20974,4.02335,-12.99357
-0.23530,1.61335,-0.08577,-0.02467,-0.03601,0.00382,1.25452,-1.04073,-1.70746,2.04017,1.15707,0.27211,0.38511,0.67279,0.53842,-0.33037,23.71375,17.56351,-11.61910
-0.22601,1.61315,-0.07568,-0.02594,-0.04171,0.00256,1.49927,-1.04698,-1.86139,1.74735,1.30826,0.41425,0.38663,0.66001,0.55745,-0.32274,22.21714,4.47649,-10.73469
-0.21621,1.61302,-0.06404,-0.03102,-0.04506,0.00155,1.66400,-1.21199,-1.93139,0.89309,1.93245,0.43948,0.38473,0.64945,0.57695,-0.31196,11.78805,-10.93651,-7.37109
-0.20438,1.61283,-0.04955,-0.03919,-0.04657,0.00024,1.77854,-1.50643,-1.89910,0.53567,2.56652,0.51503,0.37841,0.64119,0.59689,-0.29901,6.02579,-18.06543,0.04372
-0.19722,1.61229,-0.04003,-0.04549,-0.04675,-0.00077,1.82571,-1.74636,-1.85487,0.37455,2.65366,0.61436,0.37143,0.63370,0.61566,-0.28535,2.61365,-22.14462,1.76818
-0.18513,1.61141,-0.02386,-0.05767,-0.04508,-0.00275,1.81572,-2.20394,-1.94376,0.38838,1.47138,0.79489,0.36191,0.62762,0.63701,-0.26333,-4.91371,-28.76531,-2.43432
-0.17417,1.60987,-0.00893,-0.06785,-0.04244,-0.00536,1.78501,-2.62965,-1.77367,0.64540,2.35172,0.77699,0.34682,0.62422,0.65633,-0.24352,-0.91643,-27.87520,-8.23696
-0.16440,1.60800,0.00661,-0.07720,-0.03978,-0.00899,1.75389,-3.02399,-1.67954,0.38559,0.79152,0.76296,0.33026,0.62085,0.67552,-0.22170,-10.94238,-31.76643,11.11693
-0.15499,1.60527,0.02310,-0.08564,-0.03781,-0.01391,1.76559,-3.36581,-1.72176,0.73928,-0.07795,0.69690,0.31447,0.61473,0.69594,-0.19719,0.91934,-23.76207,-4.04831
-0.14573,1.60176,0.04056,-0.09332,-0.03436,-0.01966,1.73756,-3.67912,-1.81767,0.84266,-0.40541,0.51269,0.29864,0.60815,0.71565,-0.16976,-3.55058,-23.64646,-10.11766
-0.13736,1.59711,0.05769,-0.09739,-0.03163,-0.02619,1.76746,-3.84717,-1.92613,1.17791,-0.85196,0.16118,0.28412,0.59876,0.73497,-0.14345,1.55576,-13.94318,-9.43902
-0.13254,1.59083,0.07010,-0.09979,-0.02664,-0.03353,1.75325,-3.95486,-2.07579,1.59191,-1.50506,-0.52383,0.27104,0.58865,0.75276,-0.11572,1.74926,-5.90627,-8.97329
-0.13086,1.58519,0.07611,-0.09988,-0.02165,-0.03853,1.71088,-3.96935,-2.20449,1.74884,-1.70094,-0.63471,0.25951,0.57811,0.76852,-0.08847,-1.77449,-2.30805,-11.68370
-0.12519,1.57660,0.09036,-0.09613,-0.01711,-0.04449,1.76429,-3.83624,-2.33756,1.66623,-2.32056,-0.34077,0.25101,0.56435,0.78386,-0.06369,4.08212,6.45286,-8.31932
-0.12046,1.56778,0.10397,-0.08960,-0.01718,-0.04918,1.98857,-3.59538,-2.36690,1.64232,-3.00430,0.07593,0.24330,0.54617,0.80033,-0.04450,15.92024,14.15593,1.57179
-0.11710,1.55934,0.11592,-0.08337,-0.01890,-0.05289,2.26600,-3.35825,-2.37181,1.66650,-3.35484,0.40279,0.23600,0.52501,0.81727,-0.02738,23.02500,15.34361,7.13218
-0.11311,1.54822,0.13227,-0.07533,-0.02278,-0.05683,2.66525,-3.05374,-2.30919,1.46981,-3.39277,0.72601,0.22985,0.49907,0.83538,-0.01537,28.22494,15.65903,11.12541
-0.10925,1.53381,0.15337,-0.06788,-0.02663,-0.06152,3.07733,-2.80020,-2.18351,1.06999,-3.66604,1.03035,0.22265,0.47048,0.85384,-0.00624,28.81140,12.33321,17.50197
-0.10751,1.52199,0.16966,-0.06507,-0.02669,-0.06567,3.27591,-2.74481,-2.13067,-0.00828,-3.65434,1.22276,0.21298,0.44409,0.87027,0.00741,18.44585,4.21333,9.49643
-0.10642,1.50727,0.18991,-0.06641,-0.02183,-0.07230,3.35075,-2.90664,-2.20011,-1.36813,-3.70614,1.75005,0.19984,0.41821,0.88567,0.02738,8.98960,-7.00261,0.92517
-0.10588,1.49141,0.21319,-0.06973,-0.01362,-0.08032,3.34086,-3.20199,-2.35739,-2.98137,-2.51144,2.13906,0.18361,0.39269,0.89958,0.05332,-2.23331,-17.09406,-19.31308
-0.10744,1.47418,0.23688,-0.06944,-0.01050,-0.08979,3.47113,-3.48106,-2.27746,-3.78674,-2.26140,2.05499,0.16260,0.36409,0.91410,0.07363,4.37557,-21.61394,-1.84351
-0.11209,1.45574,0.26053,-0.06711,-0.00879,-0.10012,3.64822,-3.76140,-2.11505,-4.17123,-2.43220,1.59387,0.13812,0.33329,0.92817,0.09133,7.12511,-23.45423,8.00361
-0.11993,1.43626,0.28423,-0.06295,-0.00702,-0.11056,3.83058,-4.02761,-1.92552,-4.12998,-2.91827,0.85222,0.11128,0.30071,0.94110,0.10732,6.70759,-24.21542,10.72315
-0.13087,1.41572,0.30791,-0.05705,-0.00449,-0.12042,4.04728,-4.24101,-1.75906,-3.90380,-3.79307,-0.60129,0.08392,0.26522,0.95275,0.12202,8.90708,-21.10545,11.12486
-0.14430,1.39346,0.33063,-0.04945,-0.00084,-0.12880,4.31429,-4.36514,-1.62808,-3.53661,-4.51193,-2.09265,0.05787,0.22608,0.96292,0.13539,13.65074,-15.02738,10.39266
-0.16535,1.36596,0.34504,-0.03852,0.00269,-0.13724,4.71221,-4.44079,-1.40974,-3.06190,-4.78784,-3.57059,0.03173,0.18148,0.97224,0.14424,19.45798,-11.35963,15.57736
-0.18293,1.34369,0.35444,-0.02918,0.00537,-0.14302,5.00715,-4.50388,-1.19050,-2.66436,-4.77320,-4.76962,0.00517,0.13662,0.97897,0.15139,19.03023,-12.98950,20.97481
-0.20867,1.31204,0.36404,-0.01631,0.01150,-0.14900,5.30210,-4.60412,-0.93597,-2.00429,-4.29215,-6.35120,-0.02315,0.08922,0.98348,0.15581,14.19121,-13.88678,19.63527
-0.23305,1.28303,0.36853,-0.00523,0.01996,-0.15172,5.47976,-4.67433,-0.80405,-1.57953,-3.43090,-7.32347,-0.05049,0.04275,0.98458,0.16197,9.36519,-9.07446,10.15652
-0.25508,1.25733,0.36924,0.00565,0.02596,-0.15460,5.67794,-4.79307,-0.59727,-1.29007,-2.34317,-8.68236,-0.07981,-0.00590,0.98308,0.16476,10.74294,-12.31221,13.22569
-0.28202,1.22610,0.36642,0.02085,0.03067,-0.15840,5.84791,-5.04659,-0.20740,-0.83040,-0.62253,-10.16189,-0.11446,-0.05597,0.97875,0.16066,6.33891,-24.66488,20.89891
-0.31083,1.19404,0.35813,0.03953,0.03361,-0.16386,5.94245,-5.49555,0.30660,-0.23991,1.23911,-10.58947,-0.15649,-0.10642,0.97039,0.15007,-1.89932,-38.62306,23.09864
-0.33717,1.16695,0.34660,0.05855,0.03667,-0.16920,5.89087,-6.05785,0.72551,0.11416,3.65793,-10.39020,-0.20475,-0.15389,0.95678,0.13773,-6.51154,-51.54362,16.28514
-0.37458,1.13230,0.32702,0.08987,0.03938,-0.17455,5.43251,-7.07143,1.20166,1.12947,6.54216,-9.40423,-0.27091,-0.19116,0.93598,0.11833,-25.88697,-69.69310,-3.24824
-0.40924,1.10545,0.30382,0.12272,0.04058,-0.17485,4.74525,-8.11750,1.44667,1.88514,7.75772,-8.73515,-0.34357,-0.21843,0.90798,0.09911,-38.93658,-78.40881,-24.02814
-0.44515,1.08262,0.28332,0.15130,0.04880,-0.16397,4.13386,-8.84434,1.18236,3.95313,9.10563,-8.37457,-0.41289,-0.23994,0.87388,0.09097,-27.76292,-60.92780,-45.01831
-0.47480,1.06688,0.27240,0.16356,0.05850,-0.14234,3.67182,-8.85781,0.57910,6.24537,13.96208,-7.71131,-0.46618,-0.25581,0.84148,0.09564,1.60084,-3.61822,-58.77646
-0.50751,1.05329,0.25674,0.17421,0.06332,-0.11508,3.06061,-8.81128,-0.21528,7.52003,15.97831,-5.79750,-0.51913,-0.25949,0.80729,0.10699,-5.91902,15.03725,-69.79697
-0.54254,1.04459,0.23568,0.17980,0.06325,-0.08308,2.48695,-8.57925,-1.14901,9.26040,14.70201,-2.57731,-0.56771,-0.25500,0.77262,0.12544,-2.25098,20.12900,-69.47169
-0.56974,1.04305,0.21513,0.18110,0.05471,-0.05653,1.87881,-8.34270,-2.05444,9.67744,17.47934,-1.15277,-0.61423,-0.24311,0.73654,0.14536,5.28021,35.17663,-66.95392
-0.59443,1.04873,0.19307,0.18309,0.03663,-0.03223,1.09905,-8.25715,-3.14059,12.71466,18.25227,-0.10597,-0.66464,-0.21572,0.69532,0.16808,-6.54153,18.39494,-89.62302
-0.61718,1.06185,0.17087,0.17926,0.01384,-0.00958,0.39208,-8.03866,-4.28179,16.57371,19.47602,0.83206,-0.71041,-0.17881,0.65210,0.19521,4.71384,25.12854,-93.83043
-0.63991,1.08725,0.14422,0.18249,-0.02223,0.01538,-0.49260,-8.36876,-6.25421,19.79848,19.59675,1.76700,-0.76575,-0.11556,0.58760,0.23452,5.17051,9.18288,-123.41790
-0.65341,1.11397,0.12204,0.17527,-0.05835,0.03570,-1.37488,-8.38072,-6.94727,28.70223,19.25272,4.58475,-0.80907,-0.05964,0.52900,0.24901,-14.76023,-16.46486,-127.29380
-0.66509,1.15271,0.09369,0.14355,-0.08783,0.05273,-1.61241,-7.77198,-8.55490,31.82924,16.24169,7.03045,-0.83327,0.01258,0.46780,0.29440,47.21423,19.73708,-116.52940
-0.67897,1.20764,0.03503,0.09638,-0.10028,0.05922,-0.92699,-6.86444,-10.11487,37.94748,13.09743,11.20345,-0.83650,0.07765,0.40612,0.35958,91.28416,5.67784,-67.11612
-0.67979,1.25513,-0.00610,0.06515,-0.09863,0.05712,0.01849,-6.45014,-11.15812,43.59922,8.60159,15.39769,-0.83111,0.13042,0.33430,0.42484,113.87340,-30.93744,-58.07520
-0.66905,1.31587,-0.05066,0.02368,-0.09039,0.04482,1.28249,-5.74455,-12.26386,51.16750,1.49160,23.40812,-0.80301,0.18573,0.26375,0.50111,119.19530,-31.39338,-34.80572
-0.63397,1.39762,-0.09581,-0.01703,-0.07892,0.02791,2.42864,-5.21520,-13.26750,58.52196,-12.75217,35.22389,-0.76033,0.24136,0.18729,0.57320,91.92684,-34.51874,-21.45539
-0.58291,1.46556,-0.12467,-0.06417,-0.08327,0.01481,2.51656,-4.57353,-14.80936,57.99380,-30.58739,47.13385,-0.66215,0.37390,0.02002,0.64912,62.92090,13.84038,-74.70856
-0.54091,1.50589,-0.13650,-0.09108,-0.06549,-0.00088,3.17903,-4.21105,-15.66330,52.41958,-42.42488,55.38493,-0.57662,0.43538,-0.06490,0.68829,97.93192,-4.50178,-70.52718
-0.45505,1.56476,-0.13951,-0.10271,0.02736,-0.04982,6.67067,-3.92754,-15.91041,39.64844,-57.98093,71.65065,-0.50803,0.41314,-0.04497,0.75445,129.78710,-137.88850,-1.52947
-0.38364,1.59928,-0.12101,-0.09424,0.10926,-0.08054,9.74141,-3.89060,-16.67576,30.26545,-77.31306,79.90860,-0.23231,0.45547,-0.19064,0.83800,64.77369,-258.46080,-92.66451
-0.29244,1.61774,-0.07523,-0.12786,0.21016,-0.10158,12.95730,-1.14353,-18.67528,6.78639,-123.87960,81.71185,0.02971,0.52512,-0.21437,0.82305,225.35490,-141.46900,-107.75070
-0.17858,1.59122,0.00389,-0.12985,0.39799,-0.06562,18.47848,2.69741,-20.20639,-51.68792,-176.25680,46.44176,0.19821,0.56938,-0.12873,0.78736,385.69800,-163.91020,-116.96510
0.44832,1.25304,0.34974,5.90427,-6.33263,5.50758,24.74895,4.10124,-17.82474,-131.13030,-204.02350,-17.46438,0.47840,0.52822,-0.04124,0.70030,290.04620,-254.18450,-193.68080
0.70304,1.13153,0.37010,3.97456,-8.60597,4.91137,30.97147,3.95074,-13.66226,-187.53920,-175.78960,-83.90207,0.71956,0.41749,0.11545,0.54278,222.63670,-294.83810,-372.35090
0.74641,0.94786,0.30268,0.68745,-10.74199,2.87656,40.50682,-1.73043,-6.05618,-211.82910,-80.55814,-176.07630,0.87087,0.11891,0.38822,0.27702,475.11960,-165.33420,-711.66800
0.68240,0.80533,0.18930,-1.60238,-10.99715,0.43788,41.58002,-8.82572,-3.14691,-163.45240,42.91256,-199.77860,0.84565,-0.16550,0.50273,0.06894,453.25450,222.24660,-572.01200
0.59553,0.75317,0.03014,-3.24856,-9.56887,-2.15752,35.19465,-13.65416,-5.72342,-72.54141,147.38960,-138.51330,0.77846,-0.38129,0.49775,0.02933,50.72223,531.85980,-255.12310
0.54032,0.74198,-0.07457,-3.65421,-7.73496,-3.29430,28.98323,-11.17140,-7.88020,-3.81000,147.81440,-44.96829,0.77195,-0.46786,0.43029,0.00703,-263.63200,566.44960,164.83630
0.50210,0.74295,-0.10068,-3.60616,-6.07919,-2.97201,19.83147,-8.48731,-6.46580,26.10489,91.48657,43.07125,0.78107,-0.43754,0.43704,0.08653,-459.01460,332.27090,181.88580
0.46272,0.71070,-0.09506,-3.45563,-5.17516,-2.35435,13.05135,-9.69065,-4.66860,4.08905,67.20336,54.93187,0.71756,-0.44231,0.52087,0.13477,-644.80820,136.21120,-226.66960
0.41236,0.68200,-0.07098,-3.50733,-4.45930,-1.54493,6.78028,-8.22804,-4.57760,-18.82570,43.89254,58.32823,0.67658,-0.43017,0.55103,0.23142,-370.89400,174.40230,-143.61200
0.34748,0.65568,-0.04113,-3.76194,-3.88145,-0.79439,1.63295,-1.84077,-5.80986,-23.54029,42.09827,48.16608,0.70478,-0.38351,0.45219,0.38953,-246.89760,511.22360,-99.82591
0.28659,0.64349,-0.00901,-4.01371,-3.32709,-0.17416,-1.29529,3.63264,-6.92617,-8.53598,43.18217,42.23001,0.72067,-0.33700,0.31475,0.51769,-15.09383,531.62160,-81.73399
0.22470,0.63313,0.01972,-4.10575,-2.75487,0.31960,-2.99686,5.79427,-8.07464,4.15733,40.47374,30.78390,0.69011,-0.32459,0.21374,0.61050,-51.09030,236.51570,-97.01423
0.17730,0.62934,0.05059,-3.97494,-2.21506,0.68746,-4.04875,5.74907,-8.03640,16.93394,37.38589,20.02147,0.64919,-0.31944,0.16571,0.67011,-57.19758,69.76488,-11.84594
0.14450,0.63031,0.08293,-3.68993,-1.72654,0.94400,-4.90896,5.22678,-7.34543,20.70347,33.78747,8.82712,0.60798,-0.30846,0.14138,0.71779,-67.86852,1.17055,76.31643
0.12412,0.63686,0.10812,-3.28042,-1.24274,1.04840,-4.67327,5.38714,-6.16797,25.04319,28.06092,-2.79121,0.59336,-0.28483,0.10791,0.74508,37.30953,20.42467,57.86599
0.09835,0.64094,0.11866,-2.95245,-0.89749,0.96230,-3.97926,5.19098,-5.10140,22.25480,22.20111,-10.21588,0.58687,-0.26759,0.08160,0.75982,66.14347,-6.10494,59.85273
0.07394,0.64595,0.12413,-2.67991,-0.61872,0.80971,-3.14530,4.91889,-4.23507,16.74704,18.49618,-13.10363,0.58591,-0.25373,0.05693,0.76752,68.29780,-29.24567,53.33946
0.04922,0.65197,0.12516,-2.47763,-0.38669,0.62655,-2.08534,4.92642,-3.89823,11.68555,15.57882,-14.57396,0.59033,-0.24312,0.01783,0.76947,76.12617,-18.11614,12.87879
0.02269,0.65898,0.12268,-2.34630,-0.19049,0.42672,-1.08655,4.55500,-3.95046,8.35981,12.56374,-15.74300,0.59408,-0.24605,-0.02225,0.76553,69.75969,-30.16730,-21.48950
-0.00454,0.66687,0.11689,-2.25798,-0.02597,0.21782,-0.49853,3.29104,-3.80657,6.49798,9.69439,-16.20433,0.59410,-0.26621,-0.03805,0.75811,30.91242,-82.87614,-5.98025
-0.03121,0.67573,0.10647,-2.17989,0.12086,-0.01692,-0.30455,1.00200,-3.13821,5.38683,7.73008,-14.35070,0.59237,-0.30439,-0.01512,0.74580,-8.03836,-138.74740,39.37767
-0.05743,0.68327,0.09763,-2.11100,0.21462,-0.16864,-0.40810,-0.77515,-2.48233,6.44504,7.44255,-11.72606,0.58562,-0.33960,0.01368,0.73589,-31.83553,-150.09310,56.57563
-0.07981,0.69247,0.08761,-1.99610,0.31215,-0.30238,-0.35098,-2.21197,-2.02061,8.70495,7.40142,-7.31430,0.58043,-0.37724,0.04245,0.72040,-26.42884,-120.07890,44.76610
-0.09777,0.70202,0.07915,-1.83510,0.39461,-0.37576,0.04729,-2.69887,-2.01842,12.19242,4.84042,-1.70688,0.58022,-0.40776,0.04781,0.70342,16.35699,-58.36778,4.56666
-0.11118,0.71091,0.07423,-1.63739,0.44968,-0.37377,0.42398,-2.41146,-1.94588,14.60243,2.73188,2.70523,0.58379,-0.42216,0.04125,0.69229,31.20088,11.93889,13.30857
-0.12146,0.71917,0.07301,-1.43413,0.48186,-0.31186,0.44417,-1.92009,-1.74334,13.98429,1.00707,5.88770,0.58369,-0.42764,0.03559,0.68932,13.48424,35.66161,16.68277
-0.13041,0.72698,0.07448,-1.25560,0.50018,-0.22041,-0.09423,-1.67314,-1.48109,12.85694,0.57466,6.44352,0.57237,-0.43330,0.04087,0.69497,-27.64482,27.50017,14.01535
-0.13721,0.73466,0.07710,-1.08096,0.51291,-0.13342,-0.80911,-1.67152,-1.19232,12.99914,0.72499,5.60304,0.55486,-0.44099,0.05540,0.70327,-53.63699,7.12941,14.98816
-0.14115,0.74193,0.08035,-0.89962,0.51588,-0.05513,-1.31866,-1.66785,-1.01982,13.45440,0.30750,5.38478,0.53731,-0.44934,0.06866,0.71040,-46.24731,2.30925,11.96959
-0.14041,0.74835,0.08506,-0.67971,0.50327,0.03292,-1.50431,-1.40840,-1.20294,13.86617,-0.90192,6.21740,0.52106,-0.45791,0.06832,0.71704,-5.86815,11.43338,-2.90601
-0.13883,0.75366,0.09003,-0.49475,0.47478,0.10408,-1.62881,-1.32797,-1.14860,17.45648,-5.04145,7.54883,0.50698,-0.46592,0.07318,0.72148,-10.01159,14.99425,-31.93379
-0.13175,0.75523,0.10000,-0.26603,0.39221,0.23922,-2.35373,-0.76149,-0.49705,15.00848,-7.26606,10.85032,0.48789,-0.45101,0.09210,0.74167,-52.86260,30.52063,38.16887
-0.12247,0.75195,0.11339,-0.05008,0.24814,0.40137,-1.94249,0.30336,0.03397,12.46356,-8.30193,8.45772,0.49193,-0.42430,0.08921,0.75499,10.25008,67.29276,29.66489
-0.11472,0.74869,0.12456,0.09362,0.13855,0.49045,-1.07420,1.06875,0.10364,12.02830,-8.61340,6.19351,0.50429,-0.40541,0.07207,0.75904,66.64633,67.50909,2.98756
-0.10372,0.74356,0.13617,0.25540,0.02547,0.56476,-0.18164,1.89349,0.20755,12.08718,-8.04374,4.47527,0.52291,-0.38003,0.04892,0.76141,71.30624,63.73890,-4.43144
-0.08918,0.73741,0.14777,0.44195,-0.07779,0.62380,0.23679,2.63182,0.42678,12.15644,-6.17219,2.95389,0.53636,-0.34903,0.03118,0.76781,33.92402,49.52119,7.97331
-0.07372,0.73193,0.15835,0.60608,-0.14618,0.65298,0.24671,3.12025,0.68179,12.27984,-4.56752,1.04160,0.54270,-0.31780,0.02091,0.77720,5.68359,37.33435,16.79498
-0.05586,0.72641,0.16769,0.77066,-0.19949,0.65412,0.21916,3.54739,0.92755,11.92208,-3.24946,-1.15058,0.54799,-0.28403,0.01147,0.78671,-1.76454,30.99057,20.46097
-0.03631,0.72020,0.17512,0.92792,-0.24489,0.62576,0.38452,3.94677,1.04812,11.22698,-2.80237,-3.11300,0.55596,-0.24948,-0.00267,0.79288,9.22999,29.43325,9.25293
-0.01532,0.71373,0.18071,1.07348,-0.28206,0.57282,0.60258,4.28383,1.13007,10.44730,-2.31081,-4.72067,0.56515,-0.21407,-0.01843,0.79652,15.34628,26.23160,2.97543
0.00747,0.70757,0.18426,1.21043,-0.30971,0.49804,0.81942,4.57590,1.19122,9.73583,-1.57520,-6.19001,0.57450,-0.17756,-0.03515,0.79824,14.42843,21.88532,1.66601
0.03122,0.70139,0.18568,1.33524,-0.32754,0.40560,1.05415,4.84588,1.20214,8.60591,-0.81882,-7.24223,0.58409,-0.14021,-0.05383,0.79768,15.12082,21.16204,-1.64022
0.05558,0.69559,0.18514,1.44196,-0.33237,0.30146,1.24354,5.05882,1.14510,7.39633,0.25391,-7.96526,0.59248,-0.10353,-0.07402,0.79547,12.88530,18.18424,-5.92044
0.08015,0.69084,0.18352,1.52154,-0.32403,0.20546,1.32406,5.16875,1.06673,6.56957,0.97199,-8.33545,0.59833,-0.06865,-0.09366,0.79279,6.88320,12.73707,-9.20619
0.10635,0.68719,0.17843,1.61205,-0.29834,0.07338,1.27983,5.23380,1.07237,5.17527,2.00072,-8.53636,0.60116,-0.03313,-0.11053,0.79075,-1.81973,4.57380,0.81469
0.13181,0.68415,0.17266,1.66989,-0.26819,-0.04184,1.20952,5.27212,1.02780,3.50223,2.41340,-8.25345,0.60209,0.00119,-0.12800,0.78810,-5.10601,2.94695,0.57283
0.15707,0.68212,0.16546,1.70667,-0.23370,-0.15251,1.11077,5.26189,0.96927,2.09371,2.61407,-7.89325,0.60119,0.03399,-0.14522,0.78507,-7.39295,0.56217,-2.77320
0.18159,0.68102,0.15727,1.72416,-0.19279,-0.25566,0.93885,5.16018,1.00724,0.75531,3.01864,-7.34420,0.59792,0.06564,-0.15848,0.78299,-9.53615,-6.09443,3.06863
0.20527,0.68082,0.14815,1.72295,-0.14616,-0.35038,0.75154,4.93461,1.12039,-0.51555,3.57676,-6.75579,0.59352,0.09495,-0.16697,0.78156,-9.57488,-14.73868,9.69329
0.22816,0.68200,0.13810,1.70692,-0.08945,-0.43716,0.55591,4.61563,1.29562,-1.60544,4.60243,-6.02332,0.58809,0.12208,-0.17072,0.78109,-7.91507,-22.93624,15.30325
0.25041,0.68430,0.12788,1.68279,-0.03055,-0.50409,0.36971,4.33302,1.39833,-2.39899,5.34729,-5.26113,0.58144,0.14742,-0.17451,0.78086,-8.43045,-24.94702,13.55388
0.27119,0.68907,0.11602,1.64103,0.05554,-0.58259,0.12031,3.96294,1.52113,-2.82151,5.55578,-4.72393,0.57259,0.16918,-0.17469,0.78294,-11.85010,-25.26798,10.44365
0.29181,0.69399,0.10443,1.60567,0.12317,-0.63905,-0.01297,3.76244,1.58346,-3.25618,6.00133,-4.55566,0.56430,0.19260,-0.17712,0.78301,-7.85586,-21.11290,10.61411
0.31096,0.70060,0.09180,1.55722,0.20330,-0.70047,-0.17403,3.64835,1.52637,-3.83268,5.82363,-4.16355,0.55426,0.21462,-0.18299,0.78310,-10.38792,-10.79975,0.97781
0.32902,0.70813,0.07873,1.50108,0.28001,-0.75502,-0.32188,3.56619,1.44923,-4.17450,5.27880,-3.73689,0.54342,0.23598,-0.18997,0.78289,-11.04847,-7.34176,-3.54194
0.34549,0.71710,0.06481,1.43141,0.36188,-0.81119,-0.45818,3.46109,1.42066,-4.57316,5.00415,-3.47318,0.53193,0.25657,-0.19556,0.78293,-8.82580,-7.15754,-0.38445
0.36187,0.72594,0.05115,1.37463,0.42129,-0.84930,-0.54168,3.35952,1.46245,-4.89233,4.78089,-3.01654,0.52040,0.27781,-0.19910,0.78253,-6.57614,-7.77908,3.24844
0.37649,0.73601,0.03699,1.30365,0.48588,-0.88629,-0.62602,3.20472,1.54874,-5.27274,4.43976,-2.43791,0.50820,0.29783,-0.20001,0.78296,-3.63384,-10.72063,7.60535
0.38987,0.74668,0.02274,1.22861,0.54569,-0.91583,-0.67990,3.02608,1.67173,-5.47767,4.08919,-1.90199,0.49597,0.31724,-0.19844,0.78358,-1.31145,-12.60695,9.05991
0.40140,0.75843,0.00818,1.13987,0.60878,-0.94316,-0.72699,2.83553,1.80966,-5.65958,3.82447,-1.45987,0.48332,0.33590,-0.19500,0.78457,0.66920,-12.55909,10.24936
0.41239,0.77015,-0.00626,1.06128,0.65859,-0.96307,-0.77849,2.73141,1.85844,-5.67924,3.53686,-1.19691,0.47019,0.35440,-0.19383,0.78470,-1.00819,-8.99791,5.99703
0.42167,0.78279,-0.02104,0.97081,0.71038,-0.98301,-0.90051,2.71933,1.79724,-5.73900,3.09766,-0.90389,0.45529,0.37233,-0.19673,0.78446,-6.61398,-2.52364,-1.50773
0.43106,0.79505,-0.03551,0.90337,0.74408,-0.99325,-1.02162,2.72328,1.71942,-5.64542,2.56731,-0.73042,0.43967,0.38977,-0.20087,0.78385,-11.30192,-0.45022,-4.48639
0.43873,0.80771,-0.05007,0.82460,0.77655,-1.00265,-1.11174,2.71959,1.66442,-5.71308,2.01493,-0.58599,0.42386,0.40692,-0.20474,0.78284,-8.04631,-1.01849,-2.82214
0.44459,0.82071,-0.06469,0.73377,0.80449,-1.00907,-1.17803,2.70642,1.60153,-5.59907,1.42829,-0.10310,0.40827,0.42336,-0.20881,0.78133,-4.85014,-1.32698,-3.16090
0.45066,0.83334,-0.07896,0.66729,0.82155,-1.00900,-1.19694,2.68272,1.60175,-5.49384,1.27694,0.15646,0.39280,0.44015,-0.21111,0.77937,-2.97694,-1.85785,-1.29928
0.45508,0.84638,-0.09294,0.59027,0.84288,-1.00520,-1.19940,2.62875,1.68865,-5.50166,1.59454,0.42155,0.37662,0.45706,-0.21058,0.77776,0.95274,-3.12368,4.58332
0.45787,0.85988,-0.10657,0.50125,0.87018,-0.99696,-1.23362,2.56496,1.83093,-5.68277,1.64524,0.68987,0.35862,0.47391,-0.20829,0.77680,-0.49567,-3.09084,9.00805
0.46001,0.87336,-0.11984,0.42080,0.89115,-0.98455,-1.22168,2.46554,2.00335,-5.87449,1.19604,1.09360,0.34077,0.49026,-0.20339,0.77598,1.75460,-5.45528,12.11268
0.46154,0.88669,-0.13271,0.35081,0.90308,-0.96874,-1.18186,2.35534,2.13994,-5.92537,0.74157,1.55042,0.32359,0.50575,-0.19739,0.77495,6.37497,-6.94467,12.65477
0.46034,0.90065,-0.14527,0.25725,0.90749,-0.94519,-1.17388,2.23843,2.18453,-5.81915,-0.16036,1.78186,0.30672,0.51938,-0.19256,0.77400,3.68125,-7.81480,5.29863
0.45940,0.91363,-0.15766,0.18882,0.90027,-0.92650,-1.27434,2.19779,2.06162,-5.73823,-0.73090,2.00711,0.28913,0.53155,-0.19359,0.77226,-3.53380,-5.49449,-4.01467
0.45710,0.92548,-0.16914,0.11293,0.88186,-0.90026,-1.55532,2.16307,1.76855,-5.36198,-1.55161,2.18144,0.26951,0.54004,-0.20244,0.77119,-19.62659,-6.29626,-15.37158
0.45321,0.93685,-0.17996,0.03045,0.85237,-0.86549,-1.94807,2.10242,1.37762,-4.92346,-2.07101,2.54417,0.24833,0.54486,-0.21747,0.77082,-27.78209,-7.96366,-21.22659
0.44928,0.94787,-0.19025,-0.03509,0.82626,-0.83049,-2.18466,1.98497,1.15654,-4.21336,-2.24711,2.40418,0.22793,0.54908,-0.22884,0.77084,-22.75179,-12.50029,-15.14072
0.44477,0.95805,-0.19983,-0.09892,0.79649,-0.79373,-2.22118,1.88182,1.07935,-3.40377,-1.94867,2.20578,0.20958,0.55466,-0.23562,0.77001,-3.72990,-8.46150,-4.29161
0.44081,0.96855,-0.20967,-0.13787,0.77741,-0.76897,-2.17162,1.83801,1.10804,-2.89042,-1.68326,2.09355,0.19138,0.56212,-0.23934,0.76819,2.57318,-3.61867,0.28612
