posX, posY, posZ, velX, velY, velZ, angVelX, angVelY, angVelZ, accX, accY, accZ, rotX, rotY, rotZ, rotW, angAccX, angAccY, angAccZ
0.32123,1.08370,-0.42897,-0.01921,0.25491,-0.14825,0.92175,-0.09109,0.01401,-0.17315,-0.34108,0.07804,0.21893,0.77928,-0.08248,0.58136,-1.65245,-1.28869,-3.20905
0.32090,1.08682,-0.43116,-0.02193,0.25123,-0.14927,0.86138,-0.08120,-0.03773,-0.37086,-0.13933,-0.09530,0.22282,0.77912,-0.08002,0.58045,-2.78558,0.83526,-4.34544
0.32027,1.08988,-0.43379,-0.02954,0.24895,-0.15589,0.61428,-0.10273,-0.11365,-0.67125,0.06741,-0.46702,0.22372,0.77755,-0.08342,0.58173,-14.33389,-0.58983,-4.11160
0.31939,1.09358,-0.43673,-0.03806,0.25501,-0.16658,0.47031,-0.13353,-0.21164,-0.48360,0.72314,-1.07964,0.22664,0.77554,-0.08607,0.58290,-12.55590,-2.25376,-6.82031
0.31837,1.09813,-0.44008,-0.04779,0.27419,-0.18104,0.52231,-0.12303,-0.23742,-0.86064,1.89645,-1.37021,0.23142,0.77506,-0.08348,0.58202,1.53808,0.08511,-3.32390
0.31537,1.10645,-0.44562,-0.09215,0.35912,-0.22988,1.23622,0.07520,-0.04612,-1.74515,4.31303,-2.28275,0.24231,0.78015,-0.06389,0.57321,30.22606,6.73497,3.52044
0.31087,1.12021,-0.45384,-0.12287,0.41875,-0.25625,1.62203,0.18376,0.12800,-2.42263,4.66096,-1.35984,0.25511,0.78562,-0.03830,0.56237,33.35512,8.53230,16.65835
0.30756,1.12968,-0.45863,-0.14771,0.47478,-0.27316,1.77932,0.19662,0.24102,-2.11226,5.09926,-0.91399,0.26072,0.78826,-0.02287,0.55692,18.26834,3.31281,10.07158
0.30325,1.14150,-0.46346,-0.18230,0.55408,-0.28740,1.73744,0.03847,0.39819,-2.76250,4.99737,-0.47206,0.26168,0.78793,-0.00918,0.55732,0.81418,-7.62301,9.02678
0.29853,1.15309,-0.46845,-0.21761,0.61778,-0.30140,1.66369,-0.14998,0.39796,-1.97380,4.58246,-1.95803,0.26503,0.78513,0.00136,0.55975,-10.24774,-19.40870,0.88844
0.29427,1.16540,-0.47420,-0.23774,0.67656,-0.32301,1.93076,-0.05047,0.51881,-1.56983,4.48739,-2.43251,0.27086,0.78806,0.02090,0.55241,11.06411,2.77032,8.08275
0.28947,1.17892,-0.48066,-0.26102,0.73905,-0.35051,2.43924,0.09290,0.50598,-1.98172,4.39657,-2.02272,0.28519,0.79068,0.04583,0.53982,33.47547,11.74555,0.37909
0.28399,1.19310,-0.48724,-0.29011,0.80042,-0.37422,2.99344,0.21916,0.49807,-2.27420,4.48504,-1.44704,0.30197,0.79234,0.07471,0.52481,39.55068,10.36373,0.87179
0.27788,1.20826,-0.49367,-0.32197,0.86249,-0.39020,3.46825,0.32167,0.46609,-2.51081,4.64521,-0.67164,0.31972,0.79260,0.10401,0.50866,36.59440,9.91181,-0.12840
0.27099,1.22450,-0.49994,-0.35843,0.92757,-0.40159,3.70609,0.39237,0.42824,-2.92185,5.04413,-0.35851,0.33497,0.79197,0.12928,0.49382,24.96337,7.28731,-1.70362
0.26315,1.24173,-0.50650,-0.40192,0.99625,-0.41446,3.56656,0.43068,0.38904,-3.42590,5.21302,-0.73580,0.34440,0.79172,0.14540,0.48314,-6.02707,3.45422,-2.21431
0.25363,1.26086,-0.51342,-0.46219,1.07999,-0.42928,3.42988,0.52746,0.39215,-4.07132,5.44596,-1.17733,0.35239,0.79270,0.16057,0.47082,-11.71776,4.12479,0.88271
0.24272,1.28130,-0.52022,-0.53149,1.16751,-0.44047,3.57868,0.73184,0.47885,-4.49159,5.50855,-0.73270,0.36249,0.79467,0.18248,0.45143,6.40831,10.73747,7.18473
0.23129,1.30183,-0.52663,-0.59582,1.24135,-0.44249,3.84303,0.93625,0.58490,-4.77577,5.23665,0.17067,0.37378,0.79586,0.20813,0.42846,18.18867,12.93907,9.70255
0.21933,1.32266,-0.53251,-0.65309,1.30110,-0.43577,4.04618,1.10086,0.68088,-4.96181,4.96719,1.05119,0.38428,0.79626,0.23357,0.40466,18.82675,13.03742,10.61410
0.20558,1.34462,-0.53746,-0.72391,1.36473,-0.41799,4.10361,1.22989,0.79453,-5.32405,4.24126,2.00904,0.39192,0.79689,0.25674,0.38137,10.40198,8.71047,10.33091
0.19015,1.36683,-0.54158,-0.80734,1.42312,-0.38930,3.80774,1.25582,0.86821,-5.28031,3.21990,2.26813,0.39468,0.79855,0.27147,0.36449,-14.65713,0.55622,6.89938
0.17503,1.38843,-0.54548,-0.86770,1.45624,-0.36420,3.52797,1.25433,0.88364,-5.03029,2.44025,2.03531,0.39763,0.79950,0.28424,0.34914,-25.25269,-3.65212,4.23264
0.15873,1.40971,-0.54878,-0.93295,1.48398,-0.33355,3.37655,1.29956,0.88669,-4.55365,1.77089,2.09730,0.40191,0.79992,0.29793,0.33141,-14.19379,1.18015,1.85619
0.14202,1.43065,-0.55186,-0.99174,1.50296,-0.30402,3.28390,1.43670,0.86659,-4.14734,1.26487,2.02633,0.40772,0.80058,0.31052,0.31050,-8.19079,7.36848,1.40403
0.12468,1.45174,-0.55439,-1.04694,1.51537,-0.27390,3.27293,1.62765,0.87089,-3.88475,0.79386,2.18093,0.41414,0.80120,0.32362,0.28607,-3.50596,11.95872,3.22058
0.10665,1.47286,-0.55594,-1.09829,1.52107,-0.23901,3.34323,1.83936,0.88225,-3.55111,0.19958,2.64931,0.42149,0.80089,0.33785,0.25842,3.24584,14.45248,3.76031
0.08801,1.49326,-0.55640,-1.14930,1.51594,-0.19374,3.43072,2.05491,0.85326,-2.86311,-0.69221,2.99926,0.43021,0.79927,0.35150,0.22921,5.07620,14.00680,1.34409
0.06981,1.51316,-0.55633,-1.18336,1.50171,-0.15115,3.49373,2.24019,0.78598,-2.21530,-1.36072,3.15427,0.43976,0.79633,0.36391,0.20009,3.22778,14.17766,-1.49646
0.05167,1.53255,-0.55592,-1.20745,1.48141,-0.11363,3.48384,2.41444,0.71144,-1.87204,-2.02796,3.29943,0.44935,0.79315,0.37388,0.17093,0.89243,15.30552,-2.81060
0.03334,1.55084,-0.55444,-1.22954,1.45066,-0.06851,3.31367,2.55974,0.63194,-1.22213,-2.43486,3.59763,0.45802,0.79112,0.37892,0.14409,-9.45776,12.93793,-1.32334
0.01506,1.56816,-0.55169,-1.24740,1.41120,-0.01290,2.98806,2.62439,0.57046,-0.97663,-2.52129,3.63585,0.46458,0.79075,0.37959,0.12160,-21.48550,3.57975,0.35331
-0.00318,1.58505,-0.54835,-1.25984,1.37336,0.04137,2.86669,2.69499,0.53386,-0.82887,-2.53459,3.81610,0.47168,0.78820,0.38338,0.09633,-14.85031,3.20919,0.85187
-0.02127,1.60124,-0.54396,-1.26790,1.33338,0.10030,2.98175,2.82543,0.50537,-0.37680,-2.79805,4.23584,0.48032,0.78232,0.39108,0.06577,4.54173,9.35355,-1.09285
-0.03925,1.61675,-0.53865,-1.27295,1.28987,0.15907,3.05951,2.93203,0.50972,0.01340,-3.29176,4.34166,0.48775,0.77608,0.39821,0.03492,8.01402,8.98711,-0.30241
-0.05682,1.63154,-0.53256,-1.26872,1.24380,0.21623,2.97980,2.97434,0.55704,0.87651,-3.44159,4.29759,0.49263,0.77164,0.40230,0.00665,-1.63283,4.42225,4.53587
-0.07400,1.64641,-0.52678,-1.26112,1.20971,0.25605,2.75084,2.91866,0.62906,1.07325,-3.80857,4.24049,0.49477,0.76959,0.40330,-0.01685,-10.99244,-2.22850,6.73442
-0.09025,1.65849,-0.51821,-1.24131,1.14237,0.32681,2.22701,2.72599,0.76701,1.33630,-3.78177,3.81291,0.49219,0.77359,0.39787,-0.03165,-28.94693,-14.52004,11.97726
-0.10618,1.67048,-0.50972,-1.21910,1.08448,0.38220,2.03328,2.63250,0.82766,1.70097,-4.07842,3.70612,0.49203,0.77310,0.39698,-0.05129,-16.92163,-10.38227,8.04945
-0.12144,1.68131,-0.50062,-1.19262,1.02210,0.43544,1.97857,2.57834,0.83487,1.95042,-4.53648,3.60198,0.49311,0.77016,0.39805,-0.07250,-3.89061,-4.36005,1.66467
-0.13615,1.69121,-0.49134,-1.16487,0.95868,0.48353,1.92415,2.53921,0.84505,1.98739,-4.52805,3.37255,0.49395,0.76707,0.39858,-0.09358,-3.86810,-3.84829,0.30280
-0.15085,1.70076,-0.48186,-1.14202,0.90363,0.52355,1.88558,2.49109,0.87575,1.95228,-4.72726,3.36587,0.49376,0.76394,0.39931,-0.11465,-2.43090,-2.89212,1.54819
-0.16464,1.70794,-0.47106,-1.11099,0.82561,0.57503,1.80545,2.40135,0.91595,2.11795,-5.11741,3.10927,0.49240,0.76162,0.39950,-0.13371,-3.21325,-5.73495,2.87395
-0.17824,1.71528,-0.46060,-1.08403,0.76531,0.60906,1.68112,2.30185,0.94261,2.54546,-5.11278,2.60863,0.49083,0.75999,0.39844,-0.15080,-7.88104,-9.02660,2.41040
-0.19064,1.72113,-0.44965,-1.04469,0.69589,0.64134,1.50755,2.18815,0.96125,3.06327,-4.97766,2.00497,0.48902,0.75939,0.39589,-0.16570,-11.17731,-8.81546,2.34508
-0.20207,1.72601,-0.43883,-0.99989,0.62678,0.66622,1.30578,2.08912,0.97342,3.36505,-4.96125,1.53764,0.48735,0.75955,0.39173,-0.17920,-13.02783,-8.48511,2.54015
-0.21213,1.72962,-0.42771,-0.94401,0.55153,0.68895,1.12264,1.99532,0.95863,3.47356,-4.42955,1.15716,0.48620,0.75957,0.38725,-0.19159,-12.36641,-7.76569,1.04934
-0.22177,1.73318,-0.41683,-0.89325,0.49022,0.70448,1.11636,2.02725,0.89248,3.54139,-4.06719,0.80822,0.48706,0.75594,0.38466,-0.20821,-4.42699,-0.38361,-2.95458
-0.22775,1.73335,-0.40588,-0.78667,0.37949,0.71924,1.29219,2.33136,0.63141,3.96832,-3.78287,0.26616,0.49456,0.74513,0.38293,-0.23140,5.22246,13.03446,-9.75789
-0.24603,1.74073,-0.38561,-0.73327,0.33177,0.72230,1.27441,2.39110,0.56468,4.02024,-3.39033,0.23308,0.49854,0.73317,0.37690,-0.26809,-0.44927,8.77468,-6.08129
-0.25270,1.74261,-0.37521,-0.68124,0.29070,0.72683,1.18842,2.33668,0.55651,3.75344,-2.72424,0.43217,0.49971,0.72873,0.37281,-0.28329,-6.78400,-2.80600,-0.31440
-0.25874,1.74419,-0.36445,-0.63099,0.25324,0.73520,1.16669,2.25300,0.56701,3.57993,-2.71175,0.62736,0.49947,0.72410,0.37040,-0.29834,-2.04893,-6.15890,0.18098
-0.26418,1.74519,-0.35356,-0.58156,0.21482,0.74299,1.13190,2.13192,0.56710,3.68212,-2.88236,0.30146,0.49880,0.71990,0.36850,-0.31168,-0.87450,-7.89620,0.21995
-0.26914,1.74601,-0.34309,-0.53586,0.18285,0.74403,1.09167,2.04609,0.52378,3.87054,-2.50404,-0.14825,0.49937,0.71498,0.36640,-0.32433,-4.43546,-8.50708,-2.33930
-0.27230,1.74600,-0.33293,-0.47348,0.14513,0.74000,1.06853,1.96990,0.46047,3.94001,-2.23896,-0.37821,0.50042,0.70940,0.36487,-0.33646,-2.24918,-4.30605,-4.47283
-0.27573,1.74629,-0.32278,-0.42729,0.11946,0.73645,1.07703,1.91099,0.41794,3.85376,-2.02548,-0.30157,0.50090,0.70341,0.36382,-0.34922,-0.57271,-4.47880,-3.56626
-0.27811,1.74607,-0.31274,-0.37648,0.09229,0.73275,1.07382,1.75692,0.42780,3.72772,-1.99973,-0.32924,0.49899,0.69938,0.36402,-0.35967,1.26032,-8.61595,-1.56532
-0.27951,1.74539,-0.30280,-0.32114,0.06323,0.72776,1.00856,1.43945,0.50878,3.49147,-1.87055,-0.44058,0.49357,0.69968,0.36524,-0.36528,-2.50852,-19.17604,3.71156
-0.28120,1.74478,-0.29306,-0.28102,0.04114,0.72078,0.94749,1.20763,0.55797,3.18645,-1.90687,-0.81263,0.48882,0.69962,0.36598,-0.37101,-4.00354,-21.88674,3.87073
-0.28235,1.74376,-0.28390,-0.24245,0.01846,0.70814,0.89600,1.03152,0.57469,3.07436,-1.90402,-1.34682,0.48468,0.69921,0.36674,-0.37643,-3.61057,-17.05516,2.49150
-0.28185,1.74195,-0.27613,-0.18794,-0.01153,0.67752,0.80708,0.93176,0.52982,2.67281,-1.34491,-1.89844,0.48305,0.69796,0.36627,-0.38126,-5.01331,-6.83454,-2.50124
-0.28226,1.74077,-0.26824,-0.15634,-0.02650,0.65429,0.80206,0.97548,0.47660,2.37429,-1.07378,-1.92289,0.48258,0.69382,0.36541,-0.39014,-2.30758,1.40902,-3.76825
-0.28180,1.73944,-0.26118,-0.11831,-0.04027,0.62474,0.86090,1.11580,0.41371,2.34279,-0.60691,-1.74618,0.48307,0.68706,0.36445,-0.40221,1.89160,8.24154,-3.90671
-0.28087,1.73818,-0.25428,-0.07994,-0.05080,0.59830,0.93123,1.23864,0.32485,2.56861,-0.66265,-1.64262,0.48415,0.67911,0.36428,-0.41437,3.93866,8.78001,-5.21877
-0.27997,1.73694,-0.24721,-0.05006,-0.05862,0.57942,0.95202,1.27123,0.25282,2.58708,-0.76110,-1.58112,0.48484,0.67233,0.36440,-0.42439,2.39642,4.64661,-5.83198
-0.27835,1.73535,-0.24058,-0.01626,-0.06992,0.55835,0.95510,1.27042,0.17170,2.39125,-0.89538,-1.48783,0.48590,0.66562,0.36495,-0.43320,-0.13015,0.82594,-5.27877
-0.27614,1.73341,-0.23439,0.01979,-0.08427,0.53521,0.97152,1.28077,0.06665,2.19183,-0.88154,-1.50389,0.48777,0.65782,0.36615,-0.44191,0.72383,1.54922,-7.32011
-0.27418,1.73159,-0.22811,0.04465,-0.09394,0.51764,0.95437,1.24384,0.01715,2.10021,-0.90942,-1.51177,0.48866,0.65152,0.36693,-0.44955,-0.65574,-0.77352,-4.46919
-0.27163,1.72956,-0.22239,0.07277,-0.10437,0.49588,0.91409,1.21823,-0.06625,1.87540,-0.60708,-1.61604,0.49094,0.64477,0.36766,-0.45615,-3.84905,-3.21651,-4.67902
-0.26873,1.72755,-0.21712,0.10032,-0.11252,0.47228,0.90462,1.29125,-0.19303,1.90202,-0.45595,-1.68836,0.49533,0.63518,0.36816,-0.46439,-1.66821,4.59941,-8.52711
-0.26549,1.72564,-0.21213,0.12701,-0.11738,0.44902,0.88708,1.34596,-0.31855,1.92984,-0.32128,-1.65184,0.50030,0.62517,0.36880,-0.47207,-1.53809,5.88398,-8.54800
-0.26217,1.72378,-0.20719,0.14931,-0.12058,0.43054,0.86107,1.37691,-0.40962,1.89244,-0.28280,-1.44340,0.50503,0.61558,0.36924,-0.47923,-2.49445,3.40268,-7.62937
-0.25828,1.72186,-0.20233,0.17475,-0.12394,0.41437,0.85508,1.37033,-0.50790,1.82417,-0.23258,-0.92579,0.50971,0.60568,0.37093,-0.48555,-1.95720,1.26858,-7.91381
-0.25400,1.71984,-0.19724,0.20117,-0.12825,0.40479,0.87379,1.26763,-0.59542,1.66771,-0.24435,-0.35969,0.51287,0.59690,0.37497,-0.48998,-0.01673,-5.46430,-6.29254
-0.24980,1.71785,-0.19171,0.22148,-0.13127,0.40357,0.91429,1.11604,-0.66171,1.33525,-0.20901,0.07751,0.51459,0.58896,0.38066,-0.49338,1.64535,-9.29193,-6.13040
-0.24563,1.71588,-0.18587,0.23707,-0.13314,0.40665,0.98115,0.96246,-0.70132,0.89298,-0.03024,0.34845,0.51493,0.58129,0.38744,-0.49683,3.20128,-11.70180,-4.01093
-0.24152,1.71395,-0.17990,0.24887,-0.13434,0.41122,1.10460,0.83709,-0.73324,0.52758,-0.15404,0.25783,0.51399,0.57263,0.39563,-0.50139,7.56512,-8.20142,-3.76204
-0.23772,1.71194,-0.17396,0.25396,-0.13643,0.41459,1.20608,0.69713,-0.73152,0.31323,-0.24838,0.18127,0.51189,0.56496,0.40398,-0.50556,7.39657,-8.23245,-1.50168
-0.23413,1.70982,-0.16788,0.25453,-0.13976,0.41903,1.25051,0.43549,-0.65018,0.03431,-0.47266,0.27471,0.50683,0.56156,0.41290,-0.50724,3.84496,-16.05484,2.55307
-0.23085,1.70744,-0.16172,0.25043,-0.14618,0.42389,1.23530,0.05987,-0.53162,-0.38827,-0.58152,0.23738,0.49925,0.56261,0.42278,-0.50544,-1.06382,-26.55683,5.98154
-0.22785,1.70496,-0.15566,0.24339,-0.15289,0.42632,1.21005,-0.29508,-0.41667,-0.69800,-0.40547,0.14526,0.49056,0.56517,0.43292,-0.50251,-3.35752,-27.54766,6.34446
-0.22498,1.70248,-0.14978,0.23572,-0.15799,0.42532,1.20818,-0.52341,-0.35027,-0.74068,-0.29860,-0.22337,0.48255,0.56613,0.44289,-0.50050,-1.52904,-22.38680,4.87496
-0.22216,1.70009,-0.14433,0.22910,-0.16065,0.41844,1.20734,-0.65016,-0.32641,-0.62592,-0.04379,-0.69180,0.47572,0.56565,0.45239,-0.49908,-0.65922,-14.15672,1.39969
-0.21942,1.69790,-0.13970,0.22294,-0.15994,0.40151,1.22402,-0.69517,-0.35142,-0.31509,0.18027,-1.25154,0.47023,0.56311,0.46194,-0.49840,1.04589,-3.65487,-1.24332
-0.21642,1.69584,-0.13550,0.22131,-0.15745,0.38132,1.23486,-0.66649,-0.39955,-0.05241,0.16360,-1.57593,0.46626,0.55894,0.47078,-0.49856,0.91659,1.33131,-2.56523
-0.21329,1.69372,-0.13180,0.22215,-0.15655,0.35813,1.23844,-0.61453,-0.45167,0.14826,-0.08939,-1.78605,0.46307,0.55405,0.47921,-0.49895,1.04625,4.02939,-3.34219
-0.20989,1.69140,-0.12886,0.22683,-0.15864,0.32855,1.14194,-0.64995,-0.50141,0.67220,-0.23718,-1.97484,0.46055,0.55180,0.48709,-0.49614,-4.09707,0.06568,-3.19532
-0.20607,1.68918,-0.12597,0.23660,-0.15875,0.30344,0.97498,-0.79599,-0.55302,0.89219,0.10666,-1.82058,0.45784,0.55276,0.49536,-0.48935,-11.14088,-9.33463,-4.36427
-0.20187,1.68725,-0.12323,0.24983,-0.15451,0.28192,0.86688,-0.82294,-0.63129,1.09779,0.86698,-1.55567,0.45679,0.55133,0.50322,-0.48389,-12.31320,-7.49918,-6.26421
-0.19691,1.68600,-0.12091,0.27132,-0.14165,0.25899,0.89273,-0.67443,-0.78139,1.60343,1.17226,-1.52269,0.45830,0.54365,0.51189,-0.48206,0.65654,9.32115,-9.44344
-0.19093,1.68527,-0.11911,0.30364,-0.12324,0.23237,0.96045,-0.47471,-0.96290,2.02974,0.87611,-1.37816,0.46136,0.53277,0.52109,-0.48143,5.11127,12.78404,-9.47952
-0.18484,1.68421,-0.11685,0.33203,-0.11351,0.21771,1.01131,-0.41984,-1.11089,2.27501,0.52293,-0.87294,0.46266,0.52366,0.53170,-0.47856,3.85701,6.32862,-9.30047
-0.17840,1.68290,-0.11431,0.35914,-0.10945,0.21046,1.05746,-0.46434,-1.25591,2.55802,0.14027,-0.54624,0.46280,0.51524,0.54415,-0.47355,5.09234,0.04967,-11.32091
-0.17143,1.68145,-0.11156,0.38786,-0.10849,0.20798,1.04921,-0.65386,-1.41943,2.68610,-0.04277,-0.12896,0.46175,0.50914,0.55892,-0.46387,1.17357,-8.83134,-13.88319
-0.16343,1.68002,-0.10831,0.42529,-0.10724,0.21327,1.01761,-1.02481,-1.63368,2.23456,0.23386,0.61246,0.45837,0.50547,0.57781,-0.44781,-5.42519,-22.25682,-16.01466
-0.15541,1.67862,-0.10475,0.45600,-0.10591,0.22196,1.08193,-1.29352,-1.81675,2.14168,0.18347,0.70886,0.45380,0.49922,0.59758,-0.43330,1.49945,-19.88420,-13.93945
-0.14683,1.67714,-0.10100,0.48934,-0.10605,0.23181,1.21330,-1.50624,-2.03630,1.77473,-0.09361,0.64937,0.44886,0.48990,0.61925,-0.41839,6.66320,-14.97849,-14.57920
-0.13862,1.67541,-0.09733,0.50989,-0.10993,0.23833,1.35968,-1.57562,-2.17994,1.45870,-0.41647,0.64341,0.44431,0.47836,0.63936,-0.40617,10.87832,-9.10964,-12.30180
-0.13015,1.67331,-0.09339,0.53015,-0.11831,0.24759,1.59290,-1.60690,-2.32007,1.34063,-0.71866,0.78375,0.43854,0.46324,0.66091,-0.39532,16.42376,-3.64530,-9.22706
-0.12155,1.67084,-0.08915,0.54798,-0.13050,0.25919,1.79661,-1.68167,-2.43419,1.36718,-1.06768,0.82739,0.43116,0.44788,0.68297,-0.38349,17.05200,-5.23281,-6.89963
-0.11272,1.66815,-0.08452,0.56534,-0.14316,0.27403,1.91157,-1.85124,-2.55161,1.29663,-0.95115,1.14579,0.42213,0.43413,0.70560,-0.36804,8.85096,-11.64513,-8.54858
-0.10391,1.66539,-0.07959,0.57874,-0.15420,0.29019,1.97589,-2.03464,-2.65009,1.05396,-1.03546,1.46665,0.41204,0.42114,0.72785,-0.35085,4.30988,-13.91907,-9.94570
-0.09490,1.66196,-0.07384,0.59267,-0.17275,0.31487,2.03104,-2.31085,-2.78628,0.70177,-1.44462,1.51815,0.39918,0.40830,0.75176,-0.32986,2.51337,-16.44958,-10.33023
-0.08621,1.65772,-0.06793,0.59874,-0.20008,0.33722,2.06761,-2.57432,-2.92996,0.01652,-2.03200,1.26674,0.38536,0.39501,0.77543,-0.30687,-0.07698,-15.99327,-11.75621
-0.07799,1.65239,-0.06213,0.59678,-0.23903,0.35391,2.15899,-2.74641,-3.05944,-0.43280,-2.78721,0.89899,0.37130,0.37909,0.79835,-0.28472,3.49570,-11.54500,-9.02406
-0.07009,1.64662,-0.05670,0.59083,-0.27649,0.36167,2.28778,-2.80078,-3.13812,-0.76777,-3.36412,0.52456,0.35772,0.36071,0.81965,-0.26478,8.80555,-7.82786,-6.91578
-0.06258,1.63933,-0.05134,0.57981,-0.32791,0.36632,2.43701,-2.84234,-3.23962,-0.88272,-3.97809,0.22012,0.34353,0.33982,0.84082,-0.24400,12.40065,-4.58098,-4.63219
-0.05554,1.63057,-0.04593,0.56402,-0.39173,0.37103,2.58093,-2.87243,-3.40021,-1.19929,-4.02956,0.34715,0.32967,0.31677,0.86146,-0.22107,8.41196,-3.73631,-8.63010
-0.04863,1.62186,-0.04058,0.54992,-0.44137,0.37411,2.82521,-2.81569,-3.47165,-1.51074,-3.94804,0.44466,0.31552,0.28976,0.88078,-0.20178,16.82407,-0.08654,-5.83565
-0.04225,1.61179,-0.03519,0.53056,-0.49983,0.37649,3.28044,-2.69540,-3.39211,-1.71909,-4.20342,0.12277,0.29883,0.25582,0.89959,-0.18971,30.64961,-0.20403,9.29656
-0.03674,1.60070,-0.03004,0.50232,-0.56154,0.37515,3.70751,-2.63377,-3.26429,-2.40577,-4.76834,-0.35101,0.27965,0.22039,0.91707,-0.17946,30.84809,-3.99651,16.04683
-0.03267,1.58842,-0.02521,0.45867,-0.62851,0.36935,3.97942,-2.68538,-3.18300,-3.65478,-5.17348,-0.68214,0.25819,0.18686,0.93313,-0.16641,19.54129,-8.56224,9.80542
-0.03036,1.57477,-0.02086,0.39739,-0.70118,0.35726,4.13802,-2.83180,-3.17013,-4.91618,-5.48555,-1.27221,0.23412,0.15453,0.94810,-0.14971,10.26470,-12.14115,1.17883
-0.03002,1.55982,-0.01737,0.31987,-0.77850,0.33487,4.22866,-3.02130,-3.24843,-6.11329,-5.74996,-2.05651,0.20839,0.12245,0.96172,-0.12910,5.40874,-12.92188,-6.05913
-0.03106,1.54439,-0.01475,0.23926,-0.84629,0.30505,4.33423,-3.20933,-3.35036,-7.27636,-5.63238,-2.78019,0.18098,0.08887,0.97361,-0.10694,4.91643,-12.89163,-11.90192
-0.03508,1.52720,-0.01390,0.13290,-0.92388,0.25547,4.63901,-3.47619,-3.37042,-8.15468,-5.24989,-3.99740,0.14710,0.04894,0.98405,-0.08729,14.62240,-20.17092,-6.81228
-0.04130,1.50942,-0.01522,0.01630,-0.99457,0.18480,5.05128,-3.79557,-3.29310,-8.83124,-4.65864,-5.94388,0.10770,0.00452,0.99162,-0.07120,21.23434,-29.76521,1.98118
-0.04980,1.49153,-0.01928,-0.10967,-1.05311,0.08877,5.47687,-4.16302,-3.18756,-9.30007,-3.60122,-7.80635,0.06372,-0.04252,0.99546,-0.05646,22.82223,-33.74763,3.63819
-0.06035,1.47405,-0.02632,-0.23959,-1.09293,-0.03077,5.79976,-4.56982,-3.13060,-9.23942,-2.18836,-9.62012,0.01589,-0.08907,0.99509,-0.04009,17.85143,-35.85116,0.58729
-0.07374,1.45780,-0.03793,-0.38627,-1.10727,-0.19455,5.92679,-4.94740,-3.26571,-8.86808,0.18068,-11.47509,-0.03249,-0.13171,0.99061,-0.01701,8.04082,-23.60151,-13.63997
-0.08715,1.44367,-0.05186,-0.50520,-1.08824,-0.36112,5.93517,-5.16524,-3.47345,-8.11994,2.47824,-12.80448,-0.07733,-0.17121,0.98215,0.00939,3.84149,-10.41202,-19.57616
-0.10146,1.43198,-0.06961,-0.61219,-1.03591,-0.54953,5.96403,-5.34210,-3.68697,-7.28776,5.27375,-14.45242,-0.12239,-0.21091,0.96910,0.03720,5.55783,-5.90325,-18.44351
-0.11621,1.42410,-0.09169,-0.70394,-0.93847,-0.76318,6.03148,-5.53575,-3.82498,-5.98311,8.91889,-16.05650,-0.16870,-0.25075,0.95112,0.06346,6.33990,-8.02378,-14.64999
-0.13054,1.42098,-0.11771,-0.77073,-0.79120,-0.99097,6.10423,-5.84320,-3.84469,-3.87560,12.56507,-16.27112,-0.21893,-0.28982,0.92775,0.08570,4.94197,-17.12826,-9.83525
-0.14353,1.42303,-0.14637,-0.80303,-0.59732,-1.20931,6.03947,-6.34180,-3.74517,-1.15627,15.70035,-14.74661,-0.27592,-0.32394,0.89916,0.10216,-7.41729,-29.17637,-10.65677
-0.15433,1.43040,-0.17606,-0.79725,-0.36573,-1.39894,5.72225,-7.05747,-3.59551,1.60667,18.23303,-12.33495,-0.34108,-0.34836,0.86586,0.11227,-26.53778,-39.06026,-18.76392
-0.16238,1.44325,-0.20602,-0.75156,-0.10098,-1.55270,5.08204,-7.92148,-3.48698,4.69612,20.39400,-9.74332,-0.41405,-0.35945,0.82805,0.11704,-44.66285,-43.62949,-35.84102
-0.16777,1.45885,-0.23482,-0.67709,0.14598,-1.65584,4.31456,-8.72619,-3.44172,7.58638,21.79814,-7.58574,-0.48907,-0.36065,0.78537,0.11806,-56.07170,-42.73934,-51.53139
-0.16676,1.48512,-0.26468,-0.52483,0.49761,-1.75364,2.98159,-9.73982,-3.51008,11.64749,22.66268,-4.95910,-0.57389,-0.33737,0.73810,0.10976,-68.75152,-39.41161,-69.03924
-0.16166,1.51405,-0.29255,-0.34186,0.82118,-1.80421,1.68081,-10.24579,-3.75661,15.12967,23.47356,-2.59977,-0.64765,-0.30401,0.69086,0.10407,-65.22719,-17.35373,-79.71384
-0.15482,1.54234,-0.31184,-0.12140,1.14636,-1.82017,0.37517,-10.29726,-4.18296,17.59924,23.57640,0.00373,-0.71078,-0.25835,0.64631,0.10161,-51.51437,11.69351,-82.34987
-0.15459,1.56768,-0.32713,0.09479,1.42842,-1.80601,-0.66943,-9.93768,-4.72998,20.01653,23.71677,2.24441,-0.76139,-0.20719,0.60512,0.10581,-30.96190,34.96432,-90.24162
-0.14998,1.59776,-0.33566,0.42298,1.80384,-1.75165,-1.81067,-8.93322,-5.56181,22.61104,24.17634,4.37776,-0.79560,-0.13828,0.57771,0.11897,-1.91729,66.03937,-84.69792
-0.14048,1.63068,-0.34366,0.76789,2.15430,-1.68380,-2.71977,-8.05080,-6.42579,27.21802,26.64525,5.21039,-0.82436,-0.06420,0.54633,0.13352,14.04321,64.92245,-88.95424
-0.12420,1.66781,-0.35053,1.19052,2.52958,-1.60850,-3.78128,-7.61430,-7.48512,32.02572,27.58478,4.92634,-0.85258,0.02673,0.50194,0.14298,2.40119,40.35557,-99.57646
-0.10279,1.70762,-0.35553,1.77756,2.96091,-1.52415,-5.17350,-7.90725,-8.90766,44.93131,31.79223,7.62498,-0.88150,0.13970,0.42781,0.14291,-36.01524,-53.02463,-97.05559
-0.07383,1.75337,-0.35985,2.43575,3.38045,-1.41435,-6.42644,-7.59804,-11.04546,51.60371,28.89227,8.68410,-0.88009,0.27966,0.35125,0.15449,-13.96574,-5.49147,-170.66230
-0.03240,1.80155,-0.36413,3.21933,3.75923,-1.28420,-6.29505,-7.00292,-13.36636,62.44863,22.45528,12.27768,-0.84781,0.41013,0.27126,0.19859,48.09314,-61.63968,-162.34900
0.02565,1.85032,-0.36810,4.03056,4.01220,-1.12007,-4.70695,-6.22179,-14.93335,74.59991,16.10906,18.59456,-0.79387,0.50468,0.20471,0.27049,109.35830,-109.95810,-79.12640
0.10664,1.89182,-0.35736,5.33601,4.17335,-0.74566,-0.95279,-5.48837,-16.58432,88.54243,0.08908,31.28304,-0.70166,0.56669,0.14992,0.40503,156.22310,-204.68910,-22.63160
0.20158,1.92696,-0.33799,6.44149,4.07872,-0.29733,2.13115,-5.73204,-17.41847,95.72688,-17.47778,44.14110,-0.59791,0.60029,0.07826,0.52538,93.44989,-255.77190,-12.14469
0.32124,1.93935,-0.29657,7.79214,3.65740,0.46296,5.37847,-6.81925,-18.70959,98.20557,-45.28502,65.49235,-0.44919,0.60887,-0.01800,0.65359,22.40526,-240.28260,-68.21798
0.45853,1.90526,-0.21815,9.27986,2.55081,1.71082,8.29093,-7.95010,-21.54136,88.93846,-99.29838,89.25764,-0.22152,0.60845,-0.14102,0.74889,29.59019,-207.08840,-174.86450
0.58847,1.83335,-0.12817,10.10712,1.01192,2.86429,9.63843,-7.18964,-24.38058,51.37199,-160.36000,101.54620,0.02631,0.61707,-0.24098,0.74864,139.52200,-109.27870,-202.52620
0.66737,1.66817,-0.01176,10.22443,-1.64815,4.24070,12.71902,-3.71158,-25.92477,-34.43392,-217.54310,89.21761,0.30122,0.61994,-0.23980,0.68369,200.32170,-201.75760,-103.83760
0.62706,1.42617,0.08778,8.76105,-5.22287,5.28288,20.10662,1.51402,-23.38725,-141.70670,-227.00460,34.15268,0.58116,0.58293,-0.05480,0.56519,212.40360,-497.61090,-142.64700
0.51006,1.20334,0.12581,6.27439,-8.20157,5.24924,29.27513,4.30882,-17.89507,-206.98070,-196.29840,-42.55766,0.79727,0.42975,0.21264,0.36669,180.32040,-462.36090,-512.74800
0.36884,1.02175,0.11336,3.61146,-10.20291,4.42570,39.22903,3.15852,-10.71748,-231.68060,-141.75840,-95.90781,0.86460,0.11339,0.48406,0.07273,430.59430,-100.61180,-870.90120
0.43549,0.83517,0.03196,-0.00264,-11.70956,2.11989,42.79205,-7.72082,-9.09310,-209.16460,-20.24745,-175.25200,0.75413,-0.33409,0.56186,-0.06312,567.68070,535.75050,-453.77130
0.55403,0.73675,-0.07877,-2.20277,-10.86961,-0.41875,33.03262,-9.68810,-12.57463,-106.07120,113.73530,-146.08520,0.74003,-0.46619,0.48404,0.02701,-72.47708,695.84860,172.14230
0.57224,0.69794,-0.14949,-2.97039,-9.34381,-1.62716,23.74834,-4.18681,-14.19770,-23.14163,130.33260,-60.36516,0.81579,-0.44990,0.34637,0.11003,-200.82330,556.46880,754.11710
0.58180,0.70121,-0.17969,-3.07715,-7.51485,-1.93764,17.04681,-2.98080,-8.99657,20.01353,102.25100,7.46066,0.83650,-0.36274,0.38583,0.14078,-432.80980,129.46730,377.35500
0.56618,0.67814,-0.18096,-3.02530,-6.36897,-1.65600,12.80616,-7.96012,-5.51151,-6.25130,72.62386,25.07870,0.73138,-0.38612,0.54405,0.14145,-484.48080,-292.45710,-232.15020
0.52872,0.65257,-0.17414,-3.12191,-5.47256,-1.27345,8.60811,-8.02168,-4.83397,-19.50666,57.81557,28.09266,0.68246,-0.39399,0.58657,0.18699,-306.59820,5.27876,-123.66630
0.47622,0.62397,-0.16297,-3.32571,-4.79191,-0.88037,4.43979,-3.76525,-5.49776,-17.39216,41.21910,26.46447,0.70959,-0.37046,0.52237,0.29389,-183.40530,362.79370,-7.72209
0.41996,0.59454,-0.14998,-3.51241,-4.26286,-0.53259,1.72319,1.11246,-6.03923,-8.59496,38.98262,24.53699,0.75254,-0.33548,0.40803,0.39324,-55.15656,432.88570,12.33267
0.37432,0.57910,-0.13365,-3.59500,-3.75319,-0.20950,0.23024,3.60973,-6.22560,3.20414,36.95967,23.63104,0.76494,-0.31690,0.32071,0.45998,-11.20642,278.34800,0.70772
0.32265,0.55796,-0.11778,-3.57449,-3.32420,0.05812,-0.64852,3.22709,-5.94407,8.25929,33.95526,22.23674,0.74683,-0.32301,0.30112,0.49723,-42.84530,64.18613,26.50128
0.27832,0.55303,-0.09122,-3.42952,-2.77015,0.42125,-1.91634,2.59461,-5.29971,11.64097,27.29072,18.90209,0.71856,-0.31649,0.30234,0.54047,-76.09427,-9.91404,45.83624
0.23995,0.53760,-0.06983,-3.27074,-2.45068,0.64717,-2.89352,2.32344,-4.49237,15.33309,24.92106,18.62518,0.69574,-0.30020,0.30099,0.57899,-57.19742,21.90899,71.89680
0.20984,0.52738,-0.04432,-3.05121,-2.10354,0.89054,-4.21776,2.58407,-3.60712,14.50325,24.76023,15.81840,0.66807,-0.26219,0.29668,0.63001,-81.36826,36.74243,77.83026
0.18161,0.51847,-0.02076,-2.85216,-1.81158,1.05336,-5.06995,3.60554,-2.93558,16.66611,25.06010,11.10337,0.64828,-0.21214,0.26802,0.68036,-47.12225,104.49610,42.67984
0.16168,0.52131,0.00134,-2.57275,-1.40704,1.16072,-5.73178,5.03934,-2.11848,17.60398,27.53241,1.91643,0.63176,-0.14197,0.22788,0.72718,-20.67205,109.69330,25.22710
0.14189,0.52514,0.01535,-2.35858,-1.07338,1.13383,-5.53146,6.20349,-1.85613,17.36199,29.88577,-6.32974,0.62276,-0.08804,0.17431,0.75765,14.06940,105.52190,-6.50994
0.12830,0.54095,0.01858,-2.10316,-0.63405,0.96070,-4.34503,7.23363,-2.12645,14.20912,26.91303,-14.94336,0.63110,-0.05229,0.10200,0.76719,55.24811,50.75508,-59.16817
0.11282,0.55636,0.01411,-1.90963,-0.27709,0.70076,-2.59926,7.42028,-3.05838,11.29964,17.93325,-16.84837,0.64717,-0.05147,0.02552,0.76018,68.92266,-6.57585,-107.90890
0.09488,0.56468,0.01052,-1.79595,-0.09855,0.51108,-1.52496,6.54155,-3.56371,10.34763,11.18149,-14.74468,0.65340,-0.06515,-0.01950,0.75396,51.99443,-69.58229,-86.33260
0.08015,0.57215,0.00503,-1.65975,0.02967,0.33919,-0.98676,4.60224,-3.33256,11.53821,5.43382,-10.15103,0.65459,-0.09276,-0.01883,0.75004,21.11302,-133.01930,-8.85509
0.07055,0.57719,0.00059,-1.46683,0.09710,0.21289,-1.16559,2.26233,-2.03058,12.53713,1.48306,-5.88057,0.64591,-0.11186,0.02923,0.75461,-20.54194,-144.59190,89.25307
0.05933,0.57896,-0.00081,-1.33912,0.10323,0.15592,-1.24796,1.07305,-1.05634,12.08579,-0.23822,-4.63793,0.63874,-0.11608,0.06136,0.75814,-14.80120,-121.29070,110.97340
0.05172,0.57917,-0.00273,-1.19185,0.08658,0.10643,-1.21468,0.05184,-0.00072,10.97513,-1.45169,-2.85844,0.63440,-0.11639,0.10398,0.75709,-1.02107,-92.12591,103.99000
0.04984,0.57844,-0.00527,-0.99074,0.06008,0.06003,-0.96008,-0.56694,0.80647,9.51644,0.07498,-1.61180,0.63537,-0.11361,0.14016,0.75084,9.19277,-38.71680,55.05693
0.04604,0.57911,-0.00704,-0.85068,0.05789,0.03180,-0.51478,-0.30775,0.61682,8.73175,0.74186,-1.19540,0.64221,-0.11150,0.13572,0.74614,29.72015,12.08218,-0.33132
0.04086,0.58021,-0.00790,-0.76013,0.06234,0.01986,-0.24349,-0.03097,0.32227,8.99629,0.29219,-0.50959,0.64691,-0.11058,0.12553,0.74399,32.36360,29.01700,-29.65121
0.04022,0.58220,-0.00841,-0.62286,0.07755,0.01334,-0.07854,0.13615,0.15587,8.77413,0.64815,-0.08410,0.65040,-0.10924,0.11814,0.74236,13.59702,15.30736,-15.37408
0.04026,0.58446,-0.00842,-0.49868,0.09277,0.01672,-0.13146,0.01953,0.24937,7.25869,0.73043,0.53903,0.64873,-0.10846,0.12363,0.74304,-2.68508,-7.29100,5.98409
0.03992,0.58643,-0.00814,-0.40337,0.10146,0.02231,-0.15517,-0.04548,0.21931,6.43431,0.60075,0.66668,0.64718,-0.10934,0.12583,0.74388,-3.72226,-6.63253,1.26979
0.03969,0.58829,-0.00741,-0.32628,0.10723,0.02949,-0.16935,-0.06883,0.14770,6.26872,0.50002,0.70766,0.64573,-0.11060,0.12609,0.74491,-1.03344,-2.76241,-4.20634
0.04358,0.58966,-0.00577,-0.20424,0.10399,0.05013,-0.17355,0.16699,0.01874,10.41438,-1.45962,3.06115,0.64517,-0.10729,0.11886,0.74707,-1.88041,5.53986,-9.41948
0.05585,0.58876,-0.00181,0.01964,0.06845,0.10021,-0.05379,1.04017,0.04767,15.84765,-2.53370,3.23251,0.65072,-0.08415,0.09935,0.74807,7.49973,53.12539,-1.48465
0.06820,0.58835,0.00151,0.19838,0.04749,0.12873,-0.06345,1.62187,0.19386,14.04044,-1.44507,1.53034,0.65319,-0.06035,0.08561,0.74992,3.50720,55.25132,8.83520
0.08194,0.58835,0.00405,0.35833,0.03687,0.13985,-0.15268,1.99853,0.34510,9.63512,-0.32534,-0.34563,0.65297,-0.03730,0.07484,0.75275,-4.18872,33.95198,12.91032
0.09396,0.58897,0.00503,0.46090,0.03759,0.12605,-0.24424,2.03944,0.43841,5.95393,0.45002,-2.09437,0.65119,-0.02159,0.06927,0.75544,-6.57407,9.10231,8.21213
0.10443,0.59030,0.00441,0.52345,0.04611,0.09046,-0.28101,1.91738,0.47599,3.85844,0.71324,-3.24643,0.64976,-0.01087,0.06618,0.75717,-3.14162,-7.64185,4.17762
0.11490,0.59171,0.00198,0.57566,0.05312,0.03490,-0.21747,1.76366,0.48827,2.88610,0.28227,-3.80728,0.65050,-0.00231,0.06373,0.75682,3.10426,-10.09218,1.67587
0.12506,0.59264,-0.00106,0.61083,0.05351,-0.01879,-0.11543,1.65017,0.42011,2.22730,-0.07804,-3.95484,0.65242,0.00461,0.05899,0.75554,7.18020,-8.59368,-4.30587
0.13503,0.59339,-0.00432,0.63478,0.05063,-0.06577,-0.00847,1.56291,0.31853,1.90702,-0.34715,-4.06389,0.65497,0.01047,0.05292,0.75373,7.37284,-7.26828,-8.29534
0.14540,0.59395,-0.00888,0.66006,0.04528,-0.12174,0.12741,1.46113,0.22469,1.91904,-0.46484,-4.12942,0.65877,0.01497,0.04719,0.75071,8.74253,-7.23503,-8.94629
0.15652,0.59414,-0.01476,0.69003,0.03671,-0.18504,0.23776,1.36955,0.15753,1.94436,-0.79032,-3.85244,0.66255,0.01941,0.04192,0.74759,6.97977,-5.53952,-5.74322
0.16774,0.59405,-0.02024,0.71318,0.02653,-0.22912,0.30369,1.30449,0.15216,2.02266,-1.07580,-3.65180,0.66577,0.02525,0.03773,0.74478,6.30370,-5.32906,-2.58977
0.17972,0.59356,-0.02672,0.74235,0.01258,-0.27848,0.38308,1.24057,0.21712,2.28858,-1.05441,-3.54077,0.66962,0.03226,0.03564,0.74114,5.92567,-4.43950,2.44918
0.19235,0.59298,-0.03361,0.77563,0.00060,-0.32328,0.40629,1.15276,0.39281,2.59975,-1.01411,-2.87535,0.67232,0.04119,0.03762,0.73815,4.54175,-6.35082,9.44714
0.20575,0.59236,-0.04048,0.81218,-0.01035,-0.36021,0.36130,1.07290,0.63796,2.67165,-0.83984,-2.51378,0.67318,0.05247,0.04257,0.73639,-0.76915,-7.15919,16.73079
0.21938,0.59165,-0.04738,0.84468,-0.01999,-0.38927,0.31932,1.05207,0.84735,2.69308,-0.82813,-2.41202,0.67372,0.06525,0.04693,0.73461,-2.24143,-3.72706,17.82205
0.23462,0.59058,-0.05590,0.89475,-0.03291,-0.43650,0.30035,1.17026,1.11339,2.60486,-0.57015,-2.84114,0.67437,0.08363,0.05072,0.73189,-0.63412,4.95735,15.61085
0.24980,0.58940,-0.06483,0.93461,-0.04641,-0.48222,0.34742,1.44544,1.22910,2.16571,-0.98137,-2.85459,0.67670,0.10399,0.04791,0.72731,2.28217,15.88336,8.13945
0.26425,0.58814,-0.07334,0.95574,-0.05703,-0.51080,0.40302,1.65176,1.25612,1.95309,-0.99028,-2.99265,0.67938,0.12260,0.04366,0.72215,2.76127,19.59478,4.82736
0.27957,0.58662,-0.08383,0.98457,-0.06929,-0.56226,0.51182,2.04198,1.28163,1.51729,-0.37644,-3.53317,0.68343,0.14684,0.03437,0.71427,4.33064,24.18821,2.03329
0.29464,0.58567,-0.09490,1.00253,-0.07136,-0.61191,0.62584,2.44446,1.25695,0.83165,0.08749,-3.56785,0.68785,0.17211,0.02202,0.70481,5.89859,28.68793,-0.43547
0.30910,0.58493,-0.10574,1.00897,-0.06957,-0.64682,0.70038,2.76182,1.19512,0.29965,0.38355,-3.48336,0.69155,0.19630,0.00839,0.69509,4.16758,30.97595,-4.05166
0.32316,0.58498,-0.11864,1.00787,-0.05579,-0.70205,0.77774,3.22777,1.10612,-0.43236,1.42925,-3.51579,0.69510,0.22478,-0.01150,0.68277,1.70055,30.96709,-5.45630
0.33599,0.58673,-0.13217,0.99024,-0.01868,-0.75633,0.79455,3.60228,1.07645,-1.73918,3.15700,-3.28644,0.69646,0.25372,-0.03012,0.67057,-0.32177,23.57256,-0.07429
0.34795,0.58944,-0.14516,0.96414,0.02443,-0.79210,0.74119,3.87158,1.01274,-2.67924,4.03429,-2.56037,0.69573,0.28064,-0.04935,0.65937,-4.63686,23.16367,-2.08151
0.35789,0.59465,-0.15830,0.91310,0.09484,-0.82188,0.53761,4.10422,0.92282,-3.63954,4.74277,-1.37264,0.69068,0.30685,-0.07114,0.65096,-13.43738,16.47402,-1.77893
0.36731,0.60009,-0.17050,0.86536,0.15439,-0.83245,0.35169,4.18182,0.89480,-4.23972,5.15570,-0.53053,0.68436,0.33107,-0.08941,0.64347,-16.98917,7.05849,2.13433
0.37501,0.60733,-0.18171,0.80390,0.22685,-0.82719,0.13039,4.19144,0.89401,-4.46644,5.17085,1.24457,0.67572,0.35409,-0.10657,0.63771,-14.37066,2.00717,3.17442
0.38127,0.61615,-0.19084,0.73255,0.30827,-0.79197,-0.26773,4.15793,0.89799,-4.42505,5.00794,3.20078,0.66158,0.37562,-0.12462,0.63694,-21.01532,-4.08862,7.27182
0.38789,0.62450,-0.19896,0.68139,0.36682,-0.75033,-0.65248,4.14852,0.88749,-4.24267,4.88546,3.94610,0.64533,0.39642,-0.14418,0.63688,-28.57079,-2.13625,8.48218
0.39293,0.63485,-0.20481,0.61731,0.44210,-0.68377,-1.23402,4.14799,0.87985,-3.89528,4.62579,4.45310,0.62185,0.41604,-0.16690,0.64215,-34.40937,-2.36199,10.13719
0.39795,0.64520,-0.21017,0.56527,0.50312,-0.62305,-1.78001,4.14513,0.86784,-3.67301,4.20030,4.23599,0.59590,0.43427,-0.19068,0.64804,-37.46824,-1.71245,10.84447
0.40236,0.65589,-0.21502,0.51515,0.55690,-0.56788,-2.27484,4.10367,0.85882,-3.63469,3.65530,3.53448,0.56797,0.45048,-0.21431,0.65463,-35.24393,-3.35805,10.80985
0.40563,0.66717,-0.21955,0.45720,0.60840,-0.51799,-2.71737,3.98657,0.86117,-3.73905,2.84589,2.47396,0.53857,0.46412,-0.23664,0.66222,-28.28714,-6.68155,9.33781
0.40897,0.67768,-0.22488,0.41250,0.63853,-0.49031,-2.94045,3.83568,0.86931,-3.85113,2.22760,1.80842,0.51201,0.47658,-0.25592,0.66725,-20.02331,-11.04348,8.69833
0.41149,0.68822,-0.23028,0.36644,0.66238,-0.47014,-3.04710,3.62460,0.88782,-3.94685,1.72060,1.19362,0.48723,0.48705,-0.27195,0.67188,-10.60434,-15.27642,7.57427
0.41218,0.69918,-0.23564,0.30317,0.68683,-0.45320,-3.01533,3.27033,0.96134,-4.02293,1.21174,0.62672,0.46558,0.49517,-0.28143,0.67738,3.32647,-19.81715,8.18403
0.41306,0.70958,-0.24146,0.25533,0.69868,-0.44618,-2.89047,2.98636,1.04566,-4.00435,0.63624,0.31684,0.44585,0.50414,-0.28871,0.68096,10.81949,-21.21371,9.22613
