posX, posY, posZ, velX, velY, velZ, angVelX, angVelY, angVelZ, accX, accY, accZ, rotX, rotY, rotZ, rotW, angAccX, angAccY, angAccZ
0.30740,0.96709,-0.39254,-0.00296,0.49043,-0.12737,1.02943,0.17882,1.15876,-0.79561,5.02115,-0.65747,0.24979,0.79936,-0.09476,0.53819,22.13404,-0.16014,18.59631
0.30640,0.97923,-0.39478,-0.01638,0.56467,-0.13498,1.36472,0.04543,1.46344,-0.95613,4.06187,-0.40746,0.24545,0.80372,-0.06964,0.53753,21.55023,-7.07538,20.69938
0.30564,0.99075,-0.39695,-0.02385,0.61538,-0.13997,1.73647,-0.06213,1.56335,-0.41941,3.07291,-0.56326,0.24643,0.80671,-0.04440,0.53528,24.71209,-6.97019,8.88976
0.30500,1.00239,-0.39934,-0.02777,0.65642,-0.14771,2.31138,-0.12309,1.53980,-0.47160,2.57530,-1.16672,0.25455,0.80924,-0.01385,0.52929,35.60521,-2.64658,0.63392
0.30332,1.01666,-0.40350,-0.05035,0.73700,-0.18638,3.43351,-0.01871,1.32876,-1.19754,3.95512,-1.61673,0.27670,0.81219,0.02830,0.51282,43.34893,12.65981,-6.75603
0.30066,1.04148,-0.41147,-0.06984,0.79994,-0.23015,3.27197,0.14006,1.24122,-1.33645,4.70999,-2.39864,0.28543,0.81722,0.06965,0.49581,-5.44052,15.19476,-1.55575
0.29856,1.05727,-0.41749,-0.08764,0.86952,-0.27471,2.84114,0.20735,1.36451,-0.85626,5.75497,-3.50773,0.27959,0.82123,0.08252,0.49050,-29.21395,-3.93920,2.20204
0.29623,1.07393,-0.42380,-0.10594,0.93688,-0.31367,2.62388,0.28820,1.41622,-2.45347,5.39849,-3.59419,0.27653,0.82511,0.09725,0.48297,-28.27408,4.49252,13.98666
0.29209,1.09312,-0.43122,-0.14841,1.02817,-0.36187,2.66558,0.39660,1.46076,-3.29089,5.61358,-2.97599,0.27683,0.82883,0.11729,0.47185,1.28816,5.93817,4.72747
0.28731,1.11174,-0.43850,-0.19011,1.09221,-0.39625,2.61807,0.44326,1.48103,-3.77102,5.18900,-2.51170,0.27620,0.83170,0.13543,0.46222,1.97422,6.06131,3.02163
0.28125,1.13133,-0.44634,-0.24364,1.15786,-0.43241,2.41240,0.42371,1.45773,-4.22702,4.31995,-2.39179,0.27375,0.83376,0.14868,0.45586,-14.45962,-1.23180,-0.18534
0.27407,1.15115,-0.45427,-0.30265,1.21340,-0.46224,2.32615,0.37800,1.38852,-4.48073,3.67893,-2.34790,0.27372,0.83437,0.16332,0.44969,-10.48989,-4.52502,-4.32420
0.26570,1.17130,-0.46235,-0.36637,1.26281,-0.48777,2.52998,0.43226,1.30849,-4.81763,3.32751,-2.17641,0.27879,0.83448,0.18415,0.43818,8.18999,2.61728,-5.25387
0.25609,1.19174,-0.47047,-0.43617,1.30800,-0.50939,2.95110,0.61275,1.23195,-5.28745,3.17675,-1.61729,0.28854,0.83435,0.21057,0.41985,25.70332,14.52414,-4.76133
0.24581,1.21228,-0.47843,-0.50008,1.34431,-0.52338,3.34078,0.81619,1.18846,-5.49705,2.91692,-0.97104,0.29871,0.83380,0.23819,0.39851,31.20780,19.79120,-1.82182
0.23182,1.23384,-0.48626,-0.60981,1.39195,-0.53294,3.72643,1.08972,1.12229,-5.65902,1.89346,0.29269,0.31103,0.83269,0.26617,0.37288,18.85448,16.28070,-1.20609
0.21940,1.25395,-0.49335,-0.67485,1.40976,-0.52893,3.73048,1.15468,1.07104,-5.45315,1.17450,0.87809,0.31793,0.83108,0.28705,0.35471,4.81708,9.29855,-1.54252
0.20622,1.27372,-0.50003,-0.73619,1.41860,-0.51922,3.62985,1.15861,0.99901,-5.07836,0.36601,1.00586,0.32389,0.82896,0.30488,0.33907,-6.69163,2.38328,-4.00886
0.19142,1.29270,-0.50612,-0.80947,1.41710,-0.50187,3.52942,1.20380,0.86907,-4.45808,-0.45981,1.09364,0.33176,0.82636,0.32062,0.32289,-8.18181,3.23306,-6.86933
0.17695,1.31058,-0.51193,-0.86602,1.40502,-0.48251,3.49928,1.33358,0.71360,-4.04541,-1.01619,1.46065,0.34220,0.82327,0.33587,0.30384,-5.36369,10.26788,-7.93369
0.16314,1.32884,-0.51780,-0.89622,1.39534,-0.46886,3.49377,1.42484,0.63627,-3.79455,-1.18189,1.82763,0.35144,0.81965,0.35194,0.28428,-2.47669,12.23012,-7.93414
0.14674,1.34544,-0.52174,-0.95947,1.36921,-0.42899,3.51065,1.61108,0.47045,-3.44530,-1.44386,2.54927,0.36485,0.81518,0.36578,0.26186,-0.60298,12.23730,-6.73318
0.13059,1.36155,-0.52498,-1.01072,1.34443,-0.38403,3.55883,1.76830,0.38786,-3.21219,-1.38515,2.99128,0.37685,0.81005,0.38080,0.23832,1.88564,11.66704,-3.63019
0.11459,1.37814,-0.52834,-1.04656,1.32644,-0.35025,3.49583,1.86604,0.37675,-2.88938,-1.48590,2.99037,0.38583,0.80584,0.39378,0.21608,-0.13926,8.66692,0.11154
0.09755,1.39444,-0.53066,-1.08782,1.30412,-0.31033,3.11092,1.90024,0.39297,-2.35664,-1.43538,2.62781,0.39071,0.80559,0.39861,0.19871,-20.37929,2.10970,3.86619
0.08085,1.41055,-0.53313,-1.11671,1.28509,-0.27900,2.56545,1.88296,0.43420,-1.91076,-1.35074,2.43648,0.39243,0.80834,0.39781,0.18529,-35.55631,-2.35907,6.89155
0.06439,1.42701,-0.53568,-1.13357,1.27145,-0.25666,2.10686,1.85287,0.47757,-1.58369,-1.32682,2.34885,0.39331,0.81155,0.39604,0.17277,-42.61470,-5.29407,9.43508
0.04755,1.44262,-0.53658,-1.15233,1.24975,-0.21665,1.45516,1.82276,0.56048,-0.95175,-1.22716,2.65280,0.39053,0.81933,0.38649,0.16373,-41.85627,-4.56099,10.08536
0.03118,1.45807,-0.53685,-1.16032,1.22933,-0.17431,1.06170,1.81806,0.63173,-0.42934,-1.35180,3.06361,0.38896,0.82522,0.38017,0.15230,-31.15120,-3.13912,9.03153
0.01479,1.47296,-0.53560,-1.16468,1.20067,-0.11826,0.84222,1.86655,0.72891,-0.29295,-1.87743,3.62613,0.38762,0.83036,0.37595,0.13755,-14.57879,1.17296,7.46269
-0.00147,1.48756,-0.53411,-1.16660,1.17392,-0.07143,0.74329,1.91429,0.79037,-0.06817,-2.29299,4.09184,0.38727,0.83411,0.37345,0.12172,-8.75033,3.41565,7.62405
-0.01726,1.50065,-0.53045,-1.16264,1.13289,-0.00186,0.72668,1.95239,0.83443,0.49065,-2.63857,4.49561,0.38731,0.83678,0.37244,0.10521,-1.86783,2.43030,3.53867
-0.03282,1.51370,-0.52619,-1.15356,1.09331,0.06212,0.76068,1.94057,0.83441,0.79761,-2.83041,4.59869,0.38804,0.83800,0.37303,0.08957,1.84312,0.37269,0.03878
-0.04816,1.52602,-0.52086,-1.14256,1.05148,0.12448,0.83582,1.93924,0.83850,0.70267,-3.06933,4.12164,0.38881,0.83846,0.37479,0.07308,4.28651,-1.30868,-0.01548
-0.06326,1.53790,-0.51560,-1.13054,1.01206,0.17300,0.91932,1.96807,0.81007,1.28031,-3.32773,3.74920,0.39082,0.83805,0.37660,0.05575,6.66349,2.17332,-1.76367
-0.07715,1.54865,-0.50963,-1.10357,0.96480,0.22260,1.00851,2.03182,0.69197,2.37308,-3.37900,3.29417,0.39596,0.83597,0.37804,0.03814,4.43451,4.43476,-6.05453
-0.08935,1.55807,-0.50290,-1.05739,0.91074,0.27577,1.21606,2.16554,0.45299,2.95439,-3.11138,3.22966,0.40641,0.83004,0.38150,0.01827,8.97638,9.11271,-15.47747
-0.10210,1.56834,-0.49677,-1.02924,0.87869,0.30895,1.39881,2.26877,0.31412,2.64289,-2.94920,3.30258,0.41529,0.82390,0.38564,-0.00253,13.71658,11.81894,-17.60074
-0.11393,1.57700,-0.48880,-0.99444,0.83089,0.36105,1.60304,2.37671,0.21952,2.05706,-3.04161,3.36059,0.42400,0.81650,0.39103,-0.02522,13.98214,10.07721,-9.38119
-0.12635,1.58555,-0.48073,-0.97340,0.78982,0.40256,1.55233,2.31545,0.27179,1.53984,-3.06935,2.95168,0.42670,0.81359,0.39268,-0.04243,2.17381,-1.17757,0.56093
-0.13894,1.59392,-0.47294,-0.95989,0.75461,0.43199,1.32448,2.15349,0.39817,1.19516,-3.03065,2.30679,0.42524,0.81459,0.39066,-0.05471,-12.40320,-12.61494,9.71728
-0.15094,1.60097,-0.46448,-0.94038,0.70688,0.46436,0.98300,1.96898,0.54183,1.24624,-2.85104,1.84671,0.42175,0.81857,0.38476,-0.06353,-22.05969,-15.12826,11.95604
-0.16250,1.60772,-0.45551,-0.91856,0.66340,0.49626,0.84675,1.89360,0.61788,1.68241,-3.10615,2.44649,0.42040,0.81971,0.38154,-0.07601,-10.14102,-5.82379,7.43994
-0.17409,1.61454,-0.44653,-0.90200,0.63031,0.52266,0.73875,1.77357,0.67775,1.90595,-3.46119,2.80928,0.41822,0.82085,0.37917,-0.08671,-6.97847,-7.74855,6.06286
-0.18401,1.61857,-0.43519,-0.86552,0.56343,0.57554,0.48501,1.39879,0.75451,1.57564,-2.72157,2.10251,0.41179,0.82549,0.37602,-0.08720,-14.74833,-22.88098,5.46422
-0.19429,1.62370,-0.42490,-0.84066,0.52336,0.60439,0.62012,1.41233,0.76058,1.41549,-2.59442,1.43942,0.41049,0.82380,0.37777,-0.10073,5.21597,-4.52262,0.38410
-0.20421,1.62823,-0.41499,-0.81544,0.48259,0.62279,0.83192,1.55826,0.70722,1.98864,-3.15744,0.93126,0.41214,0.81925,0.38057,-0.11888,16.29545,11.23344,-3.71102
-0.21352,1.63209,-0.40586,-0.78497,0.44044,0.62861,0.85167,1.62001,0.62695,2.45315,-3.24090,0.12284,0.41448,0.81607,0.38017,-0.13304,5.93796,6.92918,-6.97399
-0.22218,1.63552,-0.39738,-0.75119,0.40087,0.62352,0.64903,1.60357,0.60335,2.70473,-2.80229,-0.50941,0.41549,0.81651,0.37453,-0.14287,-11.76756,0.65327,-0.51688
-0.23006,1.63851,-0.38931,-0.71249,0.36256,0.61379,0.32480,1.43350,0.62952,2.32369,-2.18358,-0.57379,0.41400,0.82019,0.36653,-0.14677,-19.58199,-9.95283,2.11083
-0.23839,1.64197,-0.38121,-0.68859,0.33873,0.60696,0.08035,1.27073,0.70919,1.87536,-1.80554,-0.57541,0.41047,0.82459,0.35897,-0.15069,-20.09505,-15.12821,6.69423
-0.24635,1.64507,-0.37330,-0.66467,0.31475,0.59898,-0.12365,1.13607,0.79211,1.40243,-1.43998,-0.74814,0.40627,0.82943,0.35095,-0.15437,-15.94970,-13.00469,8.57304
-0.25410,1.64809,-0.36567,-0.64272,0.29480,0.58874,-0.11578,1.25142,0.77133,1.11903,-0.98075,-1.01561,0.40642,0.82983,0.34478,-0.16533,-4.85810,1.07405,0.96709
-0.26164,1.65096,-0.35832,-0.61992,0.27745,0.57836,0.10625,1.61988,0.63878,1.58393,-1.17097,-0.56884,0.41207,0.82424,0.34110,-0.18568,10.83146,24.75533,-9.06128
-0.26890,1.65339,-0.35066,-0.59807,0.25707,0.57479,0.31775,1.92670,0.52446,1.87607,-1.84300,0.15628,0.41781,0.81746,0.33821,-0.20690,16.15104,27.04962,-12.16341
-0.27611,1.65508,-0.34263,-0.57791,0.22985,0.57775,0.27690,1.91469,0.57315,2.15308,-2.65306,0.61639,0.41774,0.81645,0.33250,-0.21986,3.73339,7.91042,-0.91957
-0.28438,1.65591,-0.33472,-0.55987,0.19635,0.58293,-0.03639,1.47358,0.80656,2.32268,-2.71263,0.41955,0.40900,0.82444,0.32401,-0.21915,-15.86030,-24.88609,16.21193
-0.29192,1.65610,-0.32686,-0.53575,0.16087,0.58555,-0.40482,0.85720,1.09963,2.21737,-2.59598,0.09897,0.39481,0.83703,0.31509,-0.21029,-22.97047,-45.91036,24.28388
-0.29774,1.65558,-0.31864,-0.50412,0.12099,0.58778,-0.59191,0.35623,1.26684,2.14796,-2.58607,-0.06900,0.38150,0.84739,0.30937,-0.20168,-14.34549,-41.24566,18.55854
-0.30210,1.65488,-0.31014,-0.46573,0.08597,0.58908,-0.45114,0.20929,1.18823,2.08328,-1.77126,-0.22684,0.37516,0.85015,0.30961,-0.20159,3.53805,-19.85491,0.70035
-0.30608,1.65417,-0.30159,-0.42991,0.05790,0.59111,0.02497,0.52516,0.90270,1.79191,-1.67589,-0.05247,0.37777,0.84304,0.31589,-0.21629,28.27416,16.94219,-19.77967
-0.31009,1.65332,-0.29334,-0.40175,0.03326,0.59006,0.60028,1.05321,0.60281,2.15861,-1.78955,-0.32252,0.38403,0.83022,0.32451,-0.24073,39.10678,41.34099,-25.37136
-0.31342,1.65215,-0.28569,-0.36922,0.00781,0.57815,0.89574,1.28635,0.45871,2.71432,-1.96706,-0.97291,0.38645,0.82130,0.33031,-0.25888,22.25381,22.93239,-12.40984
-0.31705,1.65130,-0.27841,-0.34811,-0.00691,0.56511,0.88594,1.19667,0.48174,2.45415,-1.65768,-1.40427,0.38364,0.81925,0.33192,-0.26734,6.07556,0.22316,-2.86535
-0.31973,1.64983,-0.27211,-0.31795,-0.02739,0.54094,0.78099,0.94087,0.61839,1.73571,-1.22222,-1.51403,0.37617,0.82150,0.33234,-0.27052,-5.53053,-16.07275,7.32066
-0.32245,1.64830,-0.26604,-0.29419,-0.04532,0.51747,0.67354,0.65088,0.77919,1.33516,-0.97410,-1.63307,0.36655,0.82529,0.33273,-0.27171,-5.38599,-19.56448,10.34984
-0.32507,1.64698,-0.26029,-0.27324,-0.05642,0.49404,0.63819,0.54766,0.83036,1.15697,-0.54776,-1.78919,0.35998,0.82645,0.33336,-0.27615,-4.13854,-12.75186,5.50629
-0.32770,1.64565,-0.25467,-0.25647,-0.06479,0.47473,0.65596,0.58482,0.80640,1.24698,-0.80213,-1.57200,0.35615,0.82515,0.33428,-0.28379,1.27346,1.11878,-0.88600
-0.32995,1.64400,-0.24957,-0.23799,-0.07640,0.45166,0.62531,0.61053,0.78031,1.47202,-0.94545,-1.80879,0.35289,0.82422,0.33406,-0.29075,-0.59361,3.86281,-1.74253
-0.33161,1.64219,-0.24525,-0.21435,-0.08786,0.42168,0.48987,0.53935,0.78060,1.65495,-0.77048,-1.78832,0.34905,0.82561,0.33173,-0.29407,-7.15084,-2.87390,-0.51358
-0.33331,1.64052,-0.24061,-0.19702,-0.09561,0.40261,0.36821,0.39700,0.80469,1.44546,-0.62138,-1.46995,0.34370,0.82830,0.32980,-0.29499,-10.23930,-10.90028,1.54264
-0.33472,1.63889,-0.23601,-0.17976,-0.10121,0.38754,0.27398,0.25198,0.82031,1.36975,-0.26675,-1.16402,0.33802,0.83129,0.32829,-0.29482,-8.16477,-13.42586,2.04037
-0.33544,1.63736,-0.23146,-0.15581,-0.10420,0.37453,0.26593,0.20129,0.73941,1.19281,-0.00682,-0.63637,0.33503,0.83183,0.32875,-0.29619,-2.42968,-6.22014,-3.60574
-0.33609,1.63594,-0.22665,-0.13485,-0.10468,0.36816,0.37272,0.37263,0.54895,1.08321,0.21140,-0.40297,0.33691,0.82748,0.33109,-0.30356,4.71295,8.24348,-10.98714
-0.33651,1.63474,-0.22182,-0.11495,-0.10197,0.36324,0.56885,0.78719,0.26786,1.08714,0.06509,-0.29155,0.34437,0.81737,0.33446,-0.31851,11.59851,26.67591,-17.97245
-0.33712,1.63342,-0.21706,-0.10094,-0.10128,0.35836,0.66345,1.03234,0.08485,1.23266,-0.25802,-0.40281,0.35020,0.80902,0.33671,-0.33086,8.42640,23.38263,-14.51854
-0.33770,1.63199,-0.21258,-0.08980,-0.10343,0.35082,0.62844,1.04914,0.01293,0.95846,-0.34859,-0.62611,0.35319,0.80458,0.33731,-0.33784,-1.05679,5.53918,-6.91915
-0.33831,1.63049,-0.20841,-0.08134,-0.10610,0.34058,0.54784,0.96088,-0.01611,0.43038,-0.15646,-0.81621,0.35480,0.80224,0.33739,-0.34162,-6.06483,-6.39196,-2.33332
-0.33904,1.62885,-0.20448,-0.07588,-0.10952,0.32840,0.49066,0.95211,-0.04604,0.28636,-0.27757,-0.92245,0.35716,0.79902,0.33698,-0.34705,-4.46164,-1.56266,-1.65153
-0.33992,1.62719,-0.20074,-0.07364,-0.11239,0.31618,0.43299,0.90259,-0.03656,0.22378,-0.18886,-0.76518,0.35833,0.79676,0.33638,-0.35159,-4.08607,-1.41427,-0.10907
-0.34092,1.62556,-0.19683,-0.07352,-0.11435,0.30936,0.40838,0.78127,-0.00853,-0.13089,0.00041,-0.26900,0.35778,0.79550,0.33707,-0.35434,-3.47013,-8.84505,2.17317
-0.34207,1.62401,-0.19261,-0.07568,-0.11396,0.30823,0.44339,0.71604,0.01690,-0.29830,0.18755,0.02586,0.35682,0.79326,0.33886,-0.35859,1.55624,-6.88557,1.70780
-0.34343,1.62275,-0.18823,-0.08054,-0.10982,0.30988,0.53178,0.66355,0.03805,-0.50669,0.44215,0.13777,0.35507,0.79030,0.34233,-0.36354,5.85042,-3.97770,1.43548
-0.34512,1.62170,-0.18386,-0.08935,-0.10334,0.31114,0.62430,0.66422,0.07692,-0.82070,0.51654,0.01113,0.35290,0.78677,0.34561,-0.37015,7.10847,-0.86484,2.11857
-0.34715,1.62082,-0.17964,-0.10029,-0.09550,0.30965,0.70519,0.69000,0.14248,-0.66889,0.52750,-0.17235,0.34994,0.78316,0.34832,-0.37798,6.63484,2.18003,3.87394
-0.34932,1.62009,-0.17561,-0.11030,-0.08761,0.30621,0.74013,0.64635,0.22931,-0.57986,0.48461,-0.24220,0.34563,0.78113,0.35053,-0.38407,3.32956,-2.29690,5.77133
-0.35154,1.61937,-0.17162,-0.11897,-0.08106,0.30272,0.73708,0.53278,0.34576,-0.47035,0.31856,-0.23873,0.33948,0.78102,0.35224,-0.38819,1.15200,-7.09373,7.34758
-0.35366,1.61868,-0.16789,-0.12538,-0.07624,0.29754,0.69902,0.39067,0.45545,-0.23061,0.30000,-0.27811,0.33272,0.78218,0.35336,-0.39068,-1.89391,-9.97009,7.35487
-0.35546,1.61803,-0.16423,-0.12638,-0.07254,0.29364,0.66443,0.26542,0.51553,0.14316,0.15774,-0.13699,0.32667,0.78314,0.35480,-0.39255,-2.13621,-8.28266,4.48271
-0.35713,1.61727,-0.16041,-0.12524,-0.07057,0.29198,0.63661,0.15482,0.54357,0.18884,0.17061,-0.05406,0.32095,0.78408,0.35659,-0.39376,-2.16092,-10.95897,3.76261
-0.35850,1.61666,-0.15663,-0.11960,-0.06729,0.29024,0.63092,0.09342,0.52005,0.16269,0.14462,-0.06937,0.31650,0.78402,0.35909,-0.39521,0.03023,-3.69983,-1.65228
-0.35987,1.61588,-0.15292,-0.11467,-0.06721,0.28777,0.65474,0.18031,0.45610,0.36733,-0.17253,-0.20120,0.31450,0.78126,0.36138,-0.40015,1.59938,5.47805,-3.68803
-0.36100,1.61486,-0.14940,-0.10729,-0.07034,0.28237,0.66449,0.30984,0.36683,0.65302,-0.35769,-0.46203,0.31431,0.77738,0.36326,-0.40611,0.48953,8.70015,-5.28886
-0.36168,1.61357,-0.14611,-0.09549,-0.07663,0.27458,0.65802,0.48973,0.23631,0.93164,-0.50162,-0.53391,0.31676,0.77199,0.36469,-0.41316,-1.39473,11.92673,-7.74550
-0.36177,1.61212,-0.14305,-0.07744,-0.08462,0.26548,0.65222,0.69739,0.05127,1.29245,-0.62930,-0.54865,0.32201,0.76476,0.36646,-0.42089,-0.29209,14.98965,-11.35391
-0.36196,1.61062,-0.13987,-0.06413,-0.09039,0.25870,0.61564,0.74728,-0.04942,1.28059,-0.43928,-0.57914,0.32523,0.75983,0.36807,-0.42592,-2.42584,8.45689,-9.48697
-0.36326,1.60914,-0.13621,-0.05374,-0.09311,0.25307,0.54763,0.69145,-0.09368,0.97352,-0.05865,-0.38287,0.32703,0.75703,0.36926,-0.42850,-4.47041,-1.99177,-4.48446
-0.36449,1.60793,-0.13239,-0.04504,-0.09102,0.25106,0.51788,0.62136,-0.11020,0.68347,0.33159,-0.07337,0.32768,0.75453,0.37107,-0.43084,-3.66210,-5.98244,-1.37824
-0.36473,1.60709,-0.12888,-0.03680,-0.08610,0.25109,0.53042,0.61036,-0.11045,0.46783,0.41761,0.12132,0.32800,0.75109,0.37315,-0.43479,0.23851,-2.54049,-0.42724
-0.36310,1.60683,-0.12618,-0.02439,-0.07898,0.25082,0.58062,0.64079,-0.11913,0.77017,0.46523,0.20261,0.32846,0.74643,0.37587,-0.44009,2.95068,3.05568,-0.53636
-0.36154,1.60660,-0.12329,-0.01233,-0.07191,0.25146,0.61358,0.61296,-0.12249,0.94541,0.49851,0.24495,0.32827,0.74259,0.37896,-0.44405,3.21448,-0.05472,-0.50808
-0.36019,1.60642,-0.11979,0.00331,-0.06224,0.25557,0.66834,0.51636,-0.11453,1.01296,0.64752,0.34713,0.32647,0.73958,0.38343,-0.44657,2.87493,-5.20123,-0.24501
-0.35925,1.60620,-0.11590,0.01670,-0.05246,0.26070,0.71257,0.40096,-0.09791,1.04169,0.72180,0.37316,0.32389,0.73721,0.38818,-0.44826,3.79337,-8.04399,0.43160
-0.35819,1.60607,-0.11199,0.02897,-0.04358,0.26494,0.73822,0.28025,-0.08511,1.10069,0.74765,0.33450,0.32102,0.73541,0.39301,-0.44906,2.08399,-9.40911,1.35571
-0.35631,1.60635,-0.10793,0.05132,-0.03033,0.27060,0.77467,0.22639,-0.11800,1.20583,0.75247,0.35857,0.31940,0.73238,0.39838,-0.45044,1.63177,-4.89061,-1.49542
-0.35427,1.60650,-0.10387,0.07198,-0.02155,0.27529,0.82744,0.28604,-0.18462,1.57389,0.58443,0.37274,0.31975,0.72703,0.40373,-0.45409,3.32224,4.10142,-4.52641
-0.35219,1.60653,-0.09978,0.08816,-0.01654,0.27903,0.86666,0.31339,-0.24302,1.74824,0.45890,0.36747,0.32007,0.72178,0.40937,-0.45717,4.02471,4.74837,-5.15337
-0.34916,1.60677,-0.09549,0.11484,-0.00963,0.28487,0.92271,0.32190,-0.33882,1.67685,0.43874,0.32283,0.32103,0.71578,0.41651,-0.45947,3.45949,0.50551,-5.76925
-0.34571,1.60716,-0.09130,0.14312,-0.00152,0.28845,0.98575,0.38476,-0.45197,1.79513,0.60761,0.11463,0.32321,0.70830,0.42392,-0.46275,3.81644,3.43127,-6.38530
-0.34269,1.60748,-0.08727,0.15825,0.00347,0.28852,1.00870,0.44148,-0.51088,1.90557,0.62815,-0.08761,0.32524,0.70122,0.43018,-0.46633,3.68489,5.79743,-7.63523
-0.33803,1.60832,-0.08359,0.19397,0.01497,0.28350,1.01813,0.55438,-0.65920,2.09149,0.54056,-0.46165,0.33083,0.69185,0.43701,-0.47001,1.29543,7.58042,-8.06559
-0.33330,1.60911,-0.08012,0.22481,0.02380,0.27638,0.98067,0.51913,-0.76480,2.04355,0.47536,-0.48090,0.33498,0.68522,0.44384,-0.47039,-2.58938,0.95881,-7.36375
-0.32879,1.60979,-0.07653,0.24561,0.02903,0.27227,0.92844,0.37116,-0.81595,1.77631,0.36478,-0.31235,0.33700,0.68112,0.45099,-0.46810,-4.28056,-8.79085,-5.52389
-0.32393,1.61055,-0.07290,0.26712,0.03431,0.26996,0.89433,0.19039,-0.86225,1.39160,0.44872,-0.06554,0.33806,0.67789,0.45908,-0.46414,-4.37243,-13.85952,-4.20783
-0.31893,1.61138,-0.06922,0.28632,0.03962,0.26894,0.89880,0.06038,-0.91232,1.26795,0.42030,-0.04840,0.33901,0.67377,0.46792,-0.46060,-0.35455,-10.29197,-3.82020
-0.31371,1.61236,-0.06553,0.30466,0.04608,0.26795,0.93274,-0.00201,-0.96474,1.24180,0.55882,-0.04228,0.34032,0.66831,0.47720,-0.45808,1.54138,-6.01339,-4.55519
-0.30828,1.61344,-0.06185,0.32219,0.05249,0.26726,0.99149,0.01458,-1.02642,1.51888,0.62171,0.01394,0.34254,0.66097,0.48667,-0.45709,3.15964,-0.30605,-4.02015
-0.30199,1.61462,-0.05799,0.34881,0.05900,0.26945,1.08982,0.01219,-1.13918,1.89550,0.15446,0.24269,0.34513,0.65211,0.49835,-0.45528,6.50736,1.91397,-6.77674
-0.29544,1.61539,-0.05387,0.37378,0.05808,0.27481,1.16523,-0.10138,-1.25000,1.95276,-0.31008,0.39367,0.34638,0.64462,0.51144,-0.45045,5.25245,-5.83331,-8.21242
-0.28843,1.61567,-0.04959,0.40106,0.04998,0.28171,1.20727,-0.36554,-1.38028,1.77818,-0.72616,0.30886,0.34595,0.63935,0.52653,-0.44081,2.44077,-14.51755,-9.26765
-0.28142,1.61572,-0.04548,0.42304,0.04016,0.28466,1.19118,-0.65426,-1.50045,1.44885,-0.79365,0.08945,0.34512,0.63567,0.54146,-0.42851,-2.11165,-20.19137,-9.91268
-0.27424,1.61554,-0.04151,0.44255,0.02884,0.28465,1.19345,-0.81192,-1.61866,1.08205,-0.80592,-0.00700,0.34552,0.63025,0.55615,-0.41725,-2.35245,-14.14191,-10.11353
-0.26695,1.61507,-0.03772,0.45972,0.01546,0.28187,1.22943,-0.82456,-1.72740,1.06277,-1.08896,-0.27737,0.34745,0.62224,0.57035,-0.40841,2.68914,-2.77268,-8.09196
-0.25972,1.61432,-0.03408,0.47238,0.00081,0.27773,1.25898,-0.80012,-1.81989,0.95822,-1.38349,-0.39715,0.35003,0.61342,0.58406,-0.40009,2.85754,2.10205,-6.83854
-0.25226,1.61295,-0.03061,0.48515,-0.01954,0.27167,1.29843,-0.73509,-1.92457,0.83819,-1.47081,-0.47413,0.35379,0.60299,0.59788,-0.39215,3.38514,4.49933,-7.05209
-0.24465,1.61111,-0.02742,0.49791,-0.04310,0.26275,1.34320,-0.63720,-2.04996,0.69799,-1.49356,-0.65129,0.35894,0.59095,0.61172,-0.38437,4.12742,6.30523,-7.35185
-0.23725,1.60936,-0.02429,0.50523,-0.06040,0.25501,1.36914,-0.56024,-2.12673,0.45730,-1.45465,-0.62693,0.36363,0.57920,0.62481,-0.37672,3.50723,6.22269,-6.46130
-0.22974,1.60719,-0.02130,0.51195,-0.08022,0.24658,1.46501,-0.43808,-2.18214,0.43039,-0.97299,-0.34656,0.36829,0.56494,0.63839,-0.37103,6.49375,7.90730,-3.12796
-0.22232,1.60500,-0.01803,0.51634,-0.09661,0.24421,1.57999,-0.39018,-2.17384,0.30089,-1.54866,-0.07312,0.37032,0.55097,0.65231,-0.36577,10.37170,4.47895,0.79101
-0.21514,1.60238,-0.01450,0.51650,-0.11580,0.24634,1.65158,-0.47560,-2.19839,0.09609,-1.74375,0.31826,0.37055,0.53837,0.66736,-0.35705,5.10958,-4.43412,-0.60336
-0.20808,1.59876,-0.01057,0.51424,-0.14577,0.25373,1.71203,-0.69636,-2.24922,-0.10671,-2.00665,0.55119,0.36793,0.52681,0.68439,-0.34453,2.81976,-12.99125,-3.76818
-0.20109,1.59512,-0.00652,0.51171,-0.16983,0.26144,1.74521,-0.89510,-2.31887,-0.18131,-2.00852,0.70795,0.36524,0.51519,0.70136,-0.33058,0.62384,-15.55824,-6.53057
-0.19420,1.59071,-0.00209,0.50839,-0.20029,0.27344,1.83118,-1.09508,-2.43772,-0.40658,-1.63052,0.91093,0.36166,0.50160,0.72008,-0.31478,1.79050,-14.24732,-10.01303
-0.18725,1.58646,0.00251,0.50632,-0.22223,0.28523,2.06917,-1.08572,-2.45504,-0.30248,-1.24028,1.01801,0.35811,0.48280,0.73843,-0.30558,13.14295,-4.43585,-2.77590
-0.18014,1.58209,0.00734,0.50723,-0.24153,0.29829,2.40609,-0.99063,-2.39317,0.17494,-1.45761,0.91666,0.35328,0.46001,0.75684,-0.30130,24.27333,2.12444,6.14692
-0.17281,1.57703,0.01253,0.51144,-0.26773,0.31422,2.72581,-0.96347,-2.35889,0.47119,-2.03282,0.99430,0.34685,0.43581,0.77591,-0.29619,21.39533,-0.60430,4.41787
-0.16543,1.57189,0.01762,0.51543,-0.28918,0.32510,2.87614,-1.00684,-2.38014,0.60365,-2.42997,1.11824,0.34056,0.41363,0.79393,-0.28741,16.24906,-5.15185,1.11416
-0.15768,1.56493,0.02353,0.52391,-0.33288,0.34563,3.07625,-1.13996,-2.49180,0.64610,-3.21565,1.40187,0.33196,0.38864,0.81424,-0.27526,12.03224,-8.56963,-6.78387
-0.14995,1.55696,0.02965,0.53049,-0.38346,0.36545,3.24807,-1.28551,-2.64974,0.43903,-4.07726,1.45786,0.32282,0.36235,0.83462,-0.26056,11.61252,-9.81413,-11.29833
-0.14232,1.54748,0.03613,0.53411,-0.44588,0.38636,3.45549,-1.42073,-2.84347,0.01789,-4.87473,1.57074,0.31283,0.33294,0.85540,-0.24409,12.98197,-9.27102,-15.17520
-0.13504,1.53702,0.04268,0.53167,-0.50907,0.40371,3.70314,-1.51147,-2.99272,-0.51301,-5.58011,1.46793,0.30170,0.30043,0.87554,-0.22837,17.47186,-8.79428,-13.74846
-0.12837,1.52408,0.04945,0.52080,-0.59463,0.42042,4.11711,-1.58085,-3.11436,-1.27038,-6.53668,1.10284,0.28775,0.26089,0.89622,-0.21430,25.84035,-8.90902,-9.69144
-0.12295,1.50806,0.05593,0.49346,-0.70954,0.42937,4.75834,-1.67804,-3.14921,-2.33165,-7.70216,0.21337,0.26818,0.21272,0.91718,-0.20399,36.57225,-13.15441,-1.39881
-0.11879,1.49058,0.06150,0.45254,-0.82384,0.42304,5.35737,-1.84178,-3.13440,-3.57965,-8.66536,-1.06953,0.24433,0.16228,0.93611,-0.19408,40.04057,-19.05510,0.41335
-0.11600,1.47200,0.06607,0.40062,-0.92936,0.40351,5.78713,-2.08845,-3.17236,-4.91724,-9.20651,-2.33396,0.21717,0.11268,0.95265,-0.18053,34.99444,-24.83653,-3.49803
-0.11621,1.45027,0.06879,0.31578,-1.05671,0.36072,6.13276,-2.48894,-3.30884,-7.03867,-9.36096,-4.14078,0.18361,0.06241,0.96768,-0.16120,23.45087,-27.70484,-14.64295
-0.11965,1.42691,0.06895,0.20145,-1.18240,0.28964,6.33000,-2.95412,-3.57463,-9.03523,-8.95046,-6.37263,0.14638,0.01387,0.97991,-0.13474,13.83501,-27.29776,-26.68840
-0.12759,1.40165,0.06493,0.04274,-1.31216,0.17022,6.40298,-3.43668,-4.11487,-10.35469,-7.64514,-8.94191,0.10719,-0.03401,0.98896,-0.09647,7.54116,-17.22352,-40.34834
-0.13883,1.37678,0.05647,-0.13713,-1.41076,0.00503,6.43064,-3.79972,-4.73232,-12.11062,-4.79257,-11.93766,0.06855,-0.08213,0.99288,-0.05232,6.96515,-4.58666,-45.27616
-0.14892,1.35461,0.04783,-0.25931,-1.44829,-0.12519,6.50859,-3.99938,-5.06387,-12.67576,-2.54122,-14.15489,0.03094,-0.13081,0.99083,-0.01369,11.69213,-5.67095,-40.37503
-0.16739,1.33408,0.02694,-0.48094,-1.45255,-0.41251,6.67564,-4.34564,-5.49050,-12.12521,2.47869,-18.02560,-0.01360,-0.18197,0.98275,0.03016,11.21088,-11.47405,-29.03939
-0.18313,1.31709,0.00628,-0.61721,-1.40222,-0.63814,6.80812,-4.46711,-5.69296,-10.79031,6.25367,-19.98273,-0.05349,-0.23212,0.96876,0.06897,11.65396,-10.21354,-21.56927
-0.20078,1.30547,-0.02146,-0.75154,-1.28358,-0.91903,6.92015,-4.45534,-5.88130,-8.40727,11.07539,-20.63261,-0.08966,-0.28148,0.94920,0.10841,14.02041,0.11116,-11.07578
-0.21821,1.30160,-0.05528,-0.85590,-1.07117,-1.23678,6.92834,-4.32492,-5.92251,-4.66569,15.82983,-19.39611,-0.12103,-0.32659,0.92620,0.14437,5.39606,7.68740,-0.08761
-0.23254,1.30000,-0.08709,-0.89132,-0.86944,-1.45587,6.86062,-4.21474,-5.78877,-1.46688,18.49626,-17.53328,-0.15106,-0.36807,0.90066,0.17471,-1.55854,6.70721,9.16444
-0.24480,1.30372,-0.12092,-0.88863,-0.63748,-1.65402,6.75539,-4.15289,-5.46087,1.52963,21.07367,-15.60300,-0.17977,-0.40675,0.87376,0.19692,-12.91184,2.24403,19.70058
-0.25330,1.31836,-0.15925,-0.83138,-0.29329,-1.87762,6.54496,-4.46813,-4.70735,4.89535,22.89207,-11.86467,-0.21558,-0.44249,0.84726,0.19969,-27.86320,-23.28780,28.92715
-0.25879,1.33554,-0.19525,-0.74023,0.02239,-2.02205,6.12541,-5.22138,-3.93263,7.58181,23.97569,-8.08576,-0.26493,-0.47213,0.81883,0.19083,-51.21780,-50.69260,17.98664
-0.25973,1.36107,-0.22989,-0.59894,0.40178,-2.11817,4.94151,-6.84703,-3.11334,8.52089,24.61920,-2.89689,-0.34333,-0.48025,0.79124,0.15944,-92.76314,-75.66788,-8.82929
-0.26029,1.38593,-0.26122,-0.48199,0.69118,-2.14531,3.47637,-8.61043,-2.88937,9.93175,24.48569,-0.81123,-0.43921,-0.46927,0.75532,0.12797,-120.35110,-112.70140,-73.29288
-0.25585,1.42095,-0.29080,-0.31428,1.07218,-2.14033,1.33486,-10.50000,-3.20323,12.27951,23.52662,0.80833,-0.55284,-0.42294,0.71208,0.09181,-111.44220,-96.72912,-121.49240
-0.25064,1.45498,-0.31892,-0.17018,1.35876,-2.11498,-0.10857,-11.08987,-3.63584,14.02869,24.65389,2.51082,-0.63674,-0.37746,0.66864,0.07078,-77.30960,-46.77947,-117.78850
-0.23992,1.49803,-0.34493,0.02341,1.71568,-2.06390,-1.75268,-11.11522,-4.31443,15.53351,27.15351,4.29350,-0.70937,-0.30992,0.63064,0.05514,-52.30980,5.35954,-115.11110
-0.22052,1.55565,-0.36748,0.31418,2.22947,-1.96950,-3.62943,-10.55515,-5.59609,18.24543,30.54659,5.44524,-0.77035,-0.21345,0.59857,0.05211,-29.48602,24.82951,-127.48440
-0.20217,1.61020,-0.39122,0.52993,2.59203,-1.91268,-4.59641,-9.99980,-6.72423,18.96435,31.00610,4.50124,-0.81951,-0.12582,0.55624,0.05625,15.86914,29.13841,-124.41490
-0.17542,1.67514,-0.41458,0.82586,3.03094,-1.86284,-5.35598,-9.39776,-8.32269,26.36190,35.48635,4.40113,-0.85936,-0.02088,0.50537,0.07522,55.76625,-31.08233,-127.26150
-0.13663,1.75039,-0.43686,1.24142,3.53245,-1.80791,-5.95554,-8.51820,-10.10280,34.43574,36.90081,3.05137,-0.87921,0.09849,0.45462,0.10299,53.00743,23.39451,-137.50930
-0.08138,1.83385,-0.45883,1.81982,4.05158,-1.75923,-6.37234,-8.06976,-12.06009,48.41656,36.92829,3.93356,-0.88450,0.22856,0.38360,0.13520,55.91276,-41.90903,-128.25280
-0.00457,1.92281,-0.47718,2.60220,4.54327,-1.66525,-6.33947,-7.27841,-13.95112,64.46828,32.06338,10.51981,-0.86157,0.35854,0.31292,0.17670,52.37748,-43.78889,-131.83840
0.08668,2.01053,-0.49066,3.42530,4.90906,-1.52052,-4.79154,-5.82953,-15.48375,75.73009,25.40321,17.56431,-0.80853,0.46154,0.26363,0.25252,137.40110,-78.37360,-86.71626
0.23305,2.10188,-0.48605,4.92156,5.24682,-1.12470,-0.42005,-4.08371,-17.47181,93.59322,9.32557,29.83585,-0.70489,0.53132,0.23209,0.40860,211.50980,-198.58250,-35.99172
0.37833,2.17422,-0.47332,6.09989,5.23230,-0.68746,2.19594,-3.69415,-19.12690,106.36620,-10.90922,42.44272,-0.58401,0.59784,0.16301,0.52435,128.97150,-236.23190,-80.52042
0.55154,2.22520,-0.44229,7.41350,4.90169,-0.08164,3.84089,-3.52410,-21.51214,117.88670,-44.85130,57.79532,-0.41612,0.66840,0.06592,0.61297,73.18790,-170.62420,-162.38010
0.77859,2.21097,-0.37021,9.24533,3.65401,1.01142,5.58870,-2.48845,-25.19407,110.30160,-116.59600,78.62477,-0.16341,0.73089,-0.04037,0.66141,96.85502,-81.19873,-216.74430
0.98989,2.11911,-0.27953,10.47651,1.48743,2.16570,7.62099,0.06663,-27.86901,62.08156,-196.10900,83.27042,0.11732,0.75483,-0.10197,0.63724,152.87560,-109.94940,-213.64930
1.15639,1.98991,-0.19529,10.78137,-0.70709,2.95685,10.12705,3.29087,-28.44623,-0.35823,-242.33340,71.58783,0.37478,0.73338,-0.10318,0.55771,180.87470,-230.43950,-198.91580
1.24520,1.69136,-0.09618,9.86017,-4.86886,3.77501,16.99546,7.45270,-27.12961,-115.23720,-271.78240,22.85408,0.66068,0.62288,0.02412,0.41826,81.95050,-360.53300,-306.08620
1.20014,1.34701,-0.05073,7.13065,-8.94750,3.64976,29.00379,9.86183,-24.20310,-219.24220,-230.72530,-47.94485,0.89870,0.32666,0.24156,0.16516,68.92845,-166.75700,-662.96980
1.09602,1.06821,-0.06295,4.11533,-11.21835,2.70558,41.13837,6.71806,-21.59952,-275.79460,-133.48510,-113.75540,0.90533,-0.15125,0.37492,-0.13015,404.02000,453.26790,-895.91990
0.86620,0.87623,-0.17797,-0.11021,-11.67656,0.44078,43.34906,-5.33501,-18.74995,-227.30650,61.25434,-123.29240,0.69244,-0.53522,0.44550,-0.18870,350.78520,748.54040,-484.41520
0.71127,0.84675,-0.27745,-2.39231,-9.63230,-1.13137,26.83284,-4.44663,-19.09714,-71.59267,145.89390,-43.99369,0.76684,-0.51215,0.38542,0.03315,-368.70800,789.60300,651.55110
0.64847,0.82716,-0.29922,-2.83266,-7.87949,-1.20971,16.16628,-0.52633,-15.77150,6.79818,114.46100,18.47850,0.83390,-0.42366,0.31687,0.15724,-293.31230,547.69770,777.14430
0.61310,0.78887,-0.29000,-2.76706,-6.79662,-0.80940,12.01520,-2.48443,-10.32227,20.27353,77.83361,42.96396,0.81666,-0.38272,0.40194,0.15821,-477.52010,27.13127,402.78770
0.57919,0.75718,-0.25331,-2.70120,-5.85039,-0.08183,6.46172,-6.63412,-7.71758,-10.18074,48.87053,44.62230,0.71887,-0.37272,0.53870,0.23262,-500.98590,-167.83210,-124.19540
0.56324,0.76623,-0.21993,-2.75395,-5.28545,0.49828,1.09037,-3.97118,-6.92087,-8.38638,33.69482,36.63517,0.70757,-0.32137,0.51818,0.35715,-302.83040,278.19390,-4.64717
0.47492,0.67289,-0.18477,-2.83228,-4.90524,0.87528,-2.29345,-0.28341,-6.43055,-3.29557,33.61742,27.66518,0.71593,-0.26403,0.44661,0.46719,-172.34090,424.53640,-27.17442
0.40627,0.65318,-0.15368,-2.89858,-4.41548,1.18276,-4.23391,2.77938,-5.92144,2.18930,39.28868,18.15323,0.72060,-0.20699,0.36284,0.55339,-54.04415,313.14950,-27.66289
0.34904,0.64337,-0.12750,-2.90665,-3.87310,1.36381,-4.66233,4.02656,-5.68360,4.89736,38.96887,9.62630,0.71327,-0.18437,0.30234,0.60485,2.18675,128.58340,-10.93397
0.32359,0.62191,-0.10596,-2.81102,-3.37268,1.45225,-4.50876,3.81102,-5.38939,11.19784,33.80096,5.11566,0.69740,-0.18384,0.27311,0.63659,20.64061,20.40819,-0.26364
0.30297,0.60124,-0.08646,-2.64776,-2.94058,1.50003,-4.77742,1.93604,-4.42200,13.34240,27.98308,3.00069,0.66031,-0.18837,0.30342,0.66064,-28.54947,-85.07030,89.71942
0.28121,0.58327,-0.06584,-2.46687,-2.58201,1.51920,-5.38492,0.47465,-3.02303,10.43849,23.40352,0.07285,0.61771,-0.17349,0.34653,0.68429,-65.60638,-76.04253,142.73870
0.25921,0.56823,-0.04599,-2.30231,-2.28319,1.50201,-5.74613,0.54487,-1.78176,8.47339,21.27433,-3.28881,0.59088,-0.13558,0.36101,0.70862,-31.22643,20.51201,100.83920
0.23829,0.55708,-0.02997,-2.15637,-1.98637,1.43307,-5.80175,1.30994,-0.80996,8.58580,21.46934,-7.04458,0.57599,-0.08725,0.35700,0.73019,3.94410,78.40715,43.98066
0.21771,0.55319,-0.02061,-2.02909,-1.63335,1.27524,-5.24033,2.41897,-0.07966,5.73283,23.79426,-12.50496,0.57833,-0.03693,0.33923,0.74101,30.36257,84.88123,24.33598
0.19615,0.55291,-0.01644,-1.95380,-1.29926,1.07389,-4.20290,3.77069,-0.32612,1.23082,25.32571,-17.43326,0.59390,-0.00087,0.29289,0.74933,56.21001,75.79966,-31.26014
0.17131,0.55068,-0.01394,-1.93564,-1.06991,0.89539,-2.90265,5.17971,-1.53861,-1.97111,22.27657,-18.45346,0.61906,0.01659,0.21239,0.75590,79.04471,92.46114,-121.69600
0.14410,0.55610,-0.01955,-1.95775,-0.78005,0.64020,-1.04969,6.50255,-3.81739,-0.21578,14.75701,-13.48845,0.65581,0.00298,0.08966,0.74957,64.47636,66.32912,-206.75090
0.11808,0.56074,-0.02298,-1.96324,-0.55254,0.46528,-0.09522,6.12887,-5.03133,3.37706,11.89070,-8.66319,0.66851,-0.02333,0.01560,0.74318,19.98375,-23.03222,-115.88160
0.09317,0.56003,-0.02117,-1.93868,-0.45180,0.40310,0.03356,5.35890,-4.96657,5.92298,10.56753,-7.11848,0.66786,-0.03363,-0.01985,0.74327,-2.94135,-60.52942,-52.72134
0.07474,0.56615,-0.02296,-1.83058,-0.27644,0.30618,-0.19277,2.75330,-3.59988,7.61474,7.35349,-4.45676,0.65887,-0.06307,0.02536,0.74918,-34.22786,-137.54790,79.80170
0.05803,0.56858,-0.02324,-1.71637,-0.18484,0.24642,-0.37423,0.79398,-2.34664,7.88211,6.32723,-3.72948,0.64988,-0.08535,0.07059,0.75193,-35.41056,-143.38390,100.70710
0.04142,0.56989,-0.02292,-1.62179,-0.12889,0.20697,-0.41004,-0.14654,-1.77794,8.60573,6.17283,-3.05861,0.64382,-0.10270,0.09175,0.75268,-25.52885,-117.22160,81.21387
0.03188,0.57395,-0.02397,-1.44529,-0.04613,0.15737,-0.29419,-0.66199,-1.47893,11.27199,5.32597,-1.61924,0.64180,-0.11851,0.10378,0.75052,-0.24137,-44.59480,25.34859
0.02506,0.57800,-0.02354,-1.25981,0.02108,0.13859,-0.22368,-0.45562,-1.42340,13.90932,4.52148,-0.05727,0.64156,-0.12227,0.09590,0.75117,9.03767,6.89264,3.25517
0.02025,0.58213,-0.02191,-1.08503,0.07532,0.13920,-0.28740,-0.14339,-1.25851,14.83332,4.05745,0.78853,0.63924,-0.11861,0.08799,0.75470,1.19004,26.04380,8.19400
0.02159,0.58786,-0.01914,-0.85597,0.13993,0.15563,-0.53780,0.19126,-0.90240,13.97905,3.53144,1.39858,0.63267,-0.10673,0.08478,0.76233,-13.68573,22.73577,20.70761
0.02262,0.59310,-0.01614,-0.67199,0.18464,0.17291,-0.77881,0.43181,-0.59995,12.65860,2.87849,1.25375,0.62479,-0.09525,0.08286,0.77052,-15.13175,20.77975,22.72328
0.02658,0.59872,-0.01307,-0.48051,0.22666,0.18733,-1.08821,0.58841,-0.28223,11.65587,2.33760,0.51621,0.61379,-0.08281,0.08401,0.78061,-17.87049,13.68239,18.85817
0.03037,0.60398,-0.01047,-0.32682,0.25569,0.18875,-1.34851,0.64530,0.01353,10.70175,1.75691,-0.37305,0.60218,-0.07136,0.08779,0.79030,-18.05489,7.10895,21.80751
0.03538,0.60898,-0.00875,-0.18651,0.27456,0.17706,-1.53002,0.66770,0.32549,9.59331,1.05043,-1.32890,0.59108,-0.05897,0.09399,0.79895,-14.57884,4.90962,22.31973
0.04235,0.61371,-0.00826,-0.04456,0.28688,0.14887,-1.64568,0.68215,0.57757,8.34879,0.78027,-2.26678,0.58058,-0.04681,0.10038,0.80663,-7.16556,1.44663,18.98048
0.04947,0.61813,-0.00866,0.07622,0.28837,0.11275,-1.62658,0.86399,0.61756,8.70270,-0.28945,-2.67443,0.57296,-0.03400,0.09882,0.81290,-1.73526,9.04567,5.27415
0.05736,0.62159,-0.00953,0.18082,0.27641,0.07755,-1.52854,1.15558,0.53684,8.52819,-1.39912,-3.06559,0.56773,-0.01973,0.09097,0.81794,5.07571,20.71688,-6.62443
0.06939,0.62322,-0.01275,0.32625,0.23959,0.01325,-1.26593,1.66399,0.34030,7.68356,-2.51379,-4.19374,0.56775,-0.00137,0.07387,0.81988,11.56130,27.34900,-15.14579
0.07954,0.62441,-0.01594,0.41203,0.20517,-0.03875,-1.05685,1.99934,0.21667,6.78186,-3.38457,-4.59264,0.56739,0.01594,0.05914,0.82116,14.38627,27.40443,-14.94688
0.09030,0.62416,-0.02010,0.48674,0.15758,-0.09263,-0.80324,2.31026,0.09763,5.88185,-4.62322,-4.59222,0.56944,0.03405,0.04262,0.82022,16.40762,26.37957,-14.45821
0.10268,0.62066,-0.02592,0.57003,0.07137,-0.16052,-0.37761,2.64499,-0.03114,4.88041,-6.13245,-4.24271,0.57745,0.05338,0.02328,0.81435,23.94379,21.79498,-14.44705
0.11448,0.61605,-0.03157,0.62959,-0.01624,-0.21462,0.02742,2.82104,-0.05348,4.08250,-6.58931,-3.95737,0.58673,0.07175,0.00815,0.80656,28.02075,15.04175,-9.01062
0.12606,0.61087,-0.03739,0.67253,-0.09227,-0.25897,0.36592,2.90557,-0.01466,3.41981,-6.44292,-3.76029,0.59620,0.08982,-0.00418,0.79779,28.54856,8.68492,-3.98871
0.13845,0.60332,-0.04444,0.71837,-0.18872,-0.31382,0.79370,2.93353,0.07295,2.61783,-5.75567,-3.57041,0.60951,0.10776,-0.01390,0.78530,27.97717,2.26019,-0.71336
0.15024,0.59685,-0.05125,0.74583,-0.24980,-0.35435,1.08863,2.91625,0.14748,2.15849,-4.74805,-3.37844,0.62115,0.12483,-0.02252,0.77336,25.92195,-1.05214,1.03035
0.16240,0.59014,-0.05892,0.77243,-0.30133,-0.39919,1.34716,2.85899,0.26525,1.79504,-2.90371,-3.22257,0.63305,0.14193,-0.02849,0.76046,22.06484,-2.75975,1.97003
0.17473,0.58443,-0.06729,0.79465,-0.32829,-0.44442,1.48182,2.76962,0.40672,1.05549,-0.83944,-2.37536,0.64254,0.15891,-0.03231,0.74890,12.96585,-6.77216,6.79296
0.18666,0.58014,-0.07505,0.80643,-0.33068,-0.47302,1.46593,2.70365,0.46861,0.54028,0.23006,-1.77550,0.64855,0.17497,-0.03795,0.73982,0.93436,-5.42399,4.75457
0.19842,0.57636,-0.08256,0.81269,-0.32329,-0.49035,1.42288,2.65628,0.49282,0.47534,0.91874,-1.17281,0.65359,0.19064,-0.04451,0.73109,-2.40452,-4.24200,2.13163
0.21012,0.57446,-0.08983,0.81851,-0.29205,-0.50115,1.24570,2.49173,0.67975,0.35062,2.73670,-0.71991,0.65433,0.20650,-0.04472,0.72609,-7.11657,-9.00083,10.02709
0.22156,0.57421,-0.09685,0.81964,-0.24807,-0.51014,1.12750,2.35622,0.83247,-0.12595,3.52842,-0.39394,0.65537,0.22224,-0.04452,0.72050,-4.72033,-14.06713,13.33815
0.23289,0.57513,-0.10366,0.81803,-0.19466,-0.51332,0.92149,2.32810,0.85687,-0.30474,4.06831,-0.06665,0.65378,0.23788,-0.04920,0.71664,-12.55385,-4.50324,6.17123
0.24415,0.57713,-0.11049,0.81496,-0.13466,-0.51342,0.69105,2.31900,0.87456,-0.13210,4.45161,-0.10856,0.65029,0.25360,-0.05479,0.71401,-16.77827,-0.73026,2.17718
0.25540,0.58090,-0.11702,0.81217,-0.06469,-0.51141,0.47688,2.22336,1.03840,-0.20475,5.17411,-0.07416,0.64506,0.27018,-0.05504,0.71266,-13.39591,-6.34784,10.57296
0.26643,0.58597,-0.12380,0.80634,0.01300,-0.51164,0.24561,2.17880,1.17350,-0.78484,5.78923,0.10010,0.63796,0.28754,-0.05614,0.71217,-12.03177,-8.65481,15.31782
0.27708,0.59209,-0.13067,0.79669,0.08998,-0.51239,-0.06410,2.30463,1.13481,-0.94485,5.34183,0.10632,0.62822,0.30531,-0.06542,0.71263,-20.96831,4.36806,3.66570
0.28737,0.59911,-0.13743,0.78374,0.16051,-0.51328,-0.38848,2.52729,1.01888,-1.18226,4.72587,-0.37797,0.61659,0.32383,-0.08023,0.71310,-26.26528,12.16818,-3.21504
0.29738,0.60581,-0.14460,0.76917,0.21369,-0.51794,-0.65091,2.76267,0.88818,-1.39504,4.05704,-0.44362,0.60455,0.34279,-0.09754,0.71240,-24.31145,16.96815,-5.92629
0.30672,0.61291,-0.15200,0.74908,0.26522,-0.52438,-0.98187,3.05939,0.69846,-1.64522,3.30469,-0.70498,0.58926,0.36197,-0.12064,0.71218,-27.37205,19.56485,-7.89570
0.31539,0.62053,-0.15972,0.72354,0.30864,-0.53669,-1.27926,3.30896,0.51711,-2.05413,2.77914,-1.49280,0.57289,0.38021,-0.14510,0.71147,-25.53761,18.49063,-10.83526
0.32335,0.62817,-0.16813,0.69216,0.34385,-0.55487,-1.47565,3.37834,0.44923,-2.23163,1.89884,-1.75610,0.55682,0.39675,-0.16448,0.71098,-18.82915,6.93501,-3.98895
0.33081,0.63557,-0.17742,0.65821,0.36886,-0.57872,-1.56240,3.34597,0.47556,-2.59225,1.28776,-2.07205,0.54178,0.41282,-0.17911,0.70991,-7.71344,-0.54542,2.63970
0.33722,0.64294,-0.18766,0.61535,0.38488,-0.61210,-1.53732,3.23343,0.55679,-2.86727,0.40265,-2.42913,0.52868,0.42814,-0.18934,0.70806,1.36756,-5.65215,4.63822
0.34274,0.64913,-0.19875,0.56758,0.38691,-0.65052,-1.38328,3.07474,0.66569,-3.21027,-0.34110,-2.59923,0.51845,0.44325,-0.19560,0.70461,10.26979,-9.12590,6.24582
0.34820,0.65455,-0.20991,0.52874,0.37998,-0.68161,-1.21892,2.96116,0.72885,-3.51723,-0.92125,-2.65644,0.50926,0.45825,-0.20196,0.69991,14.06925,-8.62196,4.54233
0.35234,0.65924,-0.22189,0.47937,0.36288,-0.71791,-0.98462,2.84948,0.75542,-3.76122,-1.65007,-2.53388,0.50298,0.47273,-0.20690,0.69334,16.31941,-7.21504,-0.07989
0.35495,0.66274,-0.23460,0.41663,0.33352,-0.75771,-0.65767,2.72710,0.74668,-4.12649,-2.06483,-2.42742,0.50041,0.48672,-0.21002,0.68454,19.07593,-7.50827,-3.39553
0.35709,0.66584,-0.24717,0.35918,0.30335,-0.78864,-0.36833,2.64834,0.68280,-4.20998,-2.27610,-1.88695,0.49903,0.50019,-0.21417,0.67448,21.30904,-5.21572,-7.19051
0.35940,0.66878,-0.25925,0.31850,0.28008,-0.80541,-0.19209,2.60338,0.61419,-4.13987,-2.39463,-1.44960,0.49656,0.51323,-0.21960,0.66468,17.60200,-3.71810,-9.72027
0.35895,0.67028,-0.27186,0.24618,0.24243,-0.82463,0.08059,2.49680,0.48337,-3.96676,-1.59903,-0.72122,0.49883,0.52423,-0.22350,0.65300,14.18395,-4.60311,-10.96117
0.35922,0.67283,-0.28371,0.19940,0.23051,-0.82994,0.20700,2.41670,0.47374,-3.75848,-0.55653,-0.10807,0.49722,0.53622,-0.22650,0.64337,12.44835,-6.50893,-5.82185
0.35895,0.67580,-0.29515,0.15590,0.22739,-0.82932,0.25098,2.35795,0.49556,-3.39963,-0.00711,0.43465,0.49372,0.54824,-0.22962,0.63479,6.68044,-6.08846,0.17712
0.35811,0.67928,-0.30626,0.10816,0.23181,-0.82045,0.24518,2.33662,0.54488,-2.69271,0.63285,0.91721,0.48833,0.56102,-0.23313,0.62645,0.69330,-2.35664,2.34303
