posX, posY, posZ, velX, velY, velZ, angVelX, angVelY, angVelZ, accX, accY, accZ, rotX, rotY, rotZ, rotW, angAccX, angAccY, angAccZ
0.22687,1.19289,-0.40730,-0.31928,0.34501,-0.27219,0.70449,0.68464,0.58530,-0.69849,0.71373,-0.08667,0.17002,0.87036,0.06203,0.45795,-0.21277,-0.98537,-0.79371
0.22160,1.19862,-0.41108,-0.32934,0.35498,-0.27319,0.76502,0.70120,0.58077,-0.91557,0.87020,-0.19376,0.17015,0.87300,0.06893,0.45185,4.51562,1.15265,-0.56908
0.21571,1.20486,-0.41504,-0.34638,0.37030,-0.27646,0.86392,0.73281,0.58476,-1.15717,0.96140,-0.27440,0.17086,0.87578,0.07736,0.44479,6.05572,2.27790,0.08010
0.20980,1.21106,-0.41906,-0.36072,0.38230,-0.28016,0.95601,0.75409,0.59013,-1.20123,1.03355,-0.39797,0.17167,0.87834,0.08621,0.43774,6.77224,2.18841,-0.00481
0.20340,1.21768,-0.42322,-0.37888,0.39745,-0.28545,1.08670,0.78727,0.59021,-1.36094,1.11019,-0.42186,0.17352,0.88083,0.09663,0.42976,8.53712,2.59673,0.10493
0.19679,1.22448,-0.42742,-0.39710,0.41368,-0.28919,1.27984,0.80183,0.57127,-1.29290,1.07153,-0.31362,0.17723,0.88257,0.10950,0.42152,11.99580,2.16799,-1.12211
0.19030,1.23133,-0.43163,-0.40995,0.42717,-0.29269,1.47749,0.81942,0.51534,-0.93480,1.15696,-0.37335,0.18289,0.88373,0.12310,0.41281,16.42973,2.12357,-4.35066
0.18380,1.23877,-0.43612,-0.42027,0.44632,-0.29974,1.62425,0.81154,0.43656,-0.65481,1.62640,-0.48796,0.18939,0.88416,0.13598,0.40485,11.82465,1.82479,-6.96524
0.17709,1.24698,-0.44116,-0.43219,0.47369,-0.31265,1.71171,0.76639,0.36282,-0.81337,1.80346,-1.12607,0.19548,0.88386,0.14799,0.39834,4.77844,-2.92653,-4.75659
0.17022,1.25582,-0.44679,-0.44450,0.50615,-0.33202,1.90849,0.89801,0.24585,-0.76098,2.20588,-1.50134,0.20544,0.88464,0.16172,0.38607,9.50115,6.70352,-6.71281
0.16329,1.26511,-0.45234,-0.45570,0.53948,-0.34631,2.20894,1.08099,0.12105,-0.87169,2.51425,-0.80643,0.21852,0.88498,0.17868,0.37031,19.65096,15.33742,-8.01210
0.15626,1.27471,-0.45763,-0.46620,0.57074,-0.35310,2.45990,1.20085,0.01852,-0.98541,2.79175,-0.21104,0.23180,0.88422,0.19620,0.35486,21.71890,13.73691,-8.83572
0.14802,1.28473,-0.46257,-0.49335,0.60270,-0.35390,2.47277,1.06764,-0.27602,-1.34871,2.95034,-0.15509,0.24787,0.87975,0.20722,0.34881,9.90628,-13.53446,-22.14303
0.14021,1.29675,-0.46792,-0.50809,0.65839,-0.36061,2.44656,1.11664,-0.07074,-0.72895,4.14981,-0.36475,0.25089,0.88044,0.22133,0.33599,-2.72346,5.35851,14.54957
0.13229,1.30912,-0.47341,-0.52311,0.70826,-0.36719,2.24908,1.07237,-0.05150,-1.86458,3.08246,-0.35877,0.25548,0.88029,0.22897,0.32772,-13.85544,-1.26911,4.60320
0.12362,1.32140,-0.47871,-0.54555,0.74653,-0.36969,2.26427,1.13037,-0.07337,-2.03376,3.47798,-0.73652,0.26374,0.87928,0.24032,0.31551,-7.75824,-2.30559,-1.78063
0.11419,1.33500,-0.48385,-0.57437,0.79574,-0.36930,2.49393,1.35663,-0.08686,-2.25822,3.66832,0.14523,0.27555,0.87800,0.25666,0.29550,14.84162,15.19057,-0.11185
0.10389,1.34933,-0.48847,-0.60933,0.84500,-0.36166,2.74823,1.57580,-0.05095,-2.69243,3.58556,0.92572,0.28689,0.87604,0.27527,0.27290,19.51442,16.62388,2.41897
0.09291,1.36417,-0.49255,-0.64747,0.89263,-0.34774,2.82559,1.68287,0.05881,-2.70159,3.35020,1.61193,0.29370,0.87461,0.29141,0.25273,12.71420,10.18139,7.16151
0.08131,1.37938,-0.49633,-0.68633,0.93496,-0.33226,2.51133,1.55466,0.24649,-2.67528,2.71403,1.65124,0.29180,0.87566,0.29919,0.24201,-13.22199,-6.83966,12.45731
0.06956,1.39430,-0.49984,-0.72156,0.96754,-0.31514,2.11669,1.36559,0.43457,-2.53948,2.09298,0.95825,0.28646,0.87774,0.30366,0.23518,-28.96833,-19.50036,14.52486
0.05774,1.40900,-0.50303,-0.75073,0.99068,-0.29633,1.96398,1.36729,0.56163,-2.07311,1.49942,1.15228,0.28466,0.87912,0.31110,0.22211,-15.28071,-5.79890,11.55899
0.04566,1.42347,-0.50532,-0.77777,1.00535,-0.26845,1.95844,1.44112,0.64788,-1.58899,0.44388,2.01546,0.28511,0.87939,0.32112,0.20557,0.40458,4.38769,6.85936
0.03377,1.43700,-0.50703,-0.79728,1.00499,-0.23637,1.86070,1.40545,0.67847,-1.13527,-0.35485,2.10723,0.28516,0.87932,0.32901,0.19295,-4.02669,-1.70798,2.35558
0.02214,1.45012,-0.50899,-0.80857,0.99725,-0.21478,1.75611,1.38650,0.67151,-1.06824,-0.80105,1.51267,0.28589,0.87919,0.33557,0.18081,-9.79623,-5.20231,0.73494
0.01012,1.46253,-0.51028,-0.82239,0.97897,-0.18932,1.76879,1.54428,0.63244,-0.92799,-1.38233,1.34897,0.28994,0.87856,0.34282,0.16292,-0.69834,8.61315,-1.07897
-0.00180,1.47436,-0.51159,-0.83216,0.95578,-0.16912,1.72424,1.71145,0.58922,-0.59143,-1.84195,1.73709,0.29437,0.87832,0.34799,0.14424,-1.37984,13.84414,-1.37767
-0.01363,1.48619,-0.51276,-0.83702,0.93646,-0.15143,1.64322,1.76423,0.54633,-0.46764,-2.01580,2.12682,0.29793,0.87783,0.35238,0.12840,-6.89609,8.70852,-1.51077
-0.02567,1.49654,-0.51227,-0.84492,0.90166,-0.11295,1.54555,1.75057,0.47196,-0.56186,-2.26333,2.76094,0.30190,0.87690,0.35591,0.11506,-7.54223,0.67737,-3.25194
-0.03769,1.50637,-0.51129,-0.85207,0.86827,-0.07368,1.47819,1.71036,0.41044,-0.53035,-2.30706,2.88146,0.30561,0.87547,0.36006,0.10257,-5.27916,-2.68693,-4.17567
-0.04974,1.51656,-0.51046,-0.85627,0.84478,-0.04567,1.41305,1.67733,0.36055,-0.47903,-2.25114,2.86646,0.30927,0.87399,0.36380,0.09023,-5.62159,-2.38223,-4.63314
-0.06221,1.52508,-0.50791,-0.86670,0.80483,0.00226,1.23007,1.58067,0.33073,-0.75040,-2.04765,2.60399,0.31118,0.87396,0.36433,0.08141,-10.70183,-6.06664,-1.42456
-0.07481,1.53381,-0.50556,-0.87724,0.77453,0.03913,1.16020,1.55455,0.34907,-0.87747,-2.01970,2.67232,0.31270,0.87340,0.36679,0.06967,-6.75052,-3.32643,1.29809
-0.08768,1.54217,-0.50262,-0.88807,0.74292,0.07649,1.11799,1.52598,0.38563,-0.68581,-2.34163,2.69076,0.31347,0.87273,0.36981,0.05762,-2.96969,-1.97597,3.34702
-0.10041,1.54995,-0.49925,-0.89415,0.70901,0.11164,1.09505,1.51060,0.38752,-0.37170,-2.43798,2.27231,0.31512,0.87153,0.37289,0.04562,-2.27694,-2.31411,0.90187
-0.11272,1.55706,-0.49581,-0.89359,0.67357,0.14142,1.09366,1.58660,0.35332,0.27944,-2.47924,2.02064,0.31889,0.86975,0.37533,0.03122,0.19946,4.16461,-1.01884
-0.12454,1.56392,-0.49216,-0.88488,0.64002,0.16784,1.04652,1.63781,0.28640,0.84453,-2.38071,1.95461,0.32363,0.86792,0.37637,0.01798,-1.85444,5.42297,-3.74526
-0.13594,1.57059,-0.48814,-0.87237,0.61034,0.19349,0.94876,1.63421,0.22241,0.91955,-1.79738,1.82944,0.32797,0.86662,0.37598,0.00698,-8.24769,0.18659,-3.81026
-0.14717,1.57726,-0.48370,-0.85926,0.58629,0.22028,0.97991,1.72600,0.15812,0.78294,-1.41525,1.81991,0.33399,0.86359,0.37762,-0.00787,-1.94849,4.50960,-4.02669
-0.15817,1.58367,-0.47862,-0.84532,0.56226,0.25079,1.10682,1.91729,0.08520,0.96763,-1.43793,1.88880,0.34205,0.85864,0.38081,-0.02706,7.56992,12.39346,-4.46100
-0.16872,1.58984,-0.47357,-0.82893,0.54173,0.27671,1.19541,2.05193,0.01088,1.37478,-1.49477,2.01985,0.35015,0.85330,0.38369,-0.04539,6.83076,11.97319,-4.74405
-0.17896,1.59575,-0.46821,-0.81018,0.52079,0.30151,1.17475,2.05838,-0.05402,1.47310,-1.53290,1.87703,0.35716,0.84887,0.38507,-0.05978,0.30798,3.76829,-5.61190
-0.18892,1.60148,-0.46254,-0.79237,0.50074,0.32364,1.05564,1.98445,-0.07372,1.22523,-1.29084,1.59734,0.36226,0.84614,0.38441,-0.07100,-6.80778,-3.94926,-2.25678
-0.19871,1.60728,-0.45625,-0.77884,0.48566,0.34606,0.91116,1.88413,-0.01413,0.60507,-0.64388,1.63323,0.36467,0.84496,0.38268,-0.08129,-11.21560,-7.92699,3.88194
-0.20874,1.61329,-0.44931,-0.77075,0.47621,0.37382,0.90523,1.89384,0.08170,0.22407,-0.29496,2.07739,0.36657,0.84254,0.38280,-0.09601,-3.21077,-2.63617,6.67620
-0.21904,1.61935,-0.44188,-0.76580,0.46887,0.40665,0.99992,1.95764,0.19181,0.45983,-0.54176,2.46250,0.36791,0.83875,0.38490,-0.11400,7.59642,4.66961,7.19858
-0.22889,1.62513,-0.43416,-0.75537,0.46018,0.43967,1.04351,1.94918,0.28303,1.13925,-0.78364,2.47761,0.36836,0.83539,0.38670,-0.13000,6.07749,1.88448,6.61065
-0.23835,1.63086,-0.42636,-0.74046,0.45170,0.46595,0.98888,1.85107,0.35120,1.47366,-0.81118,2.24748,0.36794,0.83343,0.38702,-0.14222,-1.22646,-6.69478,5.62572
-0.24694,1.63611,-0.41775,-0.71560,0.43766,0.49893,0.89019,1.70367,0.41323,1.61308,-0.96116,2.06290,0.36654,0.83258,0.38655,-0.15179,-5.60061,-10.10674,4.15121
-0.25513,1.64095,-0.40879,-0.68926,0.42015,0.53248,0.87119,1.61327,0.44260,1.57928,-1.10714,2.20813,0.36587,0.83045,0.38738,-0.16257,-2.16971,-6.53042,2.06081
-0.26368,1.64592,-0.39997,-0.67338,0.40752,0.55474,0.91547,1.58640,0.45367,1.48178,-1.24106,2.22513,0.36580,0.82700,0.38931,-0.17523,1.71524,-4.01678,0.97393
-0.27155,1.65024,-0.39024,-0.65181,0.38793,0.58480,1.01146,1.59184,0.46209,1.57052,-1.50776,2.03269,0.36568,0.82237,0.39259,-0.18935,6.80713,-0.45550,0.42787
-0.27866,1.65390,-0.38026,-0.62345,0.36195,0.61346,1.12489,1.62332,0.43674,1.88879,-1.79236,1.60571,0.36654,0.81648,0.39661,-0.20422,7.20707,2.36331,-1.92982
-0.28525,1.65708,-0.37046,-0.59160,0.33321,0.63308,1.20308,1.67864,0.37142,2.06047,-1.99136,0.92510,0.36896,0.80984,0.40000,-0.21914,5.08820,3.56389,-4.13082
-0.29181,1.66030,-0.36116,-0.56674,0.31106,0.64081,1.17928,1.69083,0.33141,2.20698,-1.99605,0.54613,0.37110,0.80454,0.40131,-0.23227,0.85329,3.89319,-4.19325
-0.29761,1.66284,-0.35200,-0.53618,0.28272,0.64549,1.07553,1.62710,0.33017,1.77370,-1.77218,0.20819,0.37194,0.80125,0.40100,-0.24262,-6.92837,-4.61554,0.14295
-0.30412,1.66589,-0.34292,-0.52218,0.26908,0.64690,1.03717,1.61297,0.33383,1.64466,-1.68163,0.17389,0.37278,0.79699,0.40129,-0.25459,-6.03637,-3.74612,0.69866
-0.30941,1.66755,-0.33378,-0.49431,0.23818,0.64927,0.98189,1.57999,0.37072,1.54057,-1.76562,0.06886,0.37251,0.79358,0.40086,-0.26603,-2.79103,-1.96021,2.39149
-0.31478,1.66929,-0.32485,-0.47249,0.21378,0.64849,0.94883,1.56212,0.38242,1.55245,-1.77215,-0.17379,0.37272,0.78962,0.40069,-0.27752,-2.74746,-2.09091,1.33064
-0.32043,1.67133,-0.31599,-0.45923,0.19984,0.64607,0.93623,1.57902,0.37182,1.62372,-1.78600,-0.42283,0.37375,0.78477,0.40057,-0.28981,-1.69610,-0.53268,0.76191
-0.32440,1.67195,-0.30777,-0.42587,0.16935,0.63613,0.92709,1.68877,0.30784,1.90240,-1.59464,-0.61216,0.37759,0.77810,0.39951,-0.30393,-1.55096,6.23897,-2.58083
-0.32872,1.67305,-0.29945,-0.40304,0.15085,0.62886,0.92393,1.75628,0.27375,2.01285,-1.57535,-0.57705,0.38055,0.77155,0.39866,-0.31775,-0.20801,7.14285,-3.21111
-0.33226,1.67355,-0.29136,-0.37400,0.12765,0.62027,0.85865,1.67937,0.27956,1.94744,-1.48797,-0.45467,0.38139,0.76760,0.39754,-0.32754,-3.01459,-2.54876,-0.65847
-0.33586,1.67413,-0.28321,-0.35110,0.11031,0.61449,0.77420,1.49318,0.32746,1.60404,-1.12063,-0.37759,0.37963,0.76606,0.39682,-0.33402,-5.84134,-12.85575,2.95915
-0.33935,1.67471,-0.27513,-0.33048,0.09633,0.60853,0.73078,1.36402,0.37472,1.28543,-0.82323,-0.49834,0.37757,0.76404,0.39633,-0.34147,-3.85287,-12.05706,4.18031
-0.34232,1.67535,-0.26738,-0.30652,0.08576,0.59903,0.72441,1.35774,0.40846,1.51891,-0.50250,-0.61936,0.37662,0.76036,0.39526,-0.35183,-0.45698,-1.12056,2.03357
-0.34530,1.67619,-0.25966,-0.28750,0.08007,0.59160,0.72867,1.37631,0.41325,1.65553,-0.52484,-0.59623,0.37646,0.75584,0.39432,-0.36263,1.08339,2.00269,1.05958
-0.34774,1.67688,-0.25210,-0.26462,0.07336,0.58312,0.73005,1.36994,0.41496,1.75608,-0.48555,-0.55578,0.37605,0.75145,0.39358,-0.37282,0.43129,0.57670,0.49352
-0.34960,1.67743,-0.24455,-0.23817,0.06622,0.57583,0.72906,1.29718,0.42304,1.69710,-0.48463,-0.36998,0.37456,0.74797,0.39356,-0.38125,-0.41285,-3.80280,0.13400
-0.35124,1.67786,-0.23713,-0.21281,0.05835,0.56901,0.70885,1.15996,0.43979,1.66737,-0.61210,-0.47388,0.37203,0.74577,0.39396,-0.38757,-0.19075,-7.07104,0.23158
-0.35300,1.67829,-0.22978,-0.19450,0.05221,0.56149,0.65176,1.02469,0.45581,1.50657,-0.48255,-0.71708,0.36951,0.74454,0.39357,-0.39271,-3.64996,-12.45259,1.79756
-0.35400,1.67854,-0.22303,-0.16878,0.04474,0.54655,0.59257,0.98784,0.42880,1.47364,-0.47978,-1.06089,0.36906,0.74213,0.39240,-0.39882,-3.90567,-4.87200,-1.05952
-0.35488,1.67866,-0.21663,-0.14617,0.03680,0.52993,0.54410,1.02642,0.37537,1.65628,-0.62101,-1.24511,0.37033,0.73836,0.39067,-0.40626,-3.67411,3.15693,-2.91134
-0.35583,1.67879,-0.21014,-0.12982,0.03080,0.51755,0.50703,1.05528,0.33218,1.66541,-0.59177,-1.20176,0.37164,0.73450,0.38896,-0.41365,-4.85398,2.54467,-3.71846
-0.35571,1.67837,-0.20440,-0.10132,0.01798,0.49736,0.47956,1.13188,0.23240,1.53527,-0.78617,-1.07566,0.37529,0.72897,0.38744,-0.42148,-2.30543,4.47266,-5.01297
-0.35576,1.67787,-0.19863,-0.08021,0.00639,0.48125,0.48080,1.21592,0.13943,1.44579,-0.83460,-1.23299,0.37910,0.72261,0.38640,-0.42991,-0.54674,4.83298,-6.35990
-0.35543,1.67729,-0.19331,-0.05782,-0.00399,0.46125,0.48160,1.37589,0.01259,1.65892,-0.63080,-1.56291,0.38537,0.71410,0.38480,-0.43987,-0.97662,10.50980,-8.44833
-0.35609,1.67686,-0.18833,-0.03780,-0.01033,0.43853,0.43200,1.47820,-0.09666,1.80826,-0.49497,-1.83464,0.39218,0.70629,0.38237,-0.44849,-2.06290,10.35389,-8.03029
-0.35675,1.67653,-0.18366,-0.01971,-0.01384,0.41561,0.34012,1.46434,-0.15158,1.57991,-0.24511,-1.66025,0.39771,0.70095,0.37944,-0.45445,-7.36748,0.84145,-4.52430
-0.35676,1.67618,-0.17908,-0.00289,-0.01661,0.39613,0.26243,1.38088,-0.17706,1.38709,-0.20070,-1.29780,0.40197,0.69692,0.37708,-0.45884,-6.30994,-4.05425,-1.95632
-0.35576,1.67579,-0.17458,0.01245,-0.01901,0.38110,0.21963,1.22320,-0.16288,1.00060,-0.06170,-0.91878,0.40394,0.69451,0.37593,-0.46169,-4.22193,-11.12307,1.04881
-0.35473,1.67542,-0.17007,0.02511,-0.02053,0.36954,0.23206,1.12773,-0.15302,0.75723,0.02980,-0.76803,0.40558,0.69106,0.37553,-0.46575,-0.08193,-9.22853,0.89498
-0.35349,1.67513,-0.16567,0.03827,-0.02062,0.35830,0.29027,1.15206,-0.18039,0.88040,0.05005,-0.78545,0.40857,0.68484,0.37540,-0.47237,3.24451,0.20827,-1.73768
-0.35188,1.67483,-0.16152,0.05451,-0.02074,0.34581,0.36054,1.20735,-0.22730,1.18975,-0.00767,-0.77388,0.41218,0.67733,0.37565,-0.47982,4.78758,4.14000,-2.85914
-0.35002,1.67450,-0.15728,0.07147,-0.02151,0.33728,0.39465,1.16967,-0.26492,1.44270,-0.12038,-0.49131,0.41509,0.67131,0.37645,-0.48510,2.35952,0.00536,-3.25212
-0.34795,1.67408,-0.15281,0.08769,-0.02330,0.33384,0.41895,1.00597,-0.28113,1.13642,-0.08525,-0.17275,0.41611,0.66761,0.37882,-0.48750,1.44529,-10.41607,-1.63382
-0.34582,1.67380,-0.14830,0.10143,-0.02250,0.33167,0.46036,0.83112,-0.28518,0.83492,0.14420,-0.15853,0.41597,0.66449,0.38218,-0.48924,2.29631,-12.49118,-1.11458
-0.34376,1.67368,-0.14389,0.11118,-0.01962,0.32865,0.50825,0.67206,-0.25456,0.58744,0.27104,-0.28909,0.41456,0.66195,0.38565,-0.49115,3.38599,-11.49283,0.89264
-0.34181,1.67369,-0.13963,0.11725,-0.01528,0.32374,0.52894,0.55304,-0.21755,0.45116,0.40341,-0.50837,0.41314,0.65973,0.38848,-0.49311,2.59042,-11.51857,2.53083
-0.33958,1.67397,-0.13579,0.12612,-0.00794,0.31369,0.53468,0.43060,-0.17305,0.61228,0.49296,-0.68722,0.41115,0.65834,0.39119,-0.49449,0.18511,-7.83530,3.17102
-0.33729,1.67424,-0.13207,0.13427,-0.00223,0.30423,0.52810,0.39818,-0.17420,0.61422,0.51090,-0.77455,0.41097,0.65553,0.39332,-0.49667,0.09124,-5.46742,0.62102
-0.33471,1.67470,-0.12860,0.14458,0.00493,0.29282,0.53767,0.42159,-0.19436,0.72698,0.58225,-0.78047,0.41160,0.65141,0.39540,-0.49991,-0.15117,0.84150,-0.87374
-0.33177,1.67532,-0.12530,0.15853,0.01318,0.28138,0.56167,0.48319,-0.23640,1.01319,0.49404,-0.61461,0.41309,0.64598,0.39762,-0.50394,1.04859,3.70176,-2.29995
-0.32870,1.67579,-0.12178,0.17139,0.01732,0.27558,0.59810,0.48091,-0.28654,1.26412,0.23915,-0.47768,0.41399,0.64089,0.40121,-0.50686,2.58114,2.65104,-3.80716
-0.32499,1.67620,-0.11832,0.19101,0.01984,0.26988,0.60852,0.36532,-0.33393,1.41802,0.04272,-0.38846,0.41388,0.63775,0.40612,-0.50699,1.70796,-5.54343,-3.60016
-0.32111,1.67656,-0.11482,0.20951,0.02098,0.26599,0.59816,0.21624,-0.37160,1.25943,0.05166,-0.20639,0.41330,0.63588,0.41139,-0.50556,-1.72288,-11.24652,-3.33844
-0.31707,1.67682,-0.11125,0.22649,0.02056,0.26422,0.60784,0.08014,-0.40836,1.15246,-0.00565,-0.05931,0.41230,0.63397,0.41737,-0.50387,-0.55128,-9.54806,-2.74153
-0.31281,1.67698,-0.10766,0.24325,0.01860,0.26271,0.64449,-0.01614,-0.46646,0.83200,-0.15875,-0.08522,0.41153,0.63106,0.42428,-0.50239,1.83527,-7.20850,-4.24818
-0.30868,1.67709,-0.10415,0.25456,0.01620,0.26034,0.68888,0.01117,-0.52852,0.82445,-0.19023,-0.20147,0.41218,0.62596,0.43035,-0.50307,3.43850,-1.07524,-4.36635
-0.30413,1.67698,-0.10092,0.26998,0.01112,0.25445,0.77506,0.15676,-0.64857,0.90768,-0.35088,-0.50016,0.41506,0.61708,0.43694,-0.50598,5.72135,8.31949,-7.06251
-0.29950,1.67690,-0.09798,0.28331,0.00758,0.24498,0.81449,0.28091,-0.73352,1.09146,-0.17834,-0.87263,0.41831,0.60849,0.44259,-0.50879,4.15516,10.25964,-5.85210
-0.29476,1.67703,-0.09522,0.29545,0.00790,0.23502,0.79550,0.30106,-0.77399,1.16334,0.00012,-0.94312,0.42082,0.60215,0.44779,-0.50971,0.54609,5.83944,-4.10549
-0.28980,1.67729,-0.09268,0.30834,0.01017,0.22415,0.72407,0.18949,-0.77401,1.00673,0.16355,-0.74273,0.42185,0.59924,0.45305,-0.50765,-4.93370,-5.38912,-1.14825
-0.28469,1.67764,-0.09011,0.32046,0.01343,0.21580,0.63449,-0.03064,-0.74404,0.67222,0.20881,-0.36860,0.42092,0.59938,0.45899,-0.50289,-6.30528,-13.70607,0.71206
-0.27960,1.67802,-0.08735,0.33031,0.01631,0.21213,0.60504,-0.17424,-0.72070,0.71356,0.27889,-0.08060,0.41966,0.59842,0.46530,-0.49928,-4.20636,-11.92519,1.88162
-0.27430,1.67836,-0.08444,0.34113,0.01812,0.21159,0.62908,-0.21425,-0.74273,0.79812,0.30420,0.18226,0.41941,0.59499,0.47219,-0.49712,0.02947,-6.82589,-0.71698
-0.26864,1.67885,-0.08137,0.35453,0.02174,0.21341,0.73066,-0.14367,-0.77430,0.95545,0.38736,0.19430,0.41955,0.58828,0.47957,-0.49791,6.78595,3.70776,-2.55646
-0.26273,1.67957,-0.07823,0.36914,0.02797,0.21582,0.81518,-0.11748,-0.79161,1.22696,0.37983,0.12570,0.41899,0.58199,0.48724,-0.49833,7.58247,3.88102,-0.52285
-0.25650,1.68029,-0.07501,0.38565,0.03286,0.21925,0.85447,-0.18937,-0.79631,1.42018,0.19797,0.21485,0.41727,0.57778,0.49544,-0.49658,3.44572,-3.53878,-0.65907
-0.24973,1.68094,-0.07161,0.40633,0.03571,0.22433,0.86414,-0.35436,-0.83404,1.72230,0.16453,0.39267,0.41480,0.57516,0.50526,-0.49177,0.66711,-10.33665,-2.43054
-0.24239,1.68146,-0.06804,0.43154,0.03598,0.23102,0.88684,-0.50646,-0.90280,1.91757,-0.05651,0.62520,0.41239,0.57206,0.51622,-0.48600,0.22745,-12.10619,-4.93421
-0.23448,1.68174,-0.06422,0.46004,0.03262,0.24009,0.93432,-0.63251,-0.99491,2.20854,-0.34141,0.66782,0.41002,0.56787,0.52835,-0.47985,3.63530,-8.12665,-7.03638
-0.22599,1.68189,-0.06017,0.49086,0.02813,0.25061,0.95405,-0.81155,-1.10703,2.32270,-0.32248,0.81812,0.40725,0.56456,0.54176,-0.47109,1.05642,-11.80927,-8.14905
-0.21698,1.68195,-0.05580,0.52322,0.02318,0.26371,1.00648,-0.95342,-1.22293,2.28352,-0.37935,1.11407,0.40424,0.56009,0.55612,-0.46220,2.33076,-10.81662,-9.06190
-0.20755,1.68179,-0.05102,0.55529,0.01599,0.28031,1.07859,-1.11150,-1.34808,2.35763,-0.58486,1.27387,0.40038,0.55512,0.57195,-0.45212,4.80342,-10.11998,-8.68295
-0.19770,1.68132,-0.04583,0.58646,0.00553,0.29938,1.17555,-1.27674,-1.49749,2.12823,-0.86048,1.46482,0.39586,0.54906,0.58965,-0.44062,5.59356,-12.29682,-10.88754
-0.18814,1.68070,-0.04061,0.60652,-0.00441,0.31448,1.25837,-1.39004,-1.60492,1.91603,-1.03626,1.59862,0.39115,0.54248,0.60687,-0.42945,6.72661,-11.61033,-11.59983
-0.17765,1.67938,-0.03456,0.63519,-0.02230,0.33801,1.42640,-1.53160,-1.78353,1.64391,-1.11674,1.40522,0.38518,0.53285,0.62791,-0.41645,10.69940,-9.48424,-10.79219
-0.16719,1.67780,-0.02843,0.65829,-0.04081,0.35846,1.54104,-1.66552,-1.90458,1.32059,-1.36015,1.19543,0.37851,0.52388,0.64791,-0.40309,8.65209,-8.09284,-7.93731
-0.15728,1.67633,-0.02257,0.66965,-0.05386,0.37135,1.55993,-1.80572,-1.96481,1.13858,-1.48817,1.28812,0.37140,0.51720,0.66599,-0.38862,3.24835,-10.62548,-7.29642
-0.14704,1.67347,-0.01559,0.68260,-0.08425,0.39737,1.54486,-2.13113,-2.08221,0.49977,-2.01637,1.65535,0.36107,0.51267,0.68672,-0.36772,-1.93920,-16.67492,-8.41172
-0.13741,1.67014,-0.00825,0.68430,-0.11624,0.42416,1.53648,-2.47173,-2.21011,-0.10057,-2.51917,2.14282,0.34911,0.50805,0.70803,-0.34453,-2.47865,-21.09151,-10.37531
-0.12831,1.66636,-0.00050,0.67831,-0.14771,0.45129,1.55222,-2.77043,-2.32696,-0.87533,-2.59762,2.43521,0.33588,0.50254,0.72944,-0.32024,-2.47454,-24.74122,-13.37484
-0.12005,1.66132,0.00841,0.66061,-0.19095,0.48911,1.72286,-3.03069,-2.43076,-1.67954,-2.57532,2.50813,0.31953,0.49282,0.75304,-0.29657,6.25480,-19.59670,-8.61788
-0.11236,1.65596,0.01740,0.63837,-0.23073,0.52119,2.07771,-3.06962,-2.44474,-1.92343,-2.70105,2.34778,0.30290,0.47617,0.77660,-0.28001,20.27470,-9.31371,0.99852
-0.10504,1.65002,0.02660,0.61526,-0.27087,0.54962,2.50239,-3.04448,-2.41846,-1.58561,-3.03648,1.75512,0.28496,0.45496,0.80044,-0.26664,30.08994,-4.04345,8.56999
-0.09824,1.64310,0.03597,0.58931,-0.31800,0.57545,2.79318,-3.15070,-2.48945,-1.29624,-3.10551,1.40232,0.26578,0.43425,0.82420,-0.24795,19.87977,-8.06595,1.64932
-0.09127,1.63633,0.04503,0.57063,-0.35278,0.59076,2.88867,-3.28552,-2.60538,-1.72073,-3.06830,0.88215,0.24737,0.41604,0.84570,-0.22475,10.33480,-11.92764,-9.37140
-0.08551,1.62766,0.05403,0.53750,-0.40974,0.60236,3.03859,-3.36732,-2.72780,-2.19729,-3.27702,0.47793,0.22897,0.39481,0.86668,-0.20141,7.56182,-5.27394,-7.53777
-0.07973,1.61925,0.06254,0.51166,-0.45146,0.60447,3.21253,-3.36651,-2.75624,-2.31894,-3.58820,-0.06823,0.21048,0.37159,0.88588,-0.18121,14.62589,-2.95768,0.20933
-0.07491,1.60972,0.07073,0.47660,-0.50021,0.60058,3.32164,-3.39791,-2.85987,-2.61100,-3.51267,-0.50866,0.19211,0.34771,0.90407,-0.15765,10.07380,-2.76672,-3.61062
-0.07072,1.59971,0.07864,0.43959,-0.54592,0.59381,3.48290,-3.39395,-2.89689,-2.96302,-2.89621,-0.44681,0.17311,0.32142,0.92101,-0.13589,9.50453,-1.50312,-5.24076
-0.06728,1.58942,0.08626,0.39950,-0.58669,0.58423,3.71517,-3.38048,-2.75932,-3.09244,-2.83771,-0.91188,0.15127,0.29284,0.93650,-0.11967,14.99817,-3.92096,11.30340
-0.06470,1.57858,0.09339,0.35436,-0.62674,0.56886,3.88548,-3.42439,-2.61926,-3.36785,-3.16555,-1.38482,0.12734,0.26445,0.95036,-0.10328,9.78029,-8.27499,12.57340
-0.06314,1.56651,0.09977,0.30343,-0.67725,0.54549,4.08632,-3.49311,-2.50402,-3.98744,-4.11022,-2.00340,0.10193,0.23373,0.96304,-0.08682,8.44162,-8.48908,8.83957
-0.06279,1.55283,0.10490,0.24535,-0.74172,0.50848,4.42141,-3.57484,-2.38723,-4.28570,-4.91772,-3.04850,0.07435,0.19720,0.97491,-0.07164,17.34355,-12.26841,10.00817
-0.06285,1.53832,0.10909,0.19387,-0.80315,0.46538,4.76940,-3.65120,-2.26711,-4.43285,-5.27760,-4.09972,0.04554,0.15724,0.98484,-0.05734,23.26836,-14.16844,12.83344
-0.06509,1.52146,0.11028,0.12082,-0.88702,0.38678,5.24563,-3.79577,-2.08061,-4.78589,-5.14528,-5.84646,0.01247,0.11089,0.99270,-0.04572,25.07424,-17.52960,13.39900
-0.06793,1.50465,0.10952,0.05304,-0.95429,0.29437,5.57723,-3.96226,-1.95615,-4.86215,-4.68792,-7.57698,-0.02144,0.06570,0.99708,-0.03258,20.83491,-19.92780,12.66888
-0.07139,1.48799,0.10716,-0.00901,-1.00332,0.19886,5.73740,-4.08626,-2.03605,-5.08722,-4.00683,-8.90609,-0.05346,0.02267,0.99822,-0.01328,15.67450,-14.51511,0.71508
-0.07748,1.47069,0.09957,-0.09696,-1.05200,0.04561,5.84216,-4.13025,-2.51960,-5.39786,-2.60985,-10.76889,-0.08115,-0.02056,0.99630,0.01954,14.14544,3.55608,-23.24457
-0.08337,1.45470,0.09103,-0.16391,-1.07215,-0.08980,5.92514,-4.06712,-2.99918,-5.64014,-0.88803,-12.18894,-0.10509,-0.06353,0.99089,0.05525,18.90831,16.51466,-31.74012
-0.09094,1.43986,0.07729,-0.24054,-1.06990,-0.27124,6.07827,-4.00013,-3.41144,-5.59682,1.48449,-13.72284,-0.12848,-0.10915,0.98136,0.09226,21.46629,15.93971,-24.78849
-0.09969,1.42763,0.05788,-0.31973,-1.03034,-0.50178,6.33402,-4.12300,-3.53051,-4.90104,4.09068,-14.78263,-0.15771,-0.15827,0.96702,0.12230,17.30867,-2.08624,-9.50472
-0.10774,1.41789,0.03653,-0.37318,-0.96122,-0.71604,6.56924,-4.57642,-3.25354,-3.50013,6.68100,-15.35128,-0.19802,-0.20870,0.94750,0.13959,8.87697,-32.08764,3.50978
-0.11493,1.41164,0.01203,-0.40218,-0.85379,-0.93210,6.65665,-5.37809,-2.72463,-1.33895,9.48874,-15.13192,-0.25116,-0.25701,0.92189,0.14485,-8.31488,-60.99208,7.27850
-0.12028,1.40950,-0.01475,-0.39784,-0.70817,-1.13723,6.46476,-6.44085,-2.11373,1.68172,12.09332,-14.23511,-0.31591,-0.29790,0.88987,0.13998,-29.66748,-79.91943,-1.52106
-0.12276,1.41187,-0.04320,-0.35175,-0.52602,-1.32521,6.00798,-7.54750,-1.57524,4.90705,14.57127,-12.90438,-0.38664,-0.32922,0.85183,0.12851,-45.18309,-81.40829,-14.50360
-0.12180,1.41907,-0.07272,-0.26390,-0.30945,-1.48834,5.32956,-8.59988,-1.15349,7.81988,17.02590,-10.70313,-0.46040,-0.35037,0.80794,0.11180,-52.55460,-72.41047,-27.07555
-0.11695,1.43128,-0.10213,-0.13681,-0.06391,-1.61670,4.43056,-9.63043,-0.91753,10.35820,18.51398,-7.75876,-0.53742,-0.35872,0.75776,0.09111,-56.15935,-66.80573,-44.56921
-0.10991,1.44556,-0.12963,-0.00590,0.15796,-1.68999,3.47872,-10.45928,-0.91032,11.62128,19.04955,-4.62969,-0.61212,-0.35606,0.70253,0.07050,-56.39991,-59.70614,-62.35126
-0.09693,1.46853,-0.15609,0.18528,0.46145,-1.73069,2.08654,-11.29424,-1.30557,13.43505,19.33875,-0.66552,-0.69148,-0.32802,0.64176,0.04901,-46.89218,-45.84715,-86.57841
-0.08208,1.49320,-0.17905,0.36710,0.73155,-1.71312,0.87991,-11.32361,-1.91002,14.25804,19.70099,2.78298,-0.75229,-0.29170,0.58958,0.03698,-32.03834,-2.70399,-91.14413
-0.06553,1.51981,-0.19963,0.53434,0.97186,-1.66596,-0.09171,-10.94440,-2.48634,15.21515,21.21560,5.07374,-0.80026,-0.25148,0.54362,0.02869,-18.29142,30.84001,-91.15596
-0.04096,1.55766,-0.21614,0.78405,1.32612,-1.56684,-1.48622,-10.37315,-3.30148,15.77710,23.65034,7.15798,-0.84212,-0.18716,0.50547,0.01735,-16.85508,45.69452,-93.02904
-0.01754,1.59425,-0.23244,0.96628,1.59020,-1.48650,-2.42799,-10.48303,-4.29323,17.58310,26.04885,9.83271,-0.88817,-0.11814,0.44398,0.00894,3.93526,-0.16653,-104.85690
0.01271,1.64128,-0.24383,1.20767,1.94873,-1.35355,-4.40813,-10.37290,-5.71301,17.61224,27.07658,9.73954,-0.92165,-0.00319,0.38767,-0.01650,-54.58517,15.83809,-161.13160
0.02316,1.67467,-0.24635,1.53335,2.42579,-1.19346,-6.11575,-9.70920,-8.52127,21.57393,27.98172,9.43963,-0.93081,0.15469,0.33092,-0.01263,24.63355,-24.21799,-180.90880
0.03971,1.71381,-0.25467,1.81592,2.77224,-1.09224,-6.51608,-8.73210,-10.60516,26.94206,28.15178,7.89018,-0.91635,0.28677,0.27928,0.00824,77.60361,-25.90767,-175.90990
0.06401,1.75940,-0.26089,2.28345,3.19287,-0.96703,-6.09259,-7.40429,-12.78408,42.13197,31.14759,11.94303,-0.87550,0.41749,0.23726,0.05394,119.83020,-55.59274,-130.63930
0.10387,1.81007,-0.26205,3.09046,3.65384,-0.75394,-4.88764,-5.78504,-15.08328,59.04760,24.51494,16.22651,-0.80280,0.54500,0.20806,0.12324,154.96240,-75.91666,-110.15070
0.15579,1.85662,-0.26013,4.00264,3.91470,-0.47891,-3.22885,-4.86302,-16.38174,70.28074,11.92920,24.38756,-0.72214,0.64054,0.17283,0.19584,118.78470,-88.91837,-60.18266
0.22077,1.89868,-0.25246,4.87660,3.98963,-0.14754,-0.78444,-4.45980,-17.09133,75.65960,-0.76730,34.25261,-0.63199,0.70442,0.14004,0.29115,103.71020,-152.49330,-15.23707
0.30276,1.92393,-0.22523,6.12554,3.81882,0.50282,3.58856,-4.74127,-17.62391,79.95081,-22.29109,51.00869,-0.51404,0.72293,0.11969,0.44588,97.03021,-256.83020,-9.84626
0.39540,1.94172,-0.18692,7.05289,3.42874,1.16615,6.85141,-5.71321,-17.89472,76.75203,-43.98256,61.33288,-0.37802,0.71452,0.08020,0.58321,32.26028,-298.12790,-45.78439
0.49673,1.93606,-0.12963,7.91505,2.72978,1.98090,8.76780,-6.76561,-19.11122,71.86976,-75.71694,73.17429,-0.20286,0.69863,0.01217,0.68601,-21.57152,-206.87630,-122.05890
0.59142,1.86077,-0.03583,8.76677,1.09410,3.28932,10.42772,-6.00778,-22.36660,31.97430,-132.46180,83.55836,0.05836,0.68933,-0.05285,0.72015,142.64100,-78.52603,-166.11340
0.64885,1.73419,0.06324,8.77968,-1.08451,4.45112,13.17481,-2.99161,-22.91708,-30.01958,-178.48900,78.49274,0.29610,0.65953,-0.02067,0.69059,223.04690,-157.80040,4.92481
0.64018,1.55790,0.14980,7.82841,-3.74027,5.26242,18.25896,0.63454,-21.89481,-107.18100,-196.99390,29.84186,0.54384,0.57707,0.09145,0.60239,159.94480,-319.45980,-139.22880
0.54825,1.36369,0.19356,5.78106,-6.43424,5.36025,25.73297,4.11811,-16.07905,-170.57570,-183.35300,-22.70464,0.71442,0.43076,0.33973,0.43432,240.43310,-553.14110,-262.89240
0.43868,1.19215,0.19890,3.63306,-8.45912,4.78689,33.49464,4.60530,-10.09837,-188.99230,-157.65120,-74.40223,0.79748,0.15521,0.55214,0.18728,346.79470,-350.94960,-676.54000
0.27663,1.03013,0.13478,0.98884,-10.29708,3.22302,38.35215,-2.54308,-8.23794,-204.75240,-103.36950,-146.61990,0.74933,-0.25053,0.61137,0.04420,399.67110,178.63860,-593.38220
0.09900,0.96013,-0.03311,-1.82209,-10.47962,0.18061,34.60020,-8.00816,-12.38074,-129.22580,81.79232,-186.43100,0.69144,-0.51020,0.50744,0.06421,208.28250,549.33610,142.51340
0.00848,0.99419,-0.16690,-3.05547,-8.79010,-1.83185,29.74175,-8.37380,-12.30105,-42.58117,147.53410,-98.01012,0.64375,-0.61261,0.45636,0.04507,-218.37410,278.43900,108.87360
-0.01949,1.06623,-0.24028,-3.17761,-6.83884,-2.49976,25.04755,-8.99130,-9.04437,20.48628,127.35010,-5.86249,0.58763,-0.64633,0.48677,-0.00121,-361.18190,88.73126,17.02876
-0.01517,1.13440,-0.26020,-2.83370,-5.34738,-2.24662,20.28804,-11.34744,-6.47840,27.38308,86.71593,38.15075,0.48232,-0.67674,0.55500,-0.03703,-324.47650,97.40569,-272.51900
-0.00233,1.18141,-0.24525,-2.47757,-4.43992,-1.55802,13.79256,-11.85565,-4.04247,17.57541,44.37354,53.48605,0.41329,-0.63846,0.64889,-0.02221,-384.50030,110.72930,-242.46880
0.00632,1.20232,-0.21070,-2.33653,-4.06753,-0.80416,6.12704,-9.74984,-2.53850,-3.54215,15.88913,44.95913,0.39635,-0.53645,0.74161,0.07171,-526.03860,177.84000,-191.35000
0.27251,0.92800,-0.07326,-2.45633,-3.88753,-0.24439,0.69752,-3.56105,-2.47917,-12.14540,13.81106,34.27345,0.48061,-0.43012,0.73030,0.22511,-324.36600,478.45350,-76.37305
0.36781,0.77614,0.00132,-2.71891,-3.60889,0.16602,-3.13646,1.95851,-2.31213,-18.07460,26.84938,18.38975,0.56104,-0.30605,0.67793,0.36328,-287.69190,404.57530,34.46939
0.35951,0.71375,0.02717,-2.94787,-3.22806,0.32706,-3.15297,5.19792,-4.17053,-12.83196,34.67621,14.97624,0.60008,-0.29662,0.57755,0.46729,16.15674,275.78510,-267.56080
0.33797,0.67936,0.04815,-3.12217,-2.71165,0.44993,-2.91423,5.87797,-5.38990,-4.97383,31.45876,6.97480,0.60079,-0.30157,0.51173,0.53501,-3.15387,67.50751,-83.93868
0.30477,0.65580,0.05974,-3.16478,-2.36541,0.48846,-2.54614,4.73265,-6.01241,0.33722,28.27855,3.37202,0.57349,-0.32658,0.48548,0.57338,-25.13067,-78.62969,-57.01924
0.27270,0.64248,0.07022,-3.12687,-1.99648,0.52110,-2.68276,2.72741,-6.15793,5.81815,25.46851,2.29809,0.52294,-0.35275,0.49173,0.60026,-57.99382,-129.78010,10.27962
0.24427,0.63472,0.07990,-3.00710,-1.66258,0.54601,-3.22163,1.20353,-5.64574,8.97496,23.11895,0.00787,0.47432,-0.35802,0.50959,0.62222,-81.72112,-94.82998,58.68769
0.21902,0.62951,0.08767,-2.85037,-1.37170,0.54534,-3.39704,1.00773,-5.01133,10.14348,20.01609,-2.21027,0.45212,-0.34829,0.50754,0.64551,-33.40450,-16.99025,57.98649
0.19589,0.62665,0.09391,-2.67635,-1.11454,0.52608,-3.10255,1.65873,-4.45349,12.96663,18.10582,-1.96773,0.45413,-0.33217,0.48579,0.66891,34.44853,40.59719,27.92164
0.17979,0.63067,0.09931,-2.42785,-0.80645,0.49605,-2.72565,2.37570,-3.86199,14.12093,16.29190,-1.60549,0.46325,-0.31186,0.46161,0.68924,39.33558,38.45243,21.63687
0.15807,0.62935,0.10513,-2.28543,-0.64947,0.47867,-2.59766,2.70605,-3.60774,14.13296,15.09611,-2.16386,0.46071,-0.29558,0.43910,0.71244,26.91599,31.31522,17.64355
0.15006,0.63540,0.10760,-2.06047,-0.43068,0.42815,-2.24246,3.21060,-3.25122,13.88614,12.40501,-4.82350,0.46896,-0.27530,0.41270,0.73073,27.46740,31.29172,11.96684
0.13447,0.63892,0.10851,-1.87946,-0.28434,0.35204,-1.73353,3.26043,-2.96913,12.96799,9.15839,-6.08465,0.47611,-0.26609,0.39006,0.74187,43.12127,8.91502,8.02987
0.12038,0.64213,0.10708,-1.71309,-0.17212,0.25836,-1.27357,2.82533,-2.55760,11.83449,7.19537,-6.99726,0.47967,-0.26542,0.37990,0.74508,34.60558,-26.91789,21.28908
0.10679,0.64596,0.10397,-1.56700,-0.07908,0.16044,-0.88171,2.04640,-2.09195,9.79629,6.33455,-6.47319,0.47937,-0.27306,0.38071,0.74210,28.06985,-52.87959,34.34360
0.09433,0.65089,0.10050,-1.43376,0.01218,0.07811,-0.61503,1.17630,-1.75420,9.40778,6.58812,-4.82558,0.47408,-0.28661,0.38545,0.73793,15.94022,-64.81241,27.97143
0.08536,0.65830,0.09773,-1.27342,0.12244,0.02257,-0.58712,0.40196,-1.49351,10.09357,6.69958,-2.03560,0.46325,-0.29957,0.39275,0.73580,0.72323,-51.46167,19.83317
0.07585,0.66504,0.09704,-1.15239,0.19704,0.01120,-0.72832,0.08776,-1.36630,9.47638,5.30231,0.34247,0.45171,-0.30438,0.39466,0.73997,-10.01633,-37.86920,13.06408
0.06806,0.67307,0.09745,-1.03208,0.27439,0.01834,-0.89074,-0.11599,-1.65540,9.60230,4.62844,1.20782,0.43596,-0.31267,0.38691,0.74998,0.65754,6.65248,20.98911
0.06363,0.67916,0.09962,-0.88706,0.30695,0.04868,-0.77861,0.44357,-1.38673,10.82682,1.80749,1.07867,0.44128,-0.29913,0.37723,0.75729,-0.05261,38.49701,12.45057
0.06058,0.68425,0.10166,-0.74965,0.31575,0.07405,-0.63136,0.82327,-1.27276,9.82019,0.15305,1.17113,0.44539,-0.28969,0.36566,0.76420,9.29724,22.77151,7.67251
0.05921,0.68832,0.10349,-0.61521,0.30768,0.09061,-0.30168,1.26693,-1.22736,9.70630,-1.13064,0.93825,0.45607,-0.28009,0.34831,0.76957,24.77684,29.32895,-0.64320
0.05950,0.69160,0.10486,-0.48427,0.29039,0.09626,-0.05611,1.58455,-1.12012,9.44113,-1.72000,0.27320,0.46651,-0.26982,0.33331,0.77361,24.48861,24.82064,3.26002
0.05980,0.69438,0.10555,-0.38090,0.26915,0.09171,0.04213,1.69506,-0.98666,8.69539,-2.16451,-0.65505,0.47303,-0.26101,0.32289,0.77708,12.45284,13.13730,8.84330
0.06399,0.69525,0.10485,-0.23930,0.22189,0.06927,0.05812,1.61921,-0.62991,7.76505,-3.35968,-1.33685,0.47843,-0.25173,0.32202,0.77720,3.78588,-2.59220,17.49850
0.06607,0.69573,0.10455,-0.15810,0.18222,0.05260,-0.10206,1.36876,-0.26179,6.73488,-3.68123,-0.96215,0.47793,-0.24405,0.32806,0.77743,-2.77073,-14.18306,27.66913
0.06878,0.69584,0.10383,-0.08513,0.14565,0.03616,-0.44358,1.00412,0.18417,6.18256,-2.95840,-1.24681,0.47094,-0.23563,0.34336,0.77769,-21.56837,-27.71684,37.92912
0.07383,0.69539,0.10208,0.00774,0.10800,0.00898,-0.85860,0.59769,0.67611,5.48720,-1.87851,-2.01628,0.45953,-0.22616,0.36550,0.77723,-25.46088,-26.98180,37.39555
0.07925,0.69502,0.10010,0.08734,0.07941,-0.01923,-0.99048,0.46004,0.88264,5.28888,-1.96515,-2.25500,0.45388,-0.21723,0.37747,0.77738,-12.89979,-14.04598,19.54505
0.08522,0.69411,0.09725,0.16150,0.04736,-0.05189,-0.88209,0.51897,0.92109,4.89758,-2.25203,-2.68812,0.45484,-0.20847,0.38163,0.77718,2.54310,0.68000,6.85686
0.09189,0.69238,0.09368,0.23048,0.01022,-0.08864,-0.53434,0.74633,0.74835,4.69649,-2.72131,-2.73454,0.46345,-0.20142,0.37541,0.77699,20.20087,15.01918,-10.43450
0.09942,0.68978,0.08962,0.29611,-0.03051,-0.12677,-0.10649,1.01476,0.50053,4.82191,-3.02814,-2.76485,0.47631,-0.19573,0.36356,0.77630,28.03347,20.08282,-19.91180
0.10769,0.68651,0.08489,0.36076,-0.07227,-0.16562,0.29119,1.26102,0.33069,4.80978,-3.05786,-2.42655,0.49124,-0.18942,0.35132,0.77420,28.89160,20.29145,-17.18801
0.11609,0.68335,0.08039,0.41220,-0.10333,-0.19366,0.48315,1.39156,0.28424,4.49741,-2.45741,-1.89190,0.50272,-0.18178,0.34336,0.77223,20.45039,13.94534,-8.44211
0.12645,0.68001,0.07516,0.48207,-0.12990,-0.22713,0.57928,1.57136,0.26729,4.53323,-1.18381,-2.00950,0.51355,-0.17103,0.33510,0.77119,6.38783,9.95739,-1.33488
0.13707,0.67739,0.06974,0.54357,-0.14101,-0.25652,0.63098,1.79360,0.22830,4.38782,-0.52840,-2.14114,0.52420,-0.15824,0.32494,0.77110,3.52251,15.14586,-1.98996
0.14836,0.67497,0.06388,0.60186,-0.14694,-0.28692,0.74450,2.09425,0.13076,3.95990,-0.24259,-2.34399,0.53737,-0.14403,0.31028,0.77085,3.71722,19.35616,-4.21467
