posX, posY, posZ, velX, velY, velZ, angVelX, angVelY, angVelZ, accX, accY, accZ, rotX, rotY, rotZ, rotW, angAccX, angAccY, angAccZ
0.08986,1.33875,-0.47952,-1.05338,1.00026,-0.55664,1.78592,1.53700,1.39989,-0.14132,-3.05022,3.80014,0.24948,0.86142,0.20952,0.38963,3.39669,-5.49871,-16.35163
0.07498,1.35000,-0.48357,-1.05662,0.96061,-0.50557,1.91332,1.50655,1.23859,-0.21922,-2.68084,3.35175,0.25480,0.86259,0.22285,0.37596,7.65833,-1.76583,-13.37776
0.05995,1.36055,-0.48651,-1.06109,0.91892,-0.44667,2.09827,1.57857,1.10975,-0.20340,-2.07113,3.28078,0.26161,0.86407,0.23766,0.35842,9.79100,6.57756,-8.05421
0.04492,1.37151,-0.48983,-1.06480,0.89115,-0.40393,2.13092,1.59314,1.05111,-0.23133,-1.90115,3.17120,0.26501,0.86585,0.25014,0.34279,4.60013,3.97651,-4.80310
0.02990,1.38271,-0.49356,-1.06736,0.87322,-0.37681,2.01273,1.54926,1.02992,-0.19628,-1.71431,2.90735,0.26529,0.86807,0.25922,0.32998,-4.15156,-1.33178,-3.15137
0.01473,1.39288,-0.49584,-1.07142,0.84370,-0.33447,1.62183,1.33841,1.03309,-0.44801,-1.86331,2.39826,0.25990,0.87088,0.26146,0.32505,-21.28168,-11.74846,1.07816
-0.00108,1.40233,-0.49864,-1.08384,0.80835,-0.30776,1.23990,1.11580,0.78147,-0.20055,-1.88384,1.10140,0.26089,0.87144,0.25937,0.32444,-22.19638,-26.05943,-19.98160
-0.01581,1.41313,-0.50157,-1.07774,0.80116,-0.28808,1.09554,1.26099,0.99431,1.04887,-0.01153,1.07542,0.25406,0.87770,0.26344,0.30935,-21.99924,9.95339,13.37936
-0.03032,1.42410,-0.50372,-1.06788,0.79179,-0.26483,1.18196,1.41798,0.97986,0.11076,-1.02834,1.57725,0.25514,0.88087,0.27090,0.29254,2.71515,9.47588,4.14677
-0.04568,1.43468,-0.50476,-1.07204,0.77685,-0.23100,1.36649,1.60799,0.99515,-0.26909,-1.02357,2.53949,0.25734,0.88344,0.28133,0.27233,12.67434,15.32376,0.00412
-0.06084,1.44495,-0.50595,-1.07390,0.76513,-0.20346,1.34249,1.59376,1.01185,0.13149,-1.13029,2.60937,0.25612,0.88570,0.28837,0.25842,4.23562,3.67283,1.91007
-0.07566,1.45511,-0.50659,-1.07031,0.75292,-0.17577,1.23665,1.53893,0.99793,0.43018,-1.14392,2.23393,0.25433,0.88804,0.29281,0.24690,-8.93622,-5.16707,0.67096
-0.09006,1.46481,-0.50603,-1.06091,0.73517,-0.13781,1.16889,1.51298,0.95796,0.71321,-1.24394,2.30313,0.25370,0.89002,0.29720,0.23490,-4.81185,-1.64871,-2.01680
-0.10415,1.47409,-0.50558,-1.04977,0.71764,-0.10613,1.13047,1.47914,0.89499,0.83123,-1.36685,2.11783,0.25400,0.89131,0.30187,0.22342,-3.57812,-2.38766,-3.63571
-0.11802,1.48309,-0.50470,-1.03754,0.69887,-0.07575,1.17788,1.51840,0.80046,0.82666,-1.32668,1.89642,0.25688,0.89181,0.30777,0.20969,-0.10409,0.56560,-6.38902
-0.13185,1.49198,-0.50371,-1.02786,0.68345,-0.04954,1.29030,1.62727,0.71866,0.75883,-1.27666,2.12331,0.26136,0.89173,0.31515,0.19283,7.87944,8.97092,-7.52568
-0.14548,1.50006,-0.50155,-1.01718,0.65984,-0.01066,1.38681,1.75941,0.63478,0.60029,-1.44792,2.26287,0.26675,0.89138,0.32213,0.17468,4.86810,8.09696,-4.33490
-0.15905,1.50819,-0.49938,-1.00742,0.64146,0.02192,1.40972,1.81260,0.59089,0.90941,-1.33646,2.56081,0.27040,0.89118,0.32805,0.15833,2.10237,6.45144,-3.27469
-0.17238,1.51619,-0.49695,-0.99651,0.62583,0.05125,1.37437,1.79444,0.55635,1.00679,-1.42235,2.49326,0.27301,0.89098,0.33288,0.14426,-2.03041,-0.06886,-2.40103
-0.18522,1.52375,-0.49363,-0.98110,0.60640,0.08599,1.35207,1.77396,0.49456,1.19728,-1.42974,2.40620,0.27658,0.89018,0.33764,0.13069,-2.82289,-1.70317,-3.59444
-0.19742,1.53117,-0.48906,-0.95939,0.58450,0.12627,1.34251,1.75223,0.41503,1.52394,-1.49271,2.44702,0.28103,0.88880,0.34245,0.11738,-0.54139,-0.01473,-4.79406
-0.20948,1.53848,-0.48488,-0.94040,0.56763,0.15484,1.29892,1.66973,0.34054,1.65333,-1.53890,2.26502,0.28487,0.88728,0.34675,0.10653,-2.81676,-4.37283,-5.70725
-0.22102,1.54519,-0.48053,-0.91780,0.54821,0.18388,1.24954,1.58914,0.25907,1.51869,-1.20629,1.84686,0.28910,0.88555,0.35053,0.09668,-6.13679,-6.59687,-6.33606
-0.23250,1.55178,-0.47601,-0.89913,0.53140,0.21007,1.25625,1.58072,0.22354,1.15274,-1.22415,1.67876,0.29324,0.88355,0.35529,0.08435,0.66965,-1.67022,-3.65683
-0.24426,1.55840,-0.47183,-0.88846,0.51938,0.22620,1.23978,1.59208,0.23763,1.05918,-1.22982,1.59605,0.29611,0.88212,0.35935,0.07112,0.20704,1.30639,-0.81806
-0.25512,1.56415,-0.46678,-0.86711,0.49715,0.25147,1.17059,1.59381,0.26323,1.40309,-0.98650,1.32322,0.29805,0.88144,0.36164,0.05865,-7.32836,-2.36639,3.23280
-0.26548,1.56993,-0.46169,-0.84247,0.47939,0.27288,1.20111,1.63138,0.22442,1.99606,-1.50458,1.56449,0.30258,0.87893,0.36597,0.04475,2.67360,3.26781,-1.43471
-0.27478,1.57505,-0.45608,-0.80698,0.45544,0.29812,1.18269,1.62120,0.11827,2.33985,-1.54688,1.71274,0.30873,0.87597,0.36912,0.03334,-1.77413,0.63628,-6.77026
-0.28606,1.57941,-0.45285,-0.78628,0.43722,0.31477,1.17622,1.57661,0.05302,2.17433,-1.51012,1.74659,0.31376,0.87288,0.37297,0.02297,-1.55012,-2.71347,-6.45741
-0.29758,1.58316,-0.44981,-0.76508,0.41736,0.33543,1.23873,1.55540,-0.01518,1.95507,-1.23696,1.88264,0.31952,0.86859,0.37857,0.01180,1.60512,-1.55818,-5.80184
-0.30866,1.58701,-0.44573,-0.74711,0.39938,0.35792,1.33293,1.55184,-0.04612,1.59811,-1.27733,1.85945,0.32474,0.86374,0.38535,-0.00057,6.13529,-1.19557,-3.55698
-0.31699,1.59104,-0.43872,-0.71608,0.37650,0.38826,1.48426,1.60896,-0.11594,1.89441,-1.22534,1.43704,0.33194,0.85720,0.39344,-0.01514,8.05341,3.20011,-4.21486
-0.32542,1.59543,-0.43241,-0.69276,0.36359,0.40191,1.49556,1.62870,-0.15722,2.11314,-1.14266,1.10423,0.33828,0.85198,0.39863,-0.02807,5.50942,4.34586,-4.38279
-0.33350,1.59985,-0.42620,-0.66963,0.35425,0.41080,1.40569,1.57699,-0.17635,1.96737,-0.64605,0.70581,0.34335,0.84813,0.40166,-0.03811,-4.98458,-1.44610,-2.63716
-0.34116,1.60437,-0.41998,-0.64548,0.34824,0.41817,1.24239,1.48686,-0.13095,1.16596,-0.14210,0.33873,0.34603,0.84620,0.40256,-0.04641,-10.29828,-6.09047,2.14974
-0.34934,1.60916,-0.41384,-0.63344,0.34743,0.42293,1.12999,1.45677,0.00243,0.61033,0.07073,0.24960,0.34638,0.84497,0.40344,-0.05736,-8.49411,-4.33664,9.13525
-0.35758,1.61392,-0.40764,-0.62491,0.34636,0.42751,1.09355,1.48029,0.15856,0.61797,-0.16888,0.24495,0.34580,0.84336,0.40514,-0.07097,-2.29020,0.35890,11.58185
-0.36556,1.61844,-0.40157,-0.61415,0.34174,0.42922,1.01254,1.46667,0.29150,1.03508,-0.56666,0.10157,0.34459,0.84247,0.40568,-0.08327,-2.19811,0.20863,10.24279
-0.37314,1.62278,-0.39568,-0.59960,0.33549,0.42792,0.83398,1.36027,0.40546,1.15845,-0.53020,-0.08087,0.34207,0.84344,0.40399,-0.09163,-10.31522,-7.03982,9.15598
-0.37572,1.62761,-0.38695,-0.57034,0.32892,0.43246,0.65784,1.24621,0.50595,0.94934,-0.55818,-0.22749,0.33939,0.84488,0.40153,-0.09885,-12.61719,-10.88688,8.14674
-0.36983,1.63325,-0.37350,-0.51282,0.32119,0.45113,0.62589,1.28636,0.56827,1.18040,-0.55974,0.14026,0.33944,0.84391,0.40040,-0.11082,-4.61273,0.66438,4.72976
-0.36676,1.63833,-0.36178,-0.46838,0.31276,0.46951,0.67175,1.33586,0.58163,1.44313,-1.06006,0.56342,0.34026,0.84145,0.40111,-0.12368,3.51376,5.48034,2.28390
-0.37084,1.64178,-0.35416,-0.44421,0.29736,0.47868,0.69872,1.32059,0.57935,1.72728,-1.23460,0.56669,0.33987,0.83936,0.40229,-0.13463,2.27594,0.66739,-0.21956
-0.37505,1.64458,-0.34713,-0.41437,0.27716,0.48417,0.67389,1.25358,0.53276,2.05514,-1.34973,0.16693,0.34003,0.83762,0.40296,-0.14284,-1.22670,-4.48478,-2.64957
-0.37939,1.64755,-0.34038,-0.39329,0.26406,0.48430,0.64400,1.22205,0.48729,2.13390,-1.35789,-0.11627,0.34075,0.83576,0.40308,-0.15138,-2.62789,-3.89151,-4.24202
-0.38258,1.64983,-0.33397,-0.35989,0.24366,0.47931,0.52985,1.13867,0.43782,2.09287,-1.30043,-0.40224,0.34148,0.83525,0.40137,-0.15703,-6.11096,-4.30002,-3.28100
-0.38573,1.65211,-0.32775,-0.33246,0.22722,0.47246,0.41798,1.06540,0.40211,1.81508,-1.03646,-0.57360,0.34202,0.83511,0.39911,-0.16224,-9.44569,-7.56518,-1.42200
-0.38835,1.65421,-0.32153,-0.30239,0.21127,0.46725,0.44132,1.13164,0.30957,1.61401,-0.78273,-0.24463,0.34548,0.83205,0.39875,-0.17128,-1.38141,2.63464,-5.56948
-0.39100,1.65627,-0.31508,-0.27867,0.19793,0.46653,0.58420,1.30928,0.20247,1.61947,-0.84094,-0.03993,0.35082,0.82607,0.40050,-0.18475,7.69407,11.34791,-7.41867
-0.39333,1.65837,-0.30854,-0.25522,0.18807,0.46733,0.71997,1.45786,0.11417,1.84293,-0.63262,0.18242,0.35619,0.81942,0.40274,-0.19871,10.34437,13.54074,-7.82102
-0.39529,1.66045,-0.30185,-0.23069,0.17976,0.47020,0.79534,1.46422,0.08868,1.62145,-0.59955,0.27797,0.35905,0.81418,0.40515,-0.20989,5.70214,2.63362,-2.92557
-0.39740,1.66258,-0.29514,-0.21375,0.17407,0.47270,0.78367,1.39128,0.11618,1.49798,-0.50833,0.23660,0.35992,0.81091,0.40626,-0.21871,1.05804,-4.64866,0.59742
-0.39912,1.66462,-0.28835,-0.19478,0.16821,0.47592,0.73542,1.25346,0.17236,1.37579,-0.45850,0.28571,0.35902,0.80911,0.40704,-0.22534,-2.77682,-9.16369,3.37529
-0.40061,1.66654,-0.28138,-0.17626,0.16186,0.48114,0.69322,1.10562,0.23416,1.29193,-0.41924,0.46536,0.35711,0.80784,0.40802,-0.23106,-3.27788,-11.35771,4.35687
-0.40181,1.66829,-0.27415,-0.15723,0.15424,0.48921,0.72063,1.00832,0.25985,1.32609,-0.51567,0.58817,0.35562,0.80531,0.41050,-0.23767,0.84033,-8.26258,2.71213
-0.40273,1.67000,-0.26681,-0.13833,0.14779,0.49710,0.80900,1.02590,0.23150,1.53011,-0.40204,0.66103,0.35618,0.80050,0.41397,-0.24693,5.05942,-2.52243,-1.18863
-0.40295,1.67154,-0.25918,-0.11334,0.14007,0.50751,0.97439,1.12140,0.15079,1.80536,-0.62991,0.74194,0.35868,0.79276,0.41942,-0.25877,11.09235,6.86074,-5.73697
-0.40306,1.67303,-0.25151,-0.09217,0.13345,0.51619,1.04227,1.12941,0.12556,2.03688,-0.70618,0.81371,0.35965,0.78677,0.42369,-0.26857,9.57818,6.20149,-4.61034
-0.40250,1.67430,-0.24346,-0.06555,0.12494,0.52863,1.02269,0.93859,0.15782,1.70810,-0.54094,0.87455,0.35698,0.78423,0.42797,-0.27275,-0.87375,-10.96714,0.88669
-0.40205,1.67555,-0.23522,-0.04573,0.11776,0.54156,0.99171,0.70602,0.23947,1.37206,-0.53832,0.97638,0.35179,0.78328,0.43232,-0.27536,-1.96388,-15.70172,3.81462
-0.40132,1.67662,-0.22673,-0.02540,0.10937,0.55560,0.94871,0.41706,0.33465,1.22105,-0.51874,0.73302,0.34446,0.78384,0.43713,-0.27542,-2.16773,-19.74277,4.86733
-0.40038,1.67762,-0.21845,-0.00597,0.10156,0.56368,0.94894,0.28211,0.35412,1.22533,-0.52339,0.41132,0.33961,0.78238,0.44211,-0.27764,-0.38182,-13.27978,2.24389
-0.39903,1.67848,-0.21033,0.01566,0.09319,0.56778,1.01421,0.32390,0.31474,1.40760,-0.57942,0.16290,0.33768,0.77799,0.44745,-0.28372,3.15996,-0.21970,-1.29591
-0.39728,1.67912,-0.20229,0.03856,0.08336,0.56977,1.11584,0.47280,0.23787,1.61442,-0.70089,0.11176,0.33817,0.77113,0.45310,-0.29275,6.65004,10.04990,-4.90673
-0.39523,1.67961,-0.19422,0.06130,0.07320,0.57198,1.21091,0.58041,0.16974,1.74810,-0.82239,0.20642,0.33856,0.76387,0.45927,-0.30158,6.89505,10.43701,-4.79869
-0.39291,1.67988,-0.18600,0.08326,0.06209,0.57574,1.27811,0.61008,0.10982,1.61409,-0.83429,0.30075,0.33831,0.75711,0.46587,-0.30870,4.58367,3.40413,-4.17069
-0.39049,1.67999,-0.17779,0.10179,0.05083,0.57870,1.34553,0.64037,0.05351,1.49786,-1.01037,0.17914,0.33820,0.74983,0.47281,-0.31596,5.10092,2.39762,-4.28143
-0.38782,1.67988,-0.16965,0.11981,0.03912,0.57985,1.38430,0.65001,0.02068,1.64546,-1.04162,0.04077,0.33769,0.74291,0.47940,-0.32284,4.54591,3.13099,-3.60585
-0.38435,1.67927,-0.16166,0.14590,0.02242,0.57848,1.32822,0.50188,-0.00687,1.45000,-0.95401,-0.13990,0.33569,0.73898,0.48561,-0.32466,-2.97755,-7.98497,-2.03514
-0.38109,1.67875,-0.15373,0.16428,0.00997,0.57661,1.28116,0.36792,-0.01875,1.20571,-0.82142,-0.11886,0.33315,0.73537,0.49176,-0.32621,-3.96950,-9.90395,-1.69179
-0.37802,1.67834,-0.14581,0.17550,0.00196,0.57518,1.26472,0.29353,-0.01662,0.99124,-0.75673,-0.17181,0.33052,0.73119,0.49794,-0.32889,-2.47740,-8.99219,-1.45105
-0.37431,1.67747,-0.13806,0.19387,-0.01095,0.57136,1.26866,0.22986,-0.00818,1.00826,-0.52692,-0.19789,0.32738,0.72685,0.50446,-0.33171,-0.47797,-3.96720,0.54839
-0.37056,1.67685,-0.13029,0.20955,-0.01779,0.56868,1.33015,0.23709,-0.02764,1.06588,-0.39623,-0.25197,0.32520,0.72048,0.51195,-0.33623,3.58591,-0.54167,-1.46281
-0.36655,1.67623,-0.12276,0.22582,-0.02337,0.56281,1.39968,0.31835,-0.05225,1.14554,-0.30797,-0.60942,0.32419,0.71273,0.51916,-0.34261,4.82585,4.24797,-1.20549
-0.36216,1.67576,-0.11556,0.24412,-0.02548,0.55237,1.41443,0.39459,-0.05603,1.53933,-0.29532,-0.85561,0.32344,0.70549,0.52508,-0.34922,3.58197,8.64283,-0.06443
-0.35752,1.67531,-0.10867,0.26241,-0.02681,0.54058,1.29974,0.30334,-0.05062,1.48625,-0.21528,-0.81874,0.32141,0.70232,0.52949,-0.35084,-6.53079,-3.74582,0.14794
-0.35257,1.67469,-0.10188,0.28244,-0.03073,0.53036,1.16778,0.12810,-0.06195,1.12201,-0.26803,-0.43364,0.31846,0.70091,0.53419,-0.34921,-9.12577,-11.58408,-1.72766
-0.34774,1.67392,-0.09469,0.29581,-0.03594,0.52747,1.13938,0.02958,-0.07553,1.04395,-0.40728,-0.09231,0.31536,0.69759,0.54028,-0.34929,-4.96175,-8.61308,-1.24715
-0.34258,1.67284,-0.08743,0.31128,-0.04455,0.52636,1.16277,-0.03726,-0.10905,1.04752,-0.61221,-0.09299,0.31239,0.69303,0.54758,-0.34967,1.00871,-6.14221,-2.42814
-0.33714,1.67168,-0.08032,0.32768,-0.05250,0.52301,1.20879,-0.01962,-0.15360,1.14214,-0.42786,-0.39708,0.31072,0.68691,0.55492,-0.35166,3.01605,-1.12520,-2.94789
-0.33117,1.67062,-0.07358,0.34863,-0.05726,0.51485,1.25531,0.10819,-0.21716,1.59759,-0.23908,-0.72100,0.31160,0.67889,0.56154,-0.35592,3.61178,7.50630,-3.42667
-0.32470,1.66965,-0.06717,0.37261,-0.05977,0.50367,1.27980,0.25329,-0.28190,1.86372,-0.26621,-0.85287,0.31380,0.67027,0.56751,-0.36083,3.12637,12.30180,-3.75844
-0.31790,1.66871,-0.06080,0.39624,-0.06128,0.49416,1.21461,0.24406,-0.34051,1.94487,-0.05993,-0.46058,0.31493,0.66460,0.57291,-0.36180,-3.46948,3.47248,-3.55592
-0.31083,1.66782,-0.05406,0.41932,-0.06192,0.49238,1.15747,0.11166,-0.40184,1.64721,-0.09084,0.20305,0.31411,0.66041,0.57966,-0.35943,-5.06405,-7.60755,-5.12430
-0.30363,1.66669,-0.04666,0.43938,-0.06585,0.50068,1.17441,-0.08384,-0.46419,1.46619,-0.22151,0.99124,0.31107,0.65589,0.58888,-0.35534,-1.15349,-11.97131,-4.94806
-0.29631,1.66537,-0.03855,0.45701,-0.07189,0.51748,1.24667,-0.33465,-0.54241,1.16007,-0.50534,1.40006,0.30600,0.65094,0.60069,-0.34901,3.79510,-17.92052,-7.08268
-0.28888,1.66377,-0.02996,0.47272,-0.08068,0.53801,1.38474,-0.53187,-0.62770,1.01726,-0.53812,1.59515,0.30036,0.64395,0.61438,-0.34301,7.49102,-15.61167,-7.04089
-0.28133,1.66213,-0.02123,0.48679,-0.08824,0.55588,1.55994,-0.60585,-0.70868,1.04882,-0.53987,1.40037,0.29567,0.63423,0.62871,-0.33919,13.20570,-9.99366,-6.86466
-0.27277,1.66039,-0.01220,0.51301,-0.09555,0.57449,1.85704,-0.50548,-0.81080,1.66258,-0.14633,0.73659,0.29294,0.61874,0.64500,-0.33960,17.43340,4.27168,-4.50015
-0.26387,1.65903,-0.00368,0.53979,-0.09595,0.58236,2.03819,-0.38820,-0.88239,2.06546,-0.17382,0.40698,0.29142,0.60392,0.65918,-0.34034,15.34950,9.00433,-3.62326
-0.25489,1.65751,0.00477,0.56166,-0.09871,0.58759,2.09814,-0.41121,-0.93620,1.96409,-0.68091,0.40831,0.28845,0.59192,0.67257,-0.33776,9.26010,4.45041,-3.82207
-0.24552,1.65515,0.01370,0.58464,-0.11378,0.59882,2.07873,-0.68122,-1.04733,1.53807,-1.34513,1.05338,0.28228,0.58335,0.68752,-0.32763,-2.68452,-13.59521,-7.59237
-0.23612,1.65201,0.02320,0.60375,-0.13731,0.61658,2.13646,-0.99628,-1.23259,1.48090,-1.75247,1.54909,0.27475,0.57302,0.70547,-0.31381,0.71992,-21.80229,-14.85220
-0.22609,1.64825,0.03327,0.62841,-0.16518,0.63898,2.36058,-1.14662,-1.46548,1.69319,-1.90065,1.74842,0.26870,0.55628,0.72630,-0.30140,12.19140,-14.04860,-18.27341
-0.21542,1.64386,0.04355,0.65725,-0.19678,0.65978,2.72249,-1.07292,-1.65083,1.86886,-2.36204,1.30218,0.26458,0.53261,0.74818,-0.29419,25.46338,0.84813,-12.64502
-0.20425,1.63870,0.05370,0.68765,-0.23327,0.67414,3.12697,-0.86733,-1.75395,2.09156,-2.86608,0.80196,0.26148,0.50437,0.76958,-0.29153,30.57928,10.86602,-4.32696
-0.19272,1.63255,0.06365,0.71702,-0.27706,0.68259,3.51500,-0.65909,-1.81711,2.15596,-3.46317,0.48069,0.25820,0.47341,0.79052,-0.29034,30.58645,12.84750,0.36341
-0.18111,1.62530,0.07365,0.74137,-0.32817,0.69009,3.82687,-0.62503,-1.89194,1.69420,-4.19806,0.52078,0.25199,0.44261,0.81175,-0.28577,26.78316,5.59154,-1.02869
-0.17011,1.61670,0.08376,0.75124,-0.38888,0.69759,3.95009,-0.89133,-2.07185,0.77066,-4.85464,0.54093,0.24158,0.41612,0.83351,-0.27155,10.99140,-12.32024,-12.51137
-0.15954,1.60620,0.09394,0.75282,-0.46649,0.70461,3.97942,-1.31230,-2.48375,-0.14747,-4.99890,0.38393,0.23034,0.39028,0.85679,-0.24603,-0.15072,-19.69420,-30.88876
-0.14936,1.59568,0.10390,0.74824,-0.52769,0.70690,4.08573,-1.54570,-2.75539,-0.92719,-5.05704,0.08379,0.21922,0.36113,0.87837,-0.22360,3.80068,-15.79330,-31.81801
-0.13983,1.58333,0.11338,0.73487,-0.60266,0.70124,4.34707,-1.68236,-2.92403,-1.53612,-5.38985,-0.88189,0.20626,0.32618,0.89971,-0.20392,16.78388,-10.46165,-16.66289
-0.13120,1.56981,0.12177,0.71070,-0.67948,0.68049,4.58222,-1.76009,-3.02374,-2.12730,-5.68104,-2.21051,0.19288,0.28964,0.91896,-0.18553,18.05039,-7.84492,-6.66409
-0.12360,1.55518,0.12882,0.67614,-0.75676,0.64397,4.79226,-1.78099,-3.12840,-3.02561,-5.40898,-3.03848,0.18042,0.25125,0.93624,-0.16666,14.00592,-3.53008,-8.09732
-0.11727,1.53965,0.13461,0.62987,-0.83134,0.59632,5.11447,-1.77539,-3.05907,-4.00642,-4.99735,-3.65262,0.16518,0.20862,0.95171,-0.15308,20.39922,-3.49475,2.43035
-0.11301,1.52295,0.13855,0.56127,-0.90870,0.53002,5.55600,-1.85774,-2.82761,-4.73770,-4.52041,-4.59995,0.14388,0.16159,0.96556,-0.14450,24.65785,-14.50211,14.14875
-0.10970,1.50657,0.14145,0.49197,-0.96568,0.46106,5.87119,-2.00688,-2.63882,-5.12389,-3.74695,-5.33084,0.12030,0.11555,0.97675,-0.13468,19.98639,-19.00878,11.54147
-0.10701,1.49054,0.14357,0.42900,-1.00473,0.39593,6.07527,-2.16792,-2.50075,-5.37930,-2.96414,-5.70103,0.09561,0.07053,0.98518,-0.12373,14.54012,-19.72877,7.79984
-0.10614,1.47426,0.14360,0.35307,-1.03881,0.31432,6.28179,-2.40964,-2.33361,-5.59908,-1.99552,-5.91347,0.06640,0.02460,0.99099,-0.11372,10.13260,-21.42712,4.85026
-0.10725,1.45816,0.14141,0.26193,-1.06318,0.21496,6.49206,-2.80832,-2.02630,-6.12040,-0.96986,-6.53035,0.02953,-0.02122,0.99349,-0.10794,7.21417,-30.40977,7.85565
-0.10854,1.44278,0.13895,0.18730,-1.07112,0.13239,6.58666,-3.19457,-1.79083,-6.41999,-0.36623,-7.45362,-0.00916,-0.06479,0.99269,-0.10144,2.83771,-38.06956,6.45451
-0.11128,1.42734,0.13369,0.10850,-1.07971,0.02696,6.62004,-3.31001,-1.90216,-4.74804,-0.80759,-9.41060,-0.04087,-0.10842,0.98951,-0.08628,-2.47059,-30.79607,-2.30289
-0.11698,1.41341,0.12375,-0.00077,-1.06240,-0.12913,6.49725,-3.65255,-1.93670,-8.37397,3.12183,-10.50249,-0.07892,-0.14588,0.98358,-0.07120,-8.21893,-5.56578,-18.94652
-0.12670,1.40282,0.11428,-0.10634,-1.01271,-0.28469,6.35833,-4.17733,-1.76699,-7.51143,4.27472,-11.31407,-0.12535,-0.18061,0.97349,-0.06309,-13.26201,-37.71755,-4.47311
-0.14286,1.38941,0.10762,-0.19406,-0.95027,-0.42504,6.18700,-4.72865,-1.62463,-7.32112,6.34824,-12.22881,-0.17565,-0.21237,0.95966,-0.05573,-17.79189,-40.10304,-14.23811
-0.16505,1.37956,0.09815,-0.30465,-0.82643,-0.62762,5.86529,-5.57399,-1.47907,-6.64167,9.44963,-13.14115,-0.23766,-0.23629,0.94078,-0.05109,-21.78315,-47.28285,-17.49577
-0.18352,1.37244,0.08700,-0.37565,-0.70337,-0.78437,5.52837,-6.17746,-1.51328,-4.87592,11.20460,-13.52742,-0.29685,-0.25680,0.91876,-0.04252,-25.71757,-47.82693,-29.88017
-0.20368,1.36995,0.07222,-0.43313,-0.52918,-0.97105,5.10061,-6.44317,-1.76959,-2.50851,13.87116,-14.11730,-0.34918,-0.27098,0.89661,-0.02699,-21.34319,-17.43707,-36.29813
-0.22343,1.37305,0.05529,-0.46066,-0.28343,-1.19256,4.68485,-6.27084,-2.04838,-0.72030,17.11156,-13.97513,-0.38892,-0.28288,0.87673,-0.00821,-15.30270,21.66011,-24.20771
-0.23774,1.37799,0.03734,-0.45788,-0.06993,-1.35631,4.38406,-6.35113,-2.04184,0.10425,19.13203,-13.06637,-0.43287,-0.29583,0.85153,0.00182,-16.51516,13.55402,-12.78302
-0.25247,1.38931,0.01736,-0.42975,0.24186,-1.55565,3.66849,-7.20559,-1.86395,2.04406,20.84267,-11.72021,-0.49679,-0.29304,0.81690,-0.00361,-42.94153,-38.69364,-20.31113
-0.26514,1.40411,-0.00200,-0.37177,0.58291,-1.73661,2.60724,-8.34118,-1.91541,5.04601,22.73074,-11.28046,-0.57097,-0.27248,0.77432,-0.01304,-59.19651,-59.86794,-47.25305
-0.27399,1.42186,-0.02372,-0.28391,0.90853,-1.89135,1.61379,-9.15465,-2.25433,8.24522,24.34622,-11.18954,-0.64053,-0.24338,0.72815,-0.01693,-54.17905,-48.91937,-65.53814
-0.27964,1.44283,-0.04644,-0.17291,1.20946,-2.02249,0.81441,-9.58903,-2.83581,10.73633,25.68300,-10.98219,-0.70287,-0.20815,0.68007,-0.01250,-37.83282,-31.51722,-72.53802
-0.28232,1.46803,-0.06944,0.00341,1.56659,-2.17349,0.29244,-9.85826,-3.50865,16.98752,29.60979,-10.42359,-0.76058,-0.17064,0.62642,-0.00025,27.55526,-42.37364,-82.34482
-0.27818,1.49924,-0.09156,0.30041,2.04117,-2.33226,-0.41900,-10.02869,-4.33279,20.06522,29.76846,-9.70260,-0.81185,-0.11888,0.57152,0.01166,-8.56261,8.44213,-67.20408
-0.26983,1.53191,-0.11708,0.57330,2.39789,-2.43640,-0.89106,-10.55790,-5.16509,25.05630,30.49785,-7.93946,-0.86373,-0.06350,0.49930,0.02537,2.89209,-36.02890,-75.83464
-0.25516,1.56819,-0.14162,0.95939,2.81919,-2.52471,-1.34885,-11.16093,-6.40228,31.17112,30.75124,-4.69190,-0.90906,0.00850,0.41383,0.04773,11.32719,-47.20454,-86.69154
-0.23261,1.60798,-0.16656,1.43132,3.23570,-2.56484,-1.16634,-11.55391,-7.80601,39.24983,30.18372,1.80628,-0.93963,0.08001,0.32035,0.08980,53.39251,-55.83712,-80.94257
-0.19954,1.65145,-0.18630,2.01781,3.65456,-2.49751,-0.93087,-10.79223,-9.30665,46.68686,29.00605,9.22234,-0.94340,0.16048,0.25315,0.14198,86.56012,-3.02623,-60.59764
-0.15877,1.69659,-0.20138,2.59246,3.96272,-2.35102,-0.35650,-10.16567,-10.38711,49.83778,22.39859,16.01722,-0.93436,0.23191,0.18358,0.19873,121.95290,-8.72112,-41.07790
-0.10581,1.73422,-0.20400,3.41489,4.25100,-2.00853,0.68646,-9.17393,-11.46008,53.32763,13.40296,27.67741,-0.90552,0.30158,0.12634,0.27042,111.60530,-15.94489,-9.07785
-0.04865,1.76877,-0.19654,4.15479,4.38367,-1.55573,1.67563,-8.01945,-12.00522,53.12975,5.86254,37.89791,-0.86562,0.36237,0.08209,0.33565,107.30820,-1.96862,18.60331
0.01252,1.80775,-0.18802,4.66728,4.41166,-1.15311,2.47005,-7.13237,-12.43608,51.03972,0.27266,43.62957,-0.81493,0.42158,0.03723,0.39595,121.63010,-15.14173,25.54904
0.07206,1.82244,-0.14370,5.52667,4.33286,-0.27866,3.66242,-5.28219,-14.06000,47.05010,-8.25737,52.85576,-0.71970,0.51405,0.01771,0.46634,145.10780,1.00990,-19.06815
0.13512,1.84114,-0.09731,6.15323,4.14844,0.53237,4.97061,-3.49377,-16.46791,45.82541,-18.87551,62.96093,-0.57780,0.62298,-0.00686,0.52726,191.00320,-9.39675,-98.97487
0.20265,1.83966,-0.02385,6.90611,3.67098,1.66912,8.06377,-1.07275,-19.66011,51.68426,-47.15919,83.15275,-0.34730,0.72580,-0.00519,0.59377,245.75830,-68.61279,-156.02070
0.28371,1.81106,0.06887,7.61917,2.69595,2.91719,12.45390,1.17946,-21.88026,49.26632,-98.63303,95.17656,-0.06370,0.76529,0.02627,0.63999,256.49290,-183.04110,-216.74930
0.36558,1.74068,0.17243,8.07747,1.16087,4.03161,16.19758,3.99661,-23.98902,28.09937,-160.72650,85.36604,0.24860,0.75637,0.06577,0.60148,218.55280,-173.06550,-283.79480
0.39549,1.55580,0.27750,7.90453,-1.98118,5.13513,23.24960,11.64257,-24.34267,-49.96868,-221.59970,41.44785,0.60460,0.65782,0.23080,0.38530,436.53160,-216.61170,-378.50330
0.36665,1.35547,0.32965,6.69882,-5.07708,5.28840,33.47588,15.77595,-19.05460,-117.33850,-212.91840,-24.95817,0.80974,0.35999,0.44962,0.11212,314.61590,-101.50350,-748.01510
0.30183,1.17739,0.33026,4.98945,-7.41624,4.51284,42.38588,14.56720,-11.58483,-154.89080,-154.37740,-96.96769,0.79791,-0.03904,0.58055,-0.15740,336.62840,441.10120,-840.57040
0.17251,1.06288,0.24719,2.63844,-8.80839,2.43587,40.59189,3.00537,-6.94697,-136.09690,-27.61590,-133.18520,0.65675,-0.29649,0.68140,-0.12833,-141.03030,591.99900,-664.08200
0.54175,1.09173,0.11243,1.18310,-8.40947,0.80447,29.26941,-1.50598,-9.46340,-71.82915,62.09534,-86.66038,0.65307,-0.32710,0.68183,0.04032,-652.19260,655.33220,9.90720
0.66827,1.07980,0.03405,0.54935,-7.60504,0.05503,20.75076,-0.88017,-9.94434,-29.61202,76.14262,-42.53060,0.68413,-0.30753,0.64765,0.13391,-603.03380,494.57930,241.18250
0.71434,1.07465,-0.02214,0.24054,-6.72691,-0.30175,14.55014,0.59672,-7.35371,-10.88133,61.58900,-11.05011,0.71438,-0.23711,0.63903,0.15837,-442.78230,149.11590,298.24920
0.72771,1.05539,-0.04525,-0.00109,-5.98616,-0.30948,9.51591,1.20065,-3.87018,-21.72073,35.15416,8.66720,0.72456,-0.14283,0.65601,0.15578,-281.66960,-70.65469,311.64480
0.71449,1.00864,-0.04773,-0.33477,-5.57128,-0.18743,5.14893,1.36596,-3.80354,-34.54701,30.27317,9.44009,0.72474,-0.09977,0.64336,0.22558,-338.82050,50.10048,91.78235
0.68600,0.95775,-0.04625,-0.74563,-5.25379,-0.08004,1.65410,2.60742,-4.50073,-35.11425,23.03889,7.63544,0.74152,-0.06129,0.59035,0.31285,-291.50620,195.79880,38.22882
0.64084,0.90702,-0.04496,-1.28669,-4.97850,-0.01588,-0.10419,3.48235,-5.87372,-31.83576,19.84420,1.32081,0.75235,-0.06760,0.52392,0.39358,-124.36240,122.16130,-61.82845
0.59548,0.86953,-0.04683,-1.76614,-4.68386,-0.02348,0.52360,3.02322,-6.73827,-24.78834,21.71334,-0.29592,0.75519,-0.12538,0.48751,0.41989,5.42493,-9.31543,-66.10276
0.55005,0.82410,-0.04667,-2.08327,-4.38208,-0.01807,1.63414,1.16172,-7.05393,-18.08655,23.29697,2.21306,0.73552,-0.20292,0.49020,0.42136,20.58957,-134.95270,-44.81699
0.50828,0.78566,-0.04302,-2.27905,-4.04063,0.03724,2.04899,-1.03089,-6.89770,-9.36795,25.08759,5.83002,0.69672,-0.27086,0.51341,0.42146,-28.26335,-159.32330,-37.38002
0.47203,0.75038,-0.03629,-2.34876,-3.72692,0.12690,1.68198,-2.33720,-6.11428,-5.29170,25.93924,8.13232,0.66092,-0.30541,0.53818,0.42458,-77.02865,-134.37700,31.55359
0.43862,0.72153,-0.02473,-2.35967,-3.38877,0.26991,0.61148,-1.85683,-5.05475,-1.41445,20.96284,10.77765,0.64991,-0.29652,0.53964,0.44552,-76.51437,18.20331,65.65109
0.40606,0.69288,-0.00899,-2.35760,-3.11719,0.44353,-0.64976,-0.62560,-4.12351,-0.51845,18.13396,13.24198,0.65098,-0.26591,0.52493,0.47954,-59.02595,116.61920,66.45258
0.37181,0.66398,0.00754,-2.38004,-2.90765,0.59062,-1.84036,0.02164,-3.65608,-1.94633,16.45967,11.20226,0.63805,-0.24099,0.51410,0.52011,-74.25946,103.32530,36.70166
0.33366,0.64246,0.02432,-2.45445,-2.63227,0.71121,-2.95821,0.39003,-3.41919,-6.47805,19.92524,4.29539,0.61551,-0.21715,0.50518,0.56461,-70.61929,44.55340,17.69169
0.29400,0.62345,0.03598,-2.53418,-2.37657,0.73524,-3.33132,0.84665,-3.58958,-7.30133,23.99364,-0.87436,0.59949,-0.20876,0.48257,0.60345,-38.73014,38.07064,-9.70118
0.25319,0.61447,0.04346,-2.61280,-2.03263,0.69436,-3.07091,1.79057,-3.97424,-4.66598,26.30343,-5.15208,0.60026,-0.20586,0.43746,0.63714,17.44030,48.01238,-41.77161
0.21437,0.61376,0.04680,-2.64662,-1.63464,0.60243,-2.23729,2.79955,-4.37161,0.92507,24.63367,-6.20192,0.61460,-0.20993,0.37959,0.65886,59.10228,48.11975,-49.79281
0.17906,0.61286,0.04959,-2.62335,-1.31579,0.52064,-1.46006,2.82617,-4.40768,4.14241,21.14797,-4.83523,0.62079,-0.22305,0.34390,0.66828,61.28947,1.80394,-22.47776
0.14559,0.61108,0.05344,-2.57890,-1.07812,0.47202,-0.98629,2.31546,-4.30494,5.01237,18.69593,-2.65360,0.61736,-0.24135,0.32417,0.67493,33.20596,-48.16063,2.45852
0.11691,0.61666,0.05878,-2.47355,-0.78234,0.45557,-0.71832,1.77498,-4.18797,7.66303,17.53860,1.02733,0.61007,-0.25981,0.30890,0.68184,8.22054,-42.99124,13.37993
0.09346,0.62354,0.06759,-2.30910,-0.52109,0.49297,-0.97448,1.78421,-3.99412,12.02889,14.74447,3.10629,0.59915,-0.26001,0.28870,0.70004,-14.69283,3.61108,12.51456
0.07169,0.62718,0.07704,-2.15493,-0.36063,0.53147,-1.18575,1.97749,-3.86376,13.59732,12.46761,2.65525,0.58930,-0.25624,0.26387,0.71933,-16.45848,17.29722,14.89925
0.05517,0.63176,0.08721,-1.95813,-0.22306,0.57184,-1.33715,2.28338,-3.37016,14.94130,7.79247,2.44663,0.58494,-0.24113,0.24423,0.73489,4.46690,29.84709,24.38186
0.04136,0.63573,0.09631,-1.76256,-0.12262,0.58816,-1.51825,2.08265,-2.78883,14.31667,6.60950,0.09965,0.57581,-0.23144,0.23940,0.74670,-7.90693,2.84527,46.42753
0.02998,0.63974,0.10395,-1.57098,-0.04156,0.57997,-1.61161,1.64550,-2.27024,13.75189,5.14552,-1.31460,0.56529,-0.22818,0.24162,0.75498,-9.44469,-23.60744,41.68272
0.02104,0.64349,0.11090,-1.38355,0.01617,0.56168,-1.60994,1.27019,-1.79434,12.91745,3.40055,-1.28609,0.55683,-0.22546,0.24543,0.76084,-1.57767,-26.53582,39.85023
0.01467,0.64668,0.11782,-1.19672,0.05417,0.54728,-1.51210,1.22004,-1.42540,13.15463,2.27070,-0.81374,0.55286,-0.21801,0.24312,0.76662,6.55943,-8.79356,27.95649
0.01103,0.64932,0.12477,-1.00768,0.07886,0.53700,-1.37457,1.47090,-1.11405,13.19942,1.30990,-0.61732,0.55306,-0.20344,0.23485,0.77304,12.97918,13.88912,20.17616
0.01135,0.65208,0.13171,-0.79814,0.09445,0.52513,-1.22116,1.97796,-0.75806,12.35179,0.56483,-1.03139,0.55735,-0.17943,0.22276,0.77945,13.79543,31.03840,18.79285
0.00996,0.65408,0.13809,-0.65652,0.09804,0.50885,-1.02548,2.45253,-0.59786,10.82954,0.17642,-1.98252,0.56258,-0.15624,0.20564,0.78537,16.69660,37.88216,12.93680
0.01063,0.65560,0.14292,-0.51597,0.09501,0.47395,-0.69969,2.92761,-0.56029,9.29760,-0.46256,-3.26826,0.57190,-0.13320,0.18278,0.78853,24.79881,37.68068,-3.11350
0.01248,0.65716,0.14590,-0.38853,0.08705,0.41533,-0.42050,3.13254,-0.50278,6.92144,-0.80588,-4.35397,0.58014,-0.11418,0.16393,0.78963,19.37553,15.89566,-0.76832
0.01239,0.65833,0.14823,-0.31413,0.07802,0.36156,-0.23527,3.11824,-0.51459,5.63894,-0.92296,-4.91793,0.58557,-0.10060,0.14762,0.79070,15.19097,1.52744,-2.00602
0.01257,0.65885,0.14927,-0.25137,0.06485,0.30275,-0.07597,3.04705,-0.57340,4.83645,-1.47838,-5.07488,0.59056,-0.08962,0.13112,0.79121,12.62014,-4.69029,-6.98702
0.01454,0.65845,0.14823,-0.17869,0.03485,0.22357,0.09297,2.83785,-0.58602,4.34302,-2.56330,-5.07895,0.59595,-0.08244,0.11835,0.78996,9.74273,-12.06470,-5.03387
0.01642,0.65695,0.14676,-0.11995,-0.00362,0.15420,0.23578,2.60322,-0.50055,4.00239,-3.17034,-5.06218,0.60155,-0.07504,0.10963,0.78771,9.44318,-17.19843,2.76893
0.01930,0.65383,0.14387,-0.05687,-0.05598,0.07806,0.44861,2.35336,-0.39331,3.84965,-3.38388,-4.60654,0.60960,-0.06888,0.10287,0.78299,13.76332,-15.77737,4.22302
0.02336,0.65065,0.14070,0.00950,-0.10539,0.00950,0.64523,2.15833,-0.27219,4.20891,-2.96125,-4.18742,0.61825,-0.06191,0.09668,0.77755,12.81266,-13.56506,4.27723
0.02677,0.64803,0.13836,0.05416,-0.13045,-0.02976,0.73197,2.05973,-0.16361,4.45598,-2.43573,-3.72939,0.62529,-0.05277,0.09011,0.77337,12.19507,-11.39424,6.62252
0.03330,0.64502,0.13442,0.13310,-0.15826,-0.08360,0.79844,2.01141,0.01935,5.01259,-1.24602,-2.92575,0.63254,-0.04089,0.08568,0.76868,5.85986,-7.07111,11.46887
0.04113,0.64307,0.13075,0.21398,-0.16806,-0.12371,0.86863,2.25106,0.03950,5.49246,0.08942,-2.77294,0.64036,-0.02427,0.07212,0.76430,4.88005,9.99811,5.82901
0.05113,0.64216,0.12605,0.31251,-0.15946,-0.17113,1.02644,2.83068,-0.25271,6.03488,1.19619,-3.01376,0.65036,-0.00422,0.04223,0.75844,7.40284,36.40162,-15.95460
0.06084,0.64189,0.12134,0.38774,-0.14047,-0.20722,1.07739,3.25488,-0.45178,6.41794,1.58085,-2.75371,0.65778,0.01583,0.01372,0.75292,5.45505,40.06158,-19.91111
0.07341,0.64352,0.11574,0.48863,-0.10013,-0.24948,0.87609,3.62858,-0.43454,6.42546,2.79663,-2.54193,0.65867,0.04110,-0.01102,0.75123,-10.67712,26.90488,2.37908
0.08603,0.64586,0.11037,0.57389,-0.04917,-0.27890,0.56121,3.73715,-0.22861,6.20500,4.00273,-1.87465,0.65529,0.06573,-0.02673,0.75204,-15.55901,11.10472,16.50377
0.09984,0.65026,0.10504,0.65769,0.01880,-0.30208,0.13177,3.72317,0.10440,5.91613,5.28571,-1.60920,0.64685,0.09151,-0.03609,0.75624,-21.91996,-0.48097,29.23688
0.11469,0.65638,0.09926,0.73949,0.09869,-0.32719,-0.33360,3.75327,0.39924,5.43819,6.16016,-2.04245,0.63435,0.11888,-0.04565,0.76249,-26.96928,-0.03022,32.02249
0.12950,0.66295,0.09273,0.80465,0.17148,-0.35712,-0.65186,3.88238,0.51743,5.04075,6.44073,-2.82376,0.62208,0.14628,-0.06047,0.76679,-25.35160,7.38306,21.43869
0.14650,0.67320,0.08417,0.88372,0.27471,-0.41326,-0.98117,4.10175,0.56224,4.45136,6.52927,-4.17125,0.60679,0.17522,-0.07932,0.77124,-20.77447,13.04264,8.37909
0.16304,0.68365,0.07436,0.94185,0.36224,-0.47577,-1.16847,4.26463,0.58430,3.69199,6.13616,-5.09377,0.59272,0.20327,-0.09817,0.77313,-15.56405,12.75301,5.19134
0.17944,0.69490,0.06294,0.98849,0.44971,-0.54898,-1.27188,4.35230,0.66309,3.01441,6.52872,-5.60440,0.57901,0.23132,-0.11447,0.77339,-6.76810,7.97247,4.95886
0.19637,0.70951,0.04959,1.03022,0.56324,-0.63912,-1.40413,4.35530,0.84469,2.12830,7.28792,-6.08853,0.56301,0.25962,-0.12661,0.77433,-5.05539,1.97426,12.00547
0.21246,0.72383,0.03597,1.05225,0.65141,-0.71233,-1.43757,4.29214,1.04058,1.49547,7.23009,-6.46104,0.54804,0.28715,-0.13569,0.77381,-1.12745,-2.20379,15.28856
0.22848,0.74043,0.02035,1.06848,0.75491,-0.79957,-1.40806,4.16850,1.36284,0.78095,7.43482,-6.30223,0.53309,0.31596,-0.13847,0.77253,8.49815,-5.49590,21.03019
0.24437,0.75923,0.00376,1.07587,0.86126,-0.88463,-1.37391,4.05736,1.71438,-0.00406,7.58682,-6.02492,0.51697,0.34585,-0.13828,0.77072,10.17446,-5.27159,23.68492
0.25951,0.77849,-0.01326,1.07244,0.95360,-0.95583,-1.35177,3.97306,2.01905,-0.91683,7.69557,-5.94932,0.49962,0.37586,-0.13719,0.76831,10.17094,-3.96826,24.30238
