posX, posY, posZ, velX, velY, velZ, angVelX, angVelY, angVelZ, accX, accY, accZ, rotX, rotY, rotZ, rotW, angAccX, angAccY, angAccZ
0.33304,1.15215,-0.41007,-0.07962,0.23475,-0.17629,2.85901,0.47752,0.01184,-1.25526,2.27431,-0.64026,0.23354,0.76309,0.01557,0.60242,32.68308,6.80120,-0.16075
0.33053,1.15706,-0.41381,-0.10161,0.26341,-0.19329,2.78481,0.29190,-0.03717,-3.65104,2.47173,-0.98098,0.24558,0.76056,0.02824,0.60037,-0.34014,-7.91289,-8.16464
0.32613,1.16252,-0.41841,-0.14573,0.29382,-0.21995,2.44682,-0.06100,-0.24182,-1.16898,4.20211,-3.05327,0.25626,0.75204,0.03214,0.60642,-14.50664,-46.42283,-16.20785
0.32311,1.17016,-0.42499,-0.16257,0.35816,-0.26661,1.89639,0.03811,0.03615,-0.39958,5.09518,-3.66288,0.24937,0.75556,0.03482,0.60476,-41.03911,3.76182,10.25838
0.31975,1.17900,-0.43237,-0.18198,0.42596,-0.31488,1.91610,0.08822,0.16531,-2.23889,4.31348,-4.78283,0.25387,0.75722,0.04729,0.59994,-19.13866,0.55806,10.22351
0.31449,1.18931,-0.44052,-0.22307,0.49515,-0.36706,2.64156,0.33902,0.37293,-3.11504,4.99248,-3.92820,0.27034,0.76235,0.07895,0.58267,44.09252,14.99872,15.45380
0.30891,1.20029,-0.44834,-0.25930,0.55752,-0.40478,3.33647,0.51005,0.54473,-3.05974,5.44584,-2.53228,0.28885,0.76538,0.11430,0.56365,61.25815,16.42139,17.28610
0.30291,1.21231,-0.45634,-0.29338,0.62028,-0.43650,3.70020,0.55179,0.63338,-3.22235,5.55527,-1.81932,0.30447,0.76550,0.14463,0.54807,46.76626,7.43573,10.92817
0.29500,1.22728,-0.46598,-0.34870,0.71452,-0.48610,3.54800,0.50677,0.60004,-3.14747,5.50416,-2.66536,0.31362,0.76455,0.16150,0.53947,-7.38301,-3.70748,-1.89459
0.28691,1.24288,-0.47588,-0.39749,0.80397,-0.53065,3.31795,0.57627,0.55773,-3.07009,5.84504,-2.96023,0.32124,0.76579,0.17415,0.52919,-16.67257,2.76178,-1.86526
0.27845,1.25922,-0.48581,-0.44251,0.88593,-0.56687,3.29673,0.75257,0.56290,-3.23123,5.99740,-2.77140,0.33109,0.76834,0.19033,0.51363,-7.44908,9.81885,2.27180
0.26920,1.27701,-0.49555,-0.48971,0.97198,-0.59440,3.60134,1.03886,0.63964,-3.43363,6.29773,-2.01464,0.34509,0.77142,0.21420,0.48984,14.53578,17.66920,7.23213
0.25900,1.29603,-0.50506,-0.54147,1.06011,-0.61137,4.01510,1.36127,0.75941,-3.98551,6.45336,-0.57988,0.36065,0.77422,0.24239,0.46018,32.52006,22.54050,12.46459
0.24823,1.31549,-0.51414,-0.59010,1.13462,-0.61815,4.03347,1.53830,0.80153,-4.42946,6.20143,0.50017,0.37169,0.77656,0.26235,0.43587,16.36268,18.11375,10.19850
0.23546,1.33688,-0.52264,-0.65986,1.22788,-0.61478,3.68097,1.65387,0.78403,-4.54720,5.73422,0.67856,0.37776,0.78062,0.27196,0.41710,-22.19347,5.62081,3.55619
0.22215,1.35810,-0.53051,-0.72431,1.30242,-0.60034,3.42637,1.76225,0.80923,-4.66459,5.26493,1.22795,0.38334,0.78461,0.28251,0.39703,-20.64983,5.77098,4.78007
0.20839,1.37938,-0.53786,-0.78093,1.35873,-0.58142,3.22875,1.85235,0.84762,-4.73993,4.56259,1.73525,0.38836,0.78840,0.29309,0.37642,-16.19490,5.95349,6.99021
0.19237,1.40254,-0.54365,-0.85771,1.42604,-0.54701,3.16417,2.02030,0.95470,-4.99524,3.88439,2.32547,0.39318,0.79291,0.30562,0.35114,-5.24458,8.72014,8.61249
0.17635,1.42497,-0.54913,-0.91763,1.46726,-0.51425,3.24716,2.18404,1.06202,-5.01525,3.23941,2.73695,0.39921,0.79585,0.32131,0.32251,2.19321,9.29063,10.67147
0.15946,1.44733,-0.55358,-0.97722,1.49922,-0.47449,3.40366,2.35043,1.18449,-4.98126,2.23601,3.71654,0.40526,0.79771,0.33903,0.29067,13.65204,13.85035,11.77783
0.14054,1.46967,-0.55577,-1.05259,1.52250,-0.41086,3.48582,2.48743,1.27118,-4.55978,0.61337,4.57320,0.41068,0.79893,0.35503,0.25884,7.63550,9.27443,7.57492
0.12190,1.49055,-0.55716,-1.11048,1.52150,-0.34728,3.46143,2.52234,1.27270,-3.90868,-0.76326,4.70963,0.41583,0.79876,0.36832,0.23110,-1.41249,2.14240,2.43907
0.10353,1.51043,-0.55806,-1.15198,1.50523,-0.29059,3.47005,2.60567,1.21342,-3.31591,-1.88903,4.73354,0.42312,0.79716,0.38046,0.20185,-1.48976,4.38717,-1.41158
0.08461,1.52866,-0.55718,-1.19222,1.47113,-0.22195,3.50150,2.70953,1.10687,-2.61466,-2.89223,5.04783,0.43238,0.79385,0.39168,0.17160,1.66196,10.29847,-5.21541
0.06514,1.54471,-0.55423,-1.23231,1.41156,-0.13478,3.51306,2.81687,0.91412,-1.86973,-3.42795,4.54594,0.44417,0.78858,0.40083,0.14205,-3.71463,7.07360,-8.70684
0.04648,1.56073,-0.55177,-1.25412,1.35988,-0.07045,3.64766,2.98793,0.77125,-1.41297,-3.88717,4.48623,0.45685,0.78106,0.41176,0.10812,6.51599,14.00632,-8.60757
0.02796,1.57606,-0.54925,-1.26976,1.31154,-0.01882,3.69842,3.12902,0.65363,-1.12719,-4.15298,4.38302,0.46878,0.77313,0.42062,0.07480,4.62817,15.98455,-7.47299
0.00915,1.59016,-0.54566,-1.28482,1.25492,0.03752,3.58328,3.22163,0.57027,-0.81954,-4.18971,4.14298,0.47897,0.76658,0.42545,0.04405,-4.51968,9.71619,-4.18578
-0.00978,1.60304,-0.54116,-1.29921,1.19062,0.09570,3.16547,3.23768,0.56298,-0.70914,-4.22430,3.67939,0.48513,0.76515,0.42287,0.01934,-23.25225,0.40613,4.36027
-0.02853,1.61547,-0.53641,-1.30826,1.13187,0.14586,2.73459,3.23003,0.58919,-0.47134,-4.23326,3.66264,0.48974,0.76512,0.41800,-0.00359,-30.51907,-2.85368,8.78611
-0.04710,1.62813,-0.53168,-1.31194,1.08836,0.18429,2.51982,3.23029,0.60103,-0.29039,-4.18844,3.83390,0.49489,0.76249,0.41579,-0.02855,-26.74183,-3.28546,7.95116
-0.06551,1.63815,-0.52423,-1.31273,1.01676,0.25235,2.43862,3.28874,0.58630,0.08380,-4.36397,4.32333,0.50127,0.75754,0.41439,-0.05605,-8.53156,2.23807,2.21942
-0.08363,1.64781,-0.51606,-1.30954,0.95312,0.31642,2.48130,3.34132,0.58373,0.56407,-4.64521,4.70983,0.50727,0.75011,0.41554,-0.08567,4.29304,6.29844,-1.68003
-0.10153,1.65729,-0.50756,-1.30313,0.89943,0.37175,2.35394,3.28180,0.61542,0.96324,-4.79879,4.84069,0.51068,0.74540,0.41402,-0.11034,-3.36027,-1.50319,2.30271
-0.11836,1.66419,-0.49631,-1.28308,0.81956,0.45483,1.79410,2.89815,0.75054,1.72001,-4.58266,4.74307,0.50729,0.75026,0.40667,-0.11992,-26.22723,-21.89876,9.81753
-0.13500,1.67199,-0.48588,-1.26529,0.76813,0.51060,1.30649,2.52073,0.89213,1.45112,-4.20792,4.59405,0.50225,0.75640,0.39927,-0.12724,-37.11184,-34.73197,15.17091
-0.15152,1.67888,-0.47451,-1.24902,0.71484,0.56674,0.99348,2.21613,1.02773,1.18980,-4.19184,4.38749,0.49622,0.76188,0.39355,-0.13574,-29.21105,-32.84184,14.92642
-0.16672,1.68303,-0.46110,-1.21727,0.63263,0.64323,0.86233,1.96713,1.08818,1.84096,-4.36491,3.74763,0.49110,0.76468,0.39103,-0.14551,-6.41450,-16.09390,4.91831
-0.18168,1.68773,-0.44885,-1.18844,0.57340,0.69027,1.02065,1.97800,1.00426,1.77512,-3.63577,2.78135,0.49148,0.76039,0.39185,-0.16343,4.07570,-3.91013,-4.68808
-0.19606,1.69215,-0.43686,-1.15598,0.52173,0.72335,1.38649,2.29042,0.89878,2.28694,-3.30207,1.91513,0.49556,0.74994,0.39357,-0.19265,21.46000,16.66375,-12.67776
-0.20943,1.69574,-0.42498,-1.11497,0.46703,0.75076,1.70767,2.63290,0.78383,3.02086,-4.03421,1.69074,0.50089,0.73710,0.39418,-0.22452,24.13638,27.75054,-10.78341
-0.22277,1.69948,-0.41352,-1.08276,0.42628,0.76681,1.61393,2.65079,0.78993,3.21004,-3.73600,1.38827,0.50192,0.73216,0.38978,-0.24512,-0.29087,9.09344,-0.94234
-0.23511,1.70228,-0.40177,-1.04212,0.38023,0.78290,1.30785,2.49235,0.87951,3.11995,-3.39059,1.14107,0.49992,0.73304,0.38196,-0.25855,-17.30829,-10.49271,7.60675
-0.24647,1.70458,-0.38976,-0.99510,0.33480,0.79899,0.94506,2.26981,1.01751,2.95201,-2.34619,0.84539,0.49583,0.73726,0.37234,-0.26827,-21.59874,-17.78788,11.42183
-0.25767,1.70746,-0.37790,-0.95580,0.30779,0.81006,0.82815,2.23231,1.07300,3.20364,-1.84461,0.91442,0.49356,0.73690,0.36472,-0.28348,-14.31746,-10.17750,9.72002
-0.26747,1.70986,-0.36549,-0.90394,0.27978,0.82604,0.89719,2.34229,1.00589,3.82571,-1.68168,1.21914,0.49449,0.73095,0.35932,-0.30345,0.47151,5.91884,-2.55943
-0.27619,1.71221,-0.35278,-0.84656,0.25610,0.84420,0.99452,2.44409,0.90450,4.54669,-1.82209,1.35318,0.49628,0.72301,0.35509,-0.32384,6.85035,10.88022,-8.52081
-0.28322,1.71420,-0.33953,-0.77558,0.23194,0.86736,0.97003,2.35785,0.83755,4.74484,-1.38398,1.58447,0.49646,0.71814,0.35106,-0.33846,-1.54551,-2.83799,-5.03580
-0.28987,1.71635,-0.32591,-0.71218,0.21518,0.89052,0.95969,2.20669,0.81333,4.60987,-1.12314,1.66088,0.49470,0.71438,0.34834,-0.35156,-0.92322,-10.54943,-2.69233
-0.29621,1.71851,-0.31228,-0.65736,0.20226,0.90946,0.98098,2.08479,0.79205,4.69428,-0.96985,1.51355,0.49252,0.71016,0.34637,-0.36487,0.43474,-11.16992,-1.78428
-0.30089,1.72039,-0.29833,-0.59027,0.18807,0.92943,1.05865,1.98420,0.72474,4.94373,-1.05768,1.36699,0.49079,0.70422,0.34646,-0.37836,4.90446,-6.79543,-5.26356
-0.30394,1.72173,-0.28402,-0.51207,0.16842,0.94960,1.14881,1.83232,0.65052,5.11409,-1.51727,1.06840,0.48831,0.69826,0.34861,-0.39045,6.08045,-7.57150,-6.17695
-0.30725,1.72295,-0.27018,-0.45364,0.15125,0.95895,1.15097,1.61813,0.62454,5.04389,-1.60892,0.33334,0.48465,0.69488,0.35029,-0.39945,2.94700,-13.88828,-5.13521
-0.30970,1.72381,-0.25695,-0.39668,0.13294,0.95787,1.09614,1.41549,0.63763,4.70544,-1.73025,-0.41760,0.48034,0.69330,0.35077,-0.40689,-2.22170,-18.79172,-0.67690
-0.30950,1.72334,-0.24463,-0.31158,0.09837,0.94312,1.03793,1.21979,0.58048,4.68585,-2.15404,-1.22060,0.47744,0.69122,0.35224,-0.41255,-2.90181,-11.50610,-3.46272
-0.30957,1.72269,-0.23307,-0.24593,0.06719,0.92047,1.00971,1.13906,0.48515,4.70980,-2.30591,-1.94600,0.47634,0.68700,0.35342,-0.41979,-2.35573,-6.65979,-6.66591
-0.30931,1.72177,-0.22212,-0.19025,0.03934,0.89424,0.96317,1.11360,0.36563,4.53924,-2.35044,-2.32653,0.47706,0.68180,0.35395,-0.42695,-3.48386,-2.98876,-7.80779
-0.30766,1.72009,-0.21208,-0.12770,0.00693,0.85943,0.97474,1.20155,0.17136,4.19505,-2.20975,-2.58309,0.48075,0.67270,0.35512,-0.43617,-2.58041,3.75270,-12.19364
-0.30494,1.71757,-0.20323,-0.06085,-0.03187,0.81476,1.03613,1.41089,-0.10736,4.07726,-2.51153,-2.97775,0.48806,0.65868,0.35680,-0.44791,2.41217,14.58877,-16.55693
-0.30224,1.71492,-0.19497,-0.00743,-0.06480,0.77009,1.03291,1.58313,-0.32437,3.73687,-2.34957,-3.35178,0.49577,0.64515,0.35707,-0.45879,-0.51139,14.06588,-15.56639
-0.29950,1.71213,-0.18741,0.03996,-0.09368,0.72489,0.99172,1.67085,-0.47910,3.50687,-2.01663,-3.10704,0.50298,0.63285,0.35696,-0.46807,-3.95364,10.28162,-11.43076
-0.29669,1.70933,-0.18006,0.08068,-0.11707,0.68667,0.92609,1.59497,-0.54782,2.99119,-1.51317,-2.49866,0.50773,0.62399,0.35781,-0.47415,-5.00585,-1.20446,-6.39290
-0.29370,1.70677,-0.17259,0.11404,-0.13179,0.65759,0.88042,1.41014,-0.55023,2.17981,-0.61776,-1.74452,0.50969,0.61798,0.36018,-0.47810,-6.44914,-13.45379,-0.78659
-0.29402,1.70495,-0.16351,0.12959,-0.13661,0.64339,0.93791,1.34484,-0.55953,1.61061,-0.21794,-1.50619,0.51122,0.60937,0.36337,-0.48506,1.41370,-9.36694,-1.11111
-0.29547,1.70354,-0.15428,0.14058,-0.13679,0.62921,1.05981,1.35414,-0.58481,1.43704,-0.01350,-1.52065,0.51252,0.59836,0.36739,-0.49427,8.27636,0.19832,-3.07243
-0.29593,1.70216,-0.14549,0.15048,-0.13502,0.61393,1.18311,1.35137,-0.58105,1.45873,0.02903,-1.59660,0.51259,0.58741,0.37166,-0.50405,9.13269,0.66916,-0.38145
-0.29252,1.70045,-0.13842,0.16920,-0.13261,0.59284,1.22032,1.18473,-0.52435,1.56487,0.05910,-1.53970,0.51044,0.58080,0.37660,-0.51019,5.41361,-7.79548,1.17043
-0.28880,1.69874,-0.13152,0.18902,-0.13083,0.57361,1.21036,0.85457,-0.41237,1.17209,0.09671,-1.10864,0.50513,0.57934,0.38301,-0.51235,-1.04944,-21.46270,6.00564
-0.28491,1.69703,-0.12466,0.20764,-0.12902,0.55664,1.21454,0.50844,-0.31898,1.14871,0.05700,-1.15172,0.49860,0.57890,0.39087,-0.51332,1.13076,-20.41095,3.86842
-0.28111,1.69545,-0.11800,0.22130,-0.12573,0.54009,1.17799,0.17025,-0.23279,0.85253,0.34807,-1.28655,0.49168,0.58018,0.39873,-0.51250,-2.85160,-25.47381,4.10340
-0.27726,1.69407,-0.11183,0.23304,-0.12013,0.52001,1.16375,-0.04535,-0.19224,0.60326,0.57512,-1.33865,0.48558,0.58001,0.40637,-0.51250,-2.78239,-19.44353,3.20834
-0.27329,1.69270,-0.10597,0.24380,-0.11561,0.49889,1.20198,-0.11953,-0.20114,0.70843,0.20075,-1.57680,0.48058,0.57680,0.41401,-0.51472,2.92729,-6.71876,-0.22923
-0.26914,1.69119,-0.10063,0.25533,-0.11421,0.47471,1.19368,-0.19112,-0.23349,0.94370,-0.02560,-1.84333,0.47653,0.57383,0.42151,-0.51572,0.50300,-4.68154,-2.32270
-0.26469,1.68956,-0.09579,0.26897,-0.11481,0.44823,1.15295,-0.26811,-0.30392,1.00461,-0.12564,-1.95925,0.47365,0.57091,0.42938,-0.51512,-2.50276,-4.99626,-5.39123
-0.26008,1.68780,-0.09133,0.28183,-0.11727,0.42133,1.09602,-0.37115,-0.37052,0.90522,-0.23574,-1.92692,0.47077,0.56882,0.43764,-0.51312,-3.86295,-6.48887,-5.17423
-0.25543,1.68587,-0.08725,0.29261,-0.12184,0.39446,1.02482,-0.48596,-0.42289,0.67274,-0.49238,-2.02481,0.46782,0.56762,0.44587,-0.51004,-4.37488,-6.84898,-4.77584
-0.25092,1.68387,-0.08349,0.29906,-0.12619,0.36878,0.91692,-0.61788,-0.45312,0.49241,-0.29300,-2.40504,0.46490,0.56808,0.45357,-0.50539,-7.45778,-10.37013,-3.57877
-0.24629,1.68203,-0.08122,0.30597,-0.12747,0.32651,0.75151,-0.66273,-0.51579,0.12501,0.10911,-2.72070,0.46492,0.56817,0.45942,-0.49997,-10.71990,-5.21601,-4.67825
-0.24172,1.68056,-0.07974,0.31058,-0.12264,0.27957,0.69945,-0.42972,-0.61999,0.05376,0.61379,-2.89042,0.46839,0.56181,0.46354,-0.50011,-4.49876,11.78249,-6.20516
-0.23712,1.67927,-0.07820,0.31478,-0.11625,0.24387,0.69808,-0.17092,-0.68827,0.54666,0.47834,-2.93285,0.47207,0.55366,0.46691,-0.50260,1.45132,23.01181,-4.71694
-0.23222,1.67800,-0.07727,0.32272,-0.11119,0.20716,0.65280,-0.02030,-0.76970,0.87343,0.16881,-2.52301,0.47628,0.54650,0.47063,-0.50299,-1.32896,15.11792,-4.80950
-0.22688,1.67645,-0.07655,0.33555,-0.11123,0.17446,0.56092,-0.01707,-0.87347,1.07778,-0.14186,-1.77634,0.48037,0.54148,0.47577,-0.49969,-5.16670,2.53089,-6.23064
-0.22147,1.67467,-0.07525,0.34679,-0.11481,0.15751,0.49580,-0.13183,-0.96411,1.04431,-0.42223,-1.30437,0.48264,0.53816,0.48303,-0.49409,-5.90395,-5.90344,-7.50460
-0.21576,1.67272,-0.07407,0.36019,-0.12004,0.14245,0.42379,-0.29008,-1.08839,0.96132,-0.18208,-0.88331,0.48507,0.53546,0.49182,-0.48590,-7.12272,-12.08481,-8.72487
-0.20963,1.67081,-0.07296,0.37688,-0.12357,0.12922,0.45328,-0.34180,-1.27316,0.96897,-0.12305,-0.62784,0.48863,0.52872,0.50229,-0.47896,0.16229,-4.10182,-11.19797
-0.20344,1.66889,-0.07172,0.39143,-0.12676,0.12083,0.52856,-0.34743,-1.44560,1.03759,-0.24308,-0.45140,0.49222,0.52000,0.51336,-0.47306,5.49791,-0.19415,-12.39958
-0.19721,1.66674,-0.07033,0.40317,-0.13267,0.11636,0.63425,-0.37626,-1.60816,0.69326,-0.57737,-0.21489,0.49503,0.51030,0.52596,-0.46681,6.81395,-2.06669,-12.12042
-0.19095,1.66435,-0.06876,0.41303,-0.14099,0.11568,0.69995,-0.51138,-1.73763,0.92943,-0.77632,-0.06700,0.49618,0.50236,0.53984,-0.45828,7.14590,-5.32197,-10.03789
-0.18480,1.66182,-0.06683,0.41927,-0.14970,0.12077,0.62444,-0.88126,-1.82081,0.36600,-0.70203,0.48457,0.49444,0.50075,0.55522,-0.44329,-6.15019,-22.40145,-8.37603
-0.17887,1.65933,-0.06456,0.42042,-0.15584,0.12974,0.54902,-1.26893,-1.87382,-0.07483,-0.11879,0.73188,0.49071,0.50087,0.57150,-0.42628,-9.35879,-28.28935,-5.92878
-0.17299,1.65719,-0.06218,0.42098,-0.15527,0.13839,0.54294,-1.54590,-1.92113,-0.11322,0.26413,0.75198,0.48636,0.49931,0.58802,-0.41034,-4.45462,-21.93174,-4.18410
-0.16719,1.65514,-0.05973,0.41998,-0.15350,0.14635,0.62569,-1.69340,-1.96732,-0.26377,0.24060,0.63407,0.48180,0.49476,0.60477,-0.39666,2.16141,-13.73489,-3.87623
-0.16136,1.65313,-0.05729,0.41989,-0.15169,0.15245,0.77741,-1.69516,-2.01865,-0.05865,0.28646,0.68159,0.47814,0.48646,0.62111,-0.38594,9.79739,-5.01377,-3.06417
-0.15537,1.65104,-0.05455,0.42183,-0.15134,0.16167,1.01682,-1.65702,-2.06586,0.26914,-0.18103,0.72917,0.47339,0.47477,0.63870,-0.37757,18.12954,1.37776,-1.16870
-0.14923,1.64870,-0.05152,0.42588,-0.15494,0.17320,1.16506,-1.70942,-2.13186,0.54128,-0.48122,0.78343,0.46785,0.46418,0.65686,-0.36632,12.99314,-3.08242,-3.01121
-0.14294,1.64610,-0.04815,0.43113,-0.16148,0.18742,1.21243,-1.85293,-2.19755,0.38649,-0.68987,1.10894,0.46117,0.45584,0.67519,-0.35165,3.83690,-8.78230,-5.26542
-0.13669,1.64327,-0.04453,0.43483,-0.17000,0.20220,1.22141,-2.01253,-2.26179,0.36206,-0.78395,1.30675,0.45369,0.44821,0.69348,-0.33519,-0.49584,-12.50267,-5.25809
-0.13029,1.64004,-0.04031,0.43969,-0.18247,0.22234,1.24954,-2.20569,-2.34685,0.30343,-0.98447,1.61674,0.44455,0.44000,0.71301,-0.31686,0.07826,-12.76942,-6.98457
-0.12410,1.63623,-0.03522,0.44073,-0.20104,0.25161,1.26846,-2.50270,-2.43933,-0.01868,-1.40809,1.99542,0.43208,0.43262,0.73408,-0.29541,0.62485,-16.95659,-6.66696
-0.11813,1.63225,-0.02987,0.43807,-0.21811,0.27822,1.23003,-2.77758,-2.53981,-0.28119,-1.55431,2.45583,0.41915,0.42597,0.75445,-0.27143,-5.13646,-20.89857,-9.75346
-0.11256,1.62708,-0.02318,0.43041,-0.24936,0.31926,1.35334,-3.05517,-2.68773,-0.85525,-2.09925,2.80767,0.40327,0.41465,0.77752,-0.24678,2.62084,-19.15740,-10.74543
-0.10727,1.62116,-0.01633,0.42029,-0.28560,0.35468,1.66653,-3.16319,-2.79382,-0.78591,-2.70461,2.58524,0.38710,0.39649,0.80082,-0.22723,18.39087,-13.19430,-5.05611
-0.10208,1.61381,-0.00895,0.41020,-0.33589,0.39086,2.08268,-3.22519,-2.93993,-0.63355,-3.54358,1.96799,0.37007,0.37220,0.82528,-0.20839,26.68459,-8.93202,-3.35295
-0.09696,1.60568,-0.00193,0.40131,-0.38827,0.41449,2.42708,-3.24595,-3.08964,-0.66918,-4.06369,1.40358,0.35374,0.34617,0.84817,-0.18879,25.76252,-6.07251,-5.51509
-0.09191,1.59687,0.00477,0.39348,-0.43924,0.42841,2.70389,-3.23973,-3.21117,-0.72267,-4.58239,0.92592,0.33756,0.31901,0.86931,-0.16908,24.78247,-4.31055,-4.69549
-0.08721,1.58607,0.01133,0.38185,-0.50778,0.43681,3.04509,-3.20854,-3.34665,-1.10816,-5.28104,0.25356,0.32085,0.28686,0.89015,-0.14965,25.32612,-2.98051,-4.16905
-0.08340,1.57297,0.01732,0.35923,-0.59763,0.43535,3.48781,-3.16762,-3.43837,-1.82383,-5.97202,-0.40631,0.30254,0.24949,0.91032,-0.13244,27.47729,-2.64511,-0.62931
-0.08045,1.55886,0.02263,0.32831,-0.68529,0.42404,3.88582,-3.14869,-3.50357,-2.63955,-6.59848,-1.20933,0.28299,0.21046,0.92861,-0.11532,28.32596,-4.89995,1.29921
-0.07878,1.54298,0.02702,0.28406,-0.78043,0.40074,4.35356,-3.14428,-3.53857,-3.69854,-6.94878,-2.18045,0.26126,0.16638,0.94559,-0.09960,31.08830,-7.20605,3.06058
-0.07801,1.52649,0.03057,0.23689,-0.86379,0.37059,4.80002,-3.15567,-3.55473,-4.19449,-6.92963,-2.68648,0.23796,0.11949,0.96018,-0.08454,34.12712,-9.51728,4.34205
-0.07949,1.50727,0.03231,0.16600,-0.97063,0.31984,5.40391,-3.25163,-3.52434,-4.82468,-6.43668,-3.56207,0.20957,0.06519,0.97296,-0.07202,34.66777,-14.99900,5.74719
-0.08203,1.48790,0.03304,0.09293,-1.05806,0.26356,5.96725,-3.48273,-3.37088,-5.76788,-5.92179,-4.60605,0.17462,0.00975,0.98260,-0.06246,32.39568,-25.23098,9.37405
-0.08565,1.46869,0.03248,0.02015,-1.12410,0.20088,6.34586,-3.76449,-3.25869,-6.44913,-5.15282,-6.03005,0.13637,-0.04374,0.98836,-0.05133,27.32063,-34.44505,6.44065
-0.09286,1.44842,0.02793,-0.09086,-1.19188,0.09170,6.65071,-4.19386,-3.19522,-7.31042,-3.59424,-8.18361,0.09106,-0.09702,0.99036,-0.03847,14.87599,-33.00924,-1.94032
-0.10122,1.42943,0.02120,-0.19722,-1.22733,-0.02853,6.68484,-4.47910,-3.33989,-7.65142,-1.84410,-9.74913,0.04878,-0.14486,0.98808,-0.01824,4.93841,-19.27457,-15.02601
-0.11126,1.41185,0.01132,-0.30626,-1.23401,-0.17091,6.55903,-4.59315,-3.64080,-7.88659,0.63821,-11.18211,0.01044,-0.18853,0.98197,0.00857,-1.34526,-0.16928,-24.36405
-0.12178,1.39591,-0.00021,-0.39847,-1.21549,-0.30587,6.40319,-4.61257,-3.89317,-7.64843,2.66737,-11.78696,-0.02574,-0.22957,0.97228,0.03604,-3.71660,10.36049,-23.24339
-0.13532,1.38352,-0.01764,-0.51623,-1.14832,-0.50023,6.26414,-4.74024,-4.05764,-7.60206,6.42295,-12.30751,-0.06549,-0.26862,0.95902,0.06198,-3.87279,6.62959,-16.25800
-0.14960,1.37564,-0.03827,-0.62303,-1.02371,-0.70727,6.14039,-5.47450,-3.83287,-6.49472,10.04894,-12.88648,-0.12438,-0.30504,0.94131,0.07363,-16.16751,-35.19196,-10.02112
-0.16190,1.36859,-0.05720,-0.67698,-0.91596,-0.84280,6.00979,-6.25175,-3.56522,-5.07590,12.29023,-13.56279,-0.18886,-0.33895,0.91819,0.07986,-29.41261,-61.24838,-15.14490
-0.17519,1.37299,-0.08575,-0.73361,-0.65890,-1.09391,5.56178,-7.75251,-3.21132,-1.05927,16.84197,-14.25502,-0.27940,-0.36010,0.88700,0.07414,-38.96125,-77.96565,-28.62046
-0.18524,1.37772,-0.11154,-0.73021,-0.44812,-1.25271,5.06196,-8.48719,-3.14081,2.18971,18.62600,-13.09265,-0.35455,-0.37557,0.85291,0.07609,-43.29685,-57.89720,-38.90504
-0.19335,1.38464,-0.13723,-0.70029,-0.25789,-1.37188,4.56555,-8.83407,-3.20503,4.69527,19.87859,-11.80716,-0.42181,-0.38513,0.81674,0.08180,-40.32501,-30.06577,-44.98125
-0.19526,1.40695,-0.16893,-0.58527,0.11685,-1.55250,3.68092,-8.94824,-3.44551,8.75095,21.97779,-8.81659,-0.48518,-0.37685,0.78382,0.09064,-31.29927,9.80896,-39.96584
-0.19400,1.42962,-0.19755,-0.44503,0.42974,-1.65628,2.99717,-8.88516,-3.62043,11.57955,23.48885,-6.22345,-0.54145,-0.36860,0.74917,0.09851,-28.17715,20.50552,-35.95213
-0.18791,1.45816,-0.22523,-0.26194,0.76489,-1.72413,2.21567,-8.92373,-3.75244,14.29319,25.26571,-3.31584,-0.59840,-0.35209,0.71255,0.10109,-34.00042,17.63306,-37.79266
-0.17896,1.48950,-0.25090,-0.07760,1.06724,-1.74802,1.36603,-9.15358,-3.87928,15.88479,26.31778,-0.38050,-0.65836,-0.32703,0.67096,0.09712,-44.43737,6.26795,-45.87059
-0.16183,1.53236,-0.27365,0.18841,1.47602,-1.72374,-0.20321,-9.65744,-4.38349,17.40885,26.39622,3.42458,-0.72747,-0.26938,0.62529,0.08501,-61.47318,-6.73219,-81.04745
-0.13822,1.58405,-0.29155,0.50907,1.95131,-1.62938,-2.29382,-9.89347,-5.49287,18.05149,26.37580,6.49687,-0.79205,-0.17751,0.57929,0.07465,-56.69678,5.53952,-123.02540
-0.11917,1.62931,-0.30951,0.69122,2.22626,-1.55625,-3.53759,-9.65535,-6.72351,21.54932,30.35710,9.14468,-0.84045,-0.08710,0.52889,0.07956,-26.16373,-10.18571,-133.23940
-0.08543,1.69295,-0.32226,1.05527,2.71830,-1.42321,-5.32381,-8.78222,-8.71734,26.96984,32.45491,8.58412,-0.86793,0.04815,0.48570,0.09204,0.64759,27.72317,-172.65080
-0.04724,1.75706,-0.33568,1.40848,3.11202,-1.32746,-6.31279,-7.91154,-10.41951,33.07409,33.28898,7.34816,-0.87608,0.17669,0.43475,0.11073,41.89767,18.16098,-174.33970
0.00981,1.83312,-0.34686,1.96452,3.59581,-1.21935,-6.97806,-6.74909,-12.64510,49.20390,36.16230,8.94738,-0.85501,0.32326,0.37879,0.14487,51.32527,-27.93290,-166.81600
0.09802,1.92058,-0.35446,2.88066,4.15358,-1.07893,-6.24323,-4.83840,-15.45466,67.51001,30.30444,10.35559,-0.78820,0.46859,0.33286,0.21990,124.08720,-52.06969,-164.99720
0.19838,1.99998,-0.36102,3.78449,4.47457,-0.95180,-4.14662,-3.78147,-17.35680,85.06496,19.93024,14.24038,-0.70657,0.56922,0.27662,0.31658,142.75080,-150.80940,-114.30120
0.34071,2.07244,-0.35795,5.11111,4.62111,-0.70958,-0.91444,-3.38123,-19.19772,105.06530,-2.54954,22.60809,-0.59259,0.63686,0.20944,0.44653,105.00480,-231.77490,-84.87610
0.51779,2.11940,-0.34083,6.66848,4.35496,-0.30915,2.07185,-4.29878,-20.60962,115.94080,-37.27650,34.69997,-0.46110,0.66859,0.11026,0.57291,9.49718,-246.99320,-85.35127
0.72001,2.12412,-0.30343,8.27480,3.52291,0.30809,4.10566,-6.24033,-22.02373,113.74380,-83.93045,54.37746,-0.31001,0.66961,-0.02666,0.67439,-86.10670,-158.83570,-125.31140
0.92956,2.06838,-0.23768,9.65198,1.97140,1.21545,5.03443,-7.33651,-23.74886,82.34697,-140.06470,75.54591,-0.12778,0.66017,-0.16702,0.72108,-57.37939,-91.62837,-176.42340
1.11121,1.94202,-0.14177,10.32997,-0.29412,2.37730,6.32364,-6.41746,-24.51509,14.74539,-182.95350,88.89317,0.06459,0.64648,-0.24381,0.72003,50.74952,-63.06867,-75.04362
1.23290,1.75559,-0.02871,9.98823,-2.97099,3.54598,9.79156,-2.92781,-24.35602,-58.82394,-203.61010,74.30320,0.29095,0.64385,-0.21537,0.67411,129.63630,-250.52830,30.46785
1.27828,1.52016,0.07669,8.60331,-5.81718,4.36034,16.14955,0.79784,-22.93971,-137.49300,-208.22220,37.48158,0.55091,0.59792,-0.08560,0.57590,203.48730,-449.10310,-101.18800
1.25892,1.27067,0.14832,6.58201,-8.24309,4.50712,22.90558,2.12439,-20.26964,-200.14520,-197.47830,-16.07073,0.76960,0.45987,0.08342,0.43506,112.87090,-455.60790,-374.67130
1.05482,0.95079,0.13868,2.34152,-11.22706,3.45754,36.23557,-1.20206,-15.32004,-269.29520,-130.54030,-106.13530,0.90501,0.07522,0.38835,0.15648,301.49760,-153.89020,-717.90630
0.81980,0.73837,0.04158,-1.46588,-12.15646,1.28194,43.09667,-10.07782,-14.44289,-251.09860,18.41360,-187.00020,0.78668,-0.38713,0.47180,-0.09311,727.33700,342.85630,-487.13580
0.61873,0.65246,-0.08995,-3.97796,-11.00353,-0.98960,39.15108,-16.31274,-14.50619,-158.29240,148.77310,-155.30180,0.60494,-0.63145,0.45838,-0.15876,400.15510,478.12180,-199.28490
0.48369,0.69024,-0.21525,-5.07085,-8.19844,-2.63928,25.68122,-10.33592,-17.09846,-0.29752,164.51540,-35.98678,0.68076,-0.64900,0.33875,0.02478,-75.88695,652.39310,696.40680
0.43603,0.70568,-0.24995,-4.70952,-6.25679,-2.61193,17.33891,-5.75668,-13.54759,56.98568,118.88010,27.09829,0.73849,-0.58885,0.30771,0.11490,-314.19370,460.01280,661.79680
0.41457,0.70223,-0.24840,-4.03049,-4.99993,-2.04421,12.55794,-6.45640,-8.93219,49.27283,69.97163,49.61833,0.72256,-0.55680,0.39097,0.12255,-495.55260,52.94836,135.09310
0.39310,0.67355,-0.23370,-3.52381,-4.40318,-1.40927,8.50412,-6.59149,-5.93823,32.74005,31.92853,54.42140,0.70237,-0.52602,0.45890,0.13928,-415.57220,-18.09723,82.80772
0.36806,0.63193,-0.20158,-3.18445,-4.12471,-0.66488,2.31959,-4.58642,-3.59384,11.34494,13.63831,47.23219,0.70041,-0.43056,0.50806,0.25676,-438.01940,185.81110,68.85432
0.33106,0.58915,-0.17115,-3.08154,-3.90806,-0.09583,-1.13187,-0.85724,-2.34626,2.58203,21.00523,36.73688,0.72752,-0.34270,0.47350,0.35926,-226.80240,312.73580,71.03655
0.28695,0.55950,-0.14215,-3.10015,-3.54643,0.34222,-3.24963,1.90416,-2.38632,-1.21460,31.91473,27.18198,0.73210,-0.28729,0.41917,0.45365,-137.14130,252.32160,-24.65598
0.24158,0.53751,-0.11908,-3.13302,-3.15583,0.60296,-3.85383,3.61177,-2.90171,-0.99261,35.16942,18.79723,0.72954,-0.26427,0.35869,0.51891,-68.07542,161.49500,-49.79062
0.19944,0.53050,-0.09301,-3.10838,-2.62722,0.85376,-4.31248,5.00906,-3.38164,6.45522,33.27944,14.01857,0.72059,-0.24027,0.29271,0.58081,-20.33627,93.18443,-57.92562
0.16597,0.52525,-0.06773,-2.98606,-2.17305,1.02779,-4.84361,5.40842,-3.40427,11.93468,31.69098,10.53658,0.70045,-0.21370,0.25294,0.63224,-28.15452,43.77733,-11.21291
0.13977,0.52394,-0.04349,-2.78984,-1.75486,1.15299,-5.46899,5.59428,-3.07873,15.99597,28.23501,6.58175,0.67523,-0.17725,0.22338,0.68026,-28.32613,29.71404,24.07954
0.11881,0.52468,-0.02293,-2.54682,-1.39012,1.20635,-6.12919,5.61491,-2.43686,18.75454,24.67885,-0.06063,0.64530,-0.13118,0.20418,0.72435,-28.50626,35.62146,44.86908
0.10588,0.53110,-0.00958,-2.24886,-1.00937,1.13440,-6.10837,5.48778,-1.44669,18.01461,26.21758,-9.78454,0.62745,-0.08340,0.19489,0.74925,13.06454,15.94104,64.29329
0.09325,0.54162,-0.00542,-2.00157,-0.64210,0.94855,-5.10793,5.64941,-1.01901,15.15915,28.24466,-17.88954,0.62973,-0.04939,0.16676,0.75710,64.42473,18.96719,17.71497
0.07814,0.55478,-0.00965,-1.82931,-0.31469,0.68355,-3.42579,5.77927,-1.51673,8.89676,20.12336,-20.24684,0.64706,-0.04224,0.11667,0.75228,95.65085,-9.07885,-61.90668
0.06066,0.56430,-0.01728,-1.73077,-0.10939,0.42495,-1.64423,5.42356,-2.42147,6.36115,10.24757,-16.89149,0.66916,-0.05950,0.06363,0.73799,94.95108,-39.81142,-109.28370
0.04230,0.56958,-0.02272,-1.66282,-0.00931,0.25810,-0.69842,4.42323,-2.77335,7.31687,4.95095,-11.45698,0.67928,-0.08106,0.03810,0.72839,68.88143,-81.93693,-75.74406
0.02983,0.57533,-0.02926,-1.51663,0.07826,0.11001,-0.53991,2.28586,-2.11085,10.09324,2.85806,-5.88865,0.67614,-0.10898,0.06846,0.72545,-3.73519,-123.21140,35.48473
0.01827,0.57829,-0.03201,-1.38597,0.10817,0.04731,-0.66056,1.16133,-1.42560,10.59133,1.76543,-4.29275,0.66935,-0.11759,0.09016,0.72802,-13.89495,-101.60340,67.72454
0.00943,0.58014,-0.03479,-1.24558,0.11539,-0.00094,-0.70865,0.35881,-0.89807,11.45221,-0.02472,-3.35119,0.66356,-0.12503,0.11016,0.72933,-11.43721,-74.40910,51.86457
0.00647,0.58042,-0.03864,-1.04705,0.09808,-0.05237,-0.55998,-0.08305,-0.42611,11.74814,-1.18095,-2.49000,0.66314,-0.12750,0.12645,0.72663,3.86672,-36.37415,36.92409
0.00486,0.57956,-0.04223,-0.86597,0.06731,-0.08857,-0.20942,0.16394,-0.36435,13.02307,-2.64014,-1.72270,0.66970,-0.12372,0.11988,0.72238,22.67850,7.32262,7.84637
0.01656,0.57485,-0.04263,-0.52508,-0.01403,-0.07107,0.55302,2.08954,-0.30334,36.26035,-8.80812,5.97703,0.69391,-0.07930,0.07154,0.71210,42.81740,81.98037,-2.20935
0.04464,0.56600,-0.03981,-0.01856,-0.13737,-0.01426,1.16939,4.47760,0.13834,25.50141,-6.01968,0.83946,0.71779,-0.00214,0.00956,0.69619,62.37363,188.90380,14.85767
0.06121,0.56209,-0.03956,0.22572,-0.16482,-0.00527,1.03535,4.70894,0.74805,13.43239,0.76590,-1.28562,0.72180,0.04080,-0.00259,0.69089,8.85249,27.96742,49.12230
0.07312,0.56175,-0.04124,0.35220,-0.13510,-0.02613,0.78688,4.56708,0.78670,5.73190,3.37804,-1.99839,0.72056,0.06562,-0.01741,0.69006,-10.46235,-5.34447,17.36978
0.08125,0.56238,-0.04318,0.39709,-0.09840,-0.04723,0.54727,4.11815,0.60680,2.81834,2.87253,-2.01311,0.71796,0.07687,-0.02946,0.69120,-22.13957,-25.38506,-9.22603
0.08919,0.56424,-0.04606,0.42985,-0.05055,-0.07575,0.22831,3.03996,0.56994,1.55481,2.09541,-1.39408,0.71328,0.07361,-0.02184,0.69666,-16.64289,-60.20042,-0.44096
0.09648,0.56502,-0.04822,0.44857,-0.02808,-0.09034,0.04999,2.23503,0.59778,1.05765,1.30251,-0.65841,0.71028,0.07328,-0.01443,0.69994,-10.93928,-62.57776,5.51737
0.10443,0.56561,-0.05058,0.46890,-0.01503,-0.10167,-0.03178,1.60209,0.60244,1.48072,0.74084,-0.31642,0.70856,0.07245,-0.00763,0.70188,-4.79705,-47.77735,-0.88908
0.11294,0.56665,-0.05265,0.49240,0.00188,-0.10523,-0.15758,1.06006,0.67075,1.46107,1.63708,0.20169,0.70528,0.07227,0.00161,0.70524,-4.53069,-40.73037,6.34003
0.12145,0.56861,-0.05437,0.51365,0.02969,-0.10514,-0.35487,0.62565,0.70420,1.25477,2.21313,0.21470,0.69958,0.07144,0.01039,0.71089,-11.39162,-33.49127,4.38461
0.12989,0.57091,-0.05602,0.52947,0.05544,-0.10534,-0.52000,0.32158,0.71158,1.06554,2.10505,0.07059,0.69351,0.07095,0.01783,0.71672,-13.09555,-28.28545,3.02011
0.13887,0.57399,-0.05805,0.54869,0.08648,-0.11050,-0.68372,0.01998,0.66590,1.15819,1.93633,-0.46594,0.68658,0.06777,0.02538,0.72344,-9.51475,-20.75960,-1.94428
0.14797,0.57710,-0.06039,0.56836,0.11305,-0.12083,-0.78916,-0.15171,0.63825,1.40974,1.87278,-0.75291,0.68020,0.06643,0.03152,0.72933,-7.73689,-15.69976,-0.88507
0.15740,0.58025,-0.06299,0.58860,0.13357,-0.13299,-0.85620,-0.18411,0.57887,1.65080,1.66429,-1.00716,0.67429,0.06668,0.03432,0.73465,-6.08241,-6.41898,-3.07670
0.16804,0.58404,-0.06648,0.62163,0.15824,-0.15544,-0.87606,-0.09822,0.48803,2.28016,1.52420,-1.54199,0.66932,0.06855,0.03349,0.73904,-2.04050,3.57168,-6.48925
0.17918,0.58771,-0.07024,0.65796,0.17877,-0.17880,-0.84869,0.05551,0.45749,2.79552,1.39372,-1.68471,0.66539,0.07346,0.03185,0.74219,0.45770,9.06684,-3.32983
0.19032,0.59111,-0.07396,0.68716,0.19222,-0.19682,-0.81220,0.21954,0.45268,2.99319,1.31960,-1.75432,0.66183,0.07999,0.02965,0.74478,2.46450,13.48744,-1.63339
0.20340,0.59528,-0.07882,0.73718,0.21348,-0.22718,-0.72739,0.55085,0.42718,3.24172,1.46293,-1.95237,0.65987,0.09111,0.02226,0.74550,4.84858,20.50414,-2.67711
0.21682,0.59981,-0.08363,0.78305,0.23634,-0.25096,-0.67086,0.80088,0.48851,3.50080,1.64200,-1.48967,0.65731,0.10371,0.01726,0.74625,4.77791,20.29860,0.09739
0.23119,0.60524,-0.08844,0.83451,0.26798,-0.27043,-0.67458,0.97099,0.71203,3.22750,1.94739,-1.16932,0.65280,0.11948,0.01723,0.74785,-0.03390,12.69001,11.76402
0.24525,0.61058,-0.09305,0.86996,0.29146,-0.28260,-0.68467,1.02863,0.95168,2.89871,1.86176,-1.04009,0.64765,0.13473,0.02060,0.74965,-0.07208,6.96648,18.65073
0.26025,0.61667,-0.09810,0.91235,0.32142,-0.29906,-0.67505,1.12179,1.28031,2.37732,1.95723,-0.96842,0.64219,0.15415,0.02656,0.75042,2.38618,5.73821,21.13065
0.27498,0.62280,-0.10327,0.94238,0.34604,-0.31409,-0.67361,1.29511,1.46044,1.71872,1.71202,-1.03479,0.63661,0.17409,0.02823,0.75074,0.14380,11.55021,14.95782
0.28936,0.62877,-0.10851,0.96084,0.36296,-0.32692,-0.66250,1.47894,1.53771,1.23222,1.34765,-1.10307,0.63135,0.19379,0.02721,0.75040,-0.06757,15.39788,7.65414
0.30377,0.63514,-0.11444,0.97582,0.38224,-0.34725,-0.62580,1.74686,1.57984,0.57080,1.35289,-1.53713,0.62662,0.21602,0.02316,0.74843,0.37726,16.62089,2.13318
0.31758,0.64187,-0.12074,0.97901,0.40332,-0.36902,-0.59853,1.99219,1.58494,-0.25646,1.76285,-1.48694,0.62173,0.23823,0.01780,0.74591,0.93144,17.13588,0.42871
0.32981,0.65025,-0.12802,0.95492,0.44836,-0.40348,-0.71236,2.52840,1.27136,-1.59569,1.78152,-1.08861,0.61520,0.26172,-0.00152,0.74366,-8.87438,19.86982,-13.77280
0.35451,0.66477,-0.14036,0.92714,0.47821,-0.41965,-0.83694,2.80531,1.03696,-1.79081,2.01612,-1.01195,0.60085,0.30044,-0.02554,0.74031,-11.99931,17.03356,-15.70845
0.36572,0.67333,-0.14680,0.90286,0.50628,-0.42851,-0.94401,2.90989,0.99484,-1.98403,2.39076,-0.71218,0.59114,0.32065,-0.03786,0.73913,-10.96142,11.25738,-6.95189
0.37614,0.68288,-0.15323,0.87135,0.54211,-0.43485,-1.08582,2.94249,1.05079,-2.31554,2.50146,-0.39460,0.57876,0.34135,-0.04733,0.73910,-9.77451,2.88824,4.65808
0.38557,0.69302,-0.15963,0.83188,0.57975,-0.44000,-1.22100,2.94053,1.16927,-2.63607,2.18140,-0.40265,0.56482,0.36254,-0.05450,0.73931,-7.40163,-0.29119,8.94339
0.39487,0.70276,-0.16614,0.79901,0.60428,-0.44577,-1.28904,2.96142,1.23496,-3.00423,2.06650,-0.54471,0.55178,0.38341,-0.06249,0.73799,-4.97041,1.07592,8.19317
0.40292,0.71310,-0.17290,0.75437,0.63171,-0.45354,-1.39155,3.01676,1.25432,-3.54304,1.95488,-0.38804,0.53726,0.40438,-0.07264,0.73658,-5.82660,3.87505,4.01835
0.40983,0.72359,-0.17950,0.70275,0.65592,-0.45746,-1.53458,3.05337,1.21122,-3.98305,1.63815,-0.15104,0.52146,0.42352,-0.08484,0.73588,-10.18236,2.36209,-0.05647
0.41513,0.73445,-0.18588,0.63741,0.68111,-0.45756,-1.69201,3.03732,1.12653,-4.29443,1.67712,0.04083,0.50499,0.44018,-0.09799,0.73596,-11.03629,-0.97738,-3.24186
0.41985,0.74568,-0.19203,0.57623,0.70698,-0.45439,-1.82869,2.93904,1.13734,-4.41728,1.84886,0.20441,0.48729,0.45589,-0.10766,0.73697,-9.30583,-6.57281,1.98345
0.42372,0.75718,-0.19816,0.51511,0.73129,-0.45142,-1.91961,2.81827,1.20350,-4.25946,1.48813,0.08818,0.46911,0.47131,-0.11489,0.73797,-6.15202,-8.70014,6.56387
0.42742,0.76845,-0.20438,0.46482,0.74695,-0.45061,-1.93751,2.72348,1.28956,-4.14666,1.06140,-0.06589,0.45156,0.48719,-0.12051,0.73771,-1.58198,-7.74267,8.12155
0.42980,0.77960,-0.21078,0.40660,0.75789,-0.45265,-1.93838,2.66446,1.37195,-4.26962,0.52361,-0.12739,0.43383,0.50339,-0.12571,0.73660,2.93992,-4.67279,7.66014
0.43090,0.79016,-0.21723,0.34028,0.75733,-0.45460,-1.98022,2.63932,1.35392,-4.24231,-0.42099,0.00371,0.41587,0.51833,-0.13407,0.73513,-1.98502,-1.79285,1.03542
