posX, posY, posZ, velX, velY, velZ, angVelX, angVelY, angVelZ, accX, accY, accZ, rotX, rotY, rotZ, rotW, angAccX, angAccY, angAccZ
0.27007,1.19825,-0.45628,-0.25962,1.03392,-0.57418,1.60973,0.27722,1.18262,-1.31950,0.25496,-1.10353,0.29355,0.78064,0.09944,0.54271,-5.38014,4.94559,-0.21212
0.26520,1.21214,-0.46529,-0.27977,1.03177,-0.58897,1.61200,0.38033,1.11535,-1.27257,-0.46281,-0.96482,0.29530,0.78425,0.10977,0.53451,-2.46712,6.29000,-3.13830
0.26024,1.22575,-0.47395,-0.29666,1.02436,-0.59593,1.75503,0.50588,1.03321,-1.23741,-0.63658,-0.34224,0.30044,0.78770,0.12277,0.52364,6.74074,9.73485,-4.80940
0.25502,1.23905,-0.48222,-0.31426,1.01443,-0.59503,1.96606,0.61837,0.95139,-1.33908,-0.73820,0.21976,0.30776,0.79052,0.13794,0.51120,13.30528,9.69376,-5.36559
0.24964,1.25223,-0.49011,-0.33046,1.00478,-0.58906,2.13447,0.70605,0.89017,-1.43435,-0.81310,0.75626,0.31499,0.79296,0.15323,0.49851,15.25648,9.91704,-4.81996
0.24372,1.26504,-0.49756,-0.35083,0.99184,-0.57829,2.18892,0.76129,0.82252,-1.57259,-0.92752,1.11036,0.32125,0.79500,0.16620,0.48698,7.16969,6.40908,-4.44080
0.23756,1.27735,-0.50474,-0.37091,0.97604,-0.56520,2.06937,0.75903,0.75461,-1.41570,-1.18246,1.12389,0.32477,0.79678,0.17506,0.47856,-6.16571,1.18662,-4.03951
0.23133,1.28925,-0.51172,-0.38825,0.95767,-0.55167,1.92726,0.75506,0.67124,-1.16564,-1.37144,0.75624,0.32820,0.79836,0.18200,0.47093,-12.72568,-1.02544,-5.62328
0.22496,1.30099,-0.51841,-0.40332,0.93852,-0.53748,1.96765,0.83672,0.57879,-1.00057,-1.30763,0.84019,0.33524,0.79999,0.19161,0.45925,-2.28835,4.61839,-6.19676
0.21822,1.31229,-0.52423,-0.42163,0.91780,-0.51240,2.21094,0.94541,0.49901,-1.13364,-0.93516,1.58191,0.34596,0.80054,0.20633,0.44370,13.59148,7.77852,-4.23174
0.21162,1.32427,-0.53026,-0.43341,0.90902,-0.49569,2.33708,0.99013,0.47259,-1.21035,-0.70693,1.85662,0.35424,0.80084,0.22029,0.42970,13.11023,6.08771,-3.94488
0.20427,1.33601,-0.53519,-0.45384,0.89925,-0.46722,2.38823,0.98393,0.45181,-1.31354,-0.43077,1.99432,0.36146,0.80049,0.23345,0.41720,6.88941,1.18484,-1.68824
0.19667,1.34775,-0.54025,-0.47444,0.89239,-0.44509,2.13629,0.94468,0.44045,-1.32415,-0.38781,1.33385,0.36392,0.80182,0.23942,0.40905,-12.97370,-2.43062,-0.07734
0.18924,1.35964,-0.54561,-0.48793,0.88796,-0.43197,1.88372,0.93960,0.41729,-1.01448,-0.25835,0.96730,0.36603,0.80376,0.24324,0.40104,-22.35405,-2.35236,-0.58785
0.18174,1.37158,-0.55048,-0.49975,0.88565,-0.41491,1.73181,0.96921,0.39207,-0.82030,0.02545,1.15379,0.36918,0.80562,0.24764,0.39161,-14.80188,1.04722,-0.90100
0.17386,1.38370,-0.55439,-0.51567,0.88807,-0.38518,1.74613,1.01493,0.39369,-0.99905,0.47097,1.87527,0.37381,0.80672,0.25568,0.37959,1.03507,3.39774,-0.58247
0.16582,1.39636,-0.55834,-0.52977,0.89516,-0.36307,1.72178,1.00453,0.42069,-1.30574,0.80341,1.95034,0.37693,0.80761,0.26375,0.36895,1.41255,0.08622,1.84973
0.15720,1.40948,-0.56180,-0.54957,0.90798,-0.33994,1.65125,1.00547,0.47533,-1.50663,1.16466,1.41497,0.37843,0.80932,0.27072,0.35847,-4.97716,-2.14526,3.60151
0.14815,1.42310,-0.56525,-0.57114,0.92443,-0.32108,1.61296,1.05851,0.57080,-1.54782,1.28347,1.19655,0.37911,0.81199,0.27815,0.34579,-2.43820,2.46031,6.64473
0.13887,1.43689,-0.56867,-0.59181,0.94030,-0.30533,1.53777,1.12280,0.67212,-1.44526,1.06167,1.14534,0.37864,0.81551,0.28434,0.33275,-4.03004,3.70769,8.31884
0.12942,1.45067,-0.57190,-0.61069,0.95362,-0.28936,1.44706,1.20756,0.76433,-1.37346,1.00783,1.28088,0.37769,0.81969,0.28932,0.31900,-6.05674,4.41020,7.66776
0.11982,1.46464,-0.57481,-0.62745,0.96573,-0.27198,1.34391,1.24607,0.86500,-1.46077,1.05400,1.75728,0.37527,0.82405,0.29402,0.30604,-7.36407,4.03151,8.77242
0.10960,1.47875,-0.57688,-0.65008,0.97762,-0.24649,1.19351,1.22566,0.97683,-1.71068,0.69691,1.97520,0.37062,0.82881,0.29773,0.29508,-9.42897,-1.97816,9.17580
0.09910,1.49250,-0.57844,-0.67279,0.98462,-0.21778,1.12764,1.21593,1.07235,-1.67004,0.45030,1.95888,0.36636,0.83302,0.30277,0.28318,-7.16446,-3.15647,7.86094
0.08822,1.50605,-0.57912,-0.69615,0.98668,-0.18067,1.24187,1.28396,1.14833,-1.39284,0.12679,2.43454,0.36451,0.83607,0.31130,0.26687,5.68177,3.46002,4.61479
0.07736,1.51961,-0.57903,-0.71430,0.98629,-0.14031,1.44196,1.34689,1.21589,-1.28019,-0.02028,3.18401,0.36355,0.83778,0.32261,0.24876,13.17126,5.88274,3.75836
0.06636,1.53290,-0.57843,-0.73088,0.98384,-0.10084,1.60161,1.37225,1.29516,-1.44335,-0.30120,3.55648,0.36148,0.83913,0.33449,0.23091,15.10653,3.89008,4.82140
0.05475,1.54584,-0.57665,-0.75215,0.97621,-0.05202,1.70300,1.36107,1.41650,-1.51563,-0.73589,3.69750,0.35695,0.84079,0.34656,0.21345,9.36079,-0.07104,7.16452
0.04288,1.55820,-0.57409,-0.77327,0.96080,-0.00302,1.71471,1.30934,1.54875,-1.45908,-1.59662,3.61018,0.35015,0.84297,0.35738,0.19768,4.55336,-3.54354,9.04725
0.03080,1.56900,-0.57065,-0.79265,0.92543,0.05005,1.61381,1.22168,1.62832,-0.97117,-2.98602,3.39463,0.34258,0.84559,0.36537,0.18473,-4.04401,-6.22414,6.48487
0.01936,1.57904,-0.56745,-0.79842,0.88491,0.08825,1.49093,1.12484,1.59961,-0.16830,-3.90742,3.15130,0.33693,0.84739,0.37160,0.17412,-9.28178,-8.82381,0.43669
0.00873,1.58649,-0.56307,-0.79064,0.81495,0.13583,1.43125,1.00033,1.41289,0.81704,-4.99303,2.47636,0.33564,0.84655,0.37817,0.16640,-5.03617,-8.68999,-10.14060
-0.00073,1.59306,-0.55901,-0.76754,0.74603,0.16961,1.52578,1.12823,1.08065,1.92340,-4.95199,1.94786,0.34307,0.84328,0.38453,0.15273,-1.85320,9.00740,-21.50522
-0.00924,1.59852,-0.55476,-0.73458,0.67380,0.19882,1.81556,1.35361,0.65964,2.55715,-5.07687,1.81260,0.35761,0.83570,0.39440,0.13478,14.38951,18.88751,-27.74953
-0.01691,1.60322,-0.55037,-0.69687,0.60518,0.22423,2.16163,1.61768,0.22528,2.66298,-4.81685,1.76739,0.37647,0.82502,0.40569,0.11417,21.83683,24.95090,-31.37889
-0.02437,1.60722,-0.54600,-0.66432,0.54128,0.24461,2.30511,1.78285,-0.14632,2.33447,-4.49718,1.75249,0.39455,0.81479,0.41365,0.09667,12.17078,20.03551,-26.51146
-0.03193,1.61100,-0.54144,-0.63928,0.48654,0.26300,2.18431,1.74500,-0.42019,1.67817,-3.60937,1.54420,0.40877,0.80694,0.41745,0.08656,-6.44701,4.56286,-21.49061
-0.04009,1.61473,-0.53699,-0.62647,0.44349,0.27773,1.91698,1.60365,-0.56859,0.67815,-2.67723,0.95321,0.41881,0.80184,0.41841,0.08110,-19.22367,-7.79907,-12.18467
-0.04859,1.61869,-0.53260,-0.62130,0.41298,0.28913,1.68429,1.53410,-0.61585,0.24952,-1.52923,0.70624,0.42726,0.79804,0.41847,0.07394,-20.19390,-5.60963,-3.66589
-0.05738,1.62312,-0.52776,-0.62166,0.39449,0.30371,1.57878,1.53045,-0.57781,-0.24047,-0.50377,0.94832,0.43462,0.79404,0.42024,0.06326,-8.16699,-0.47670,1.70649
-0.06671,1.62793,-0.52318,-0.63074,0.38861,0.31803,1.60571,1.57638,-0.45474,-0.95068,0.05448,1.15959,0.44034,0.78965,0.42449,0.04856,0.42072,1.51183,7.77505
-0.07667,1.63319,-0.51826,-0.64739,0.39057,0.33442,1.69013,1.63648,-0.26269,-1.24330,0.30827,1.34216,0.44391,0.78544,0.43019,0.03106,7.80849,3.43006,12.28075
-0.08671,1.63877,-0.51291,-0.66134,0.39437,0.34910,1.69508,1.68968,-0.07635,-0.96918,0.17858,1.42361,0.44633,0.78237,0.43418,0.01356,5.92665,2.51945,14.47321
-0.09647,1.64439,-0.50678,-0.67232,0.39616,0.36600,1.48306,1.64114,0.12326,-0.61164,-0.48924,1.32362,0.44561,0.78309,0.43382,0.00073,-7.10712,-2.29812,16.32023
-0.10603,1.64952,-0.50068,-0.67824,0.39073,0.37926,1.01471,1.46887,0.27803,-0.12540,-0.76257,0.98870,0.44279,0.78821,0.42737,-0.00402,-28.34726,-11.99993,14.01565
-0.11521,1.65437,-0.49455,-0.67580,0.38174,0.39049,0.48279,1.25302,0.38067,0.28459,-0.61052,0.70751,0.43928,0.79535,0.41765,-0.00395,-37.81542,-16.97884,11.47096
-0.12382,1.65911,-0.48811,-0.66791,0.37311,0.40305,0.16671,1.15928,0.42888,0.24252,-0.07957,0.70292,0.43778,0.80047,0.40934,-0.00681,-30.31990,-12.60133,7.13014
-0.13228,1.66379,-0.48100,-0.65973,0.36551,0.42330,0.35940,1.31724,0.41853,0.13000,-0.10634,1.41751,0.44113,0.79837,0.40931,-0.02175,4.03390,7.05560,0.07825
-0.14101,1.66829,-0.47311,-0.65387,0.35628,0.45175,0.87716,1.64072,0.34245,0.41327,-0.64006,2.20089,0.44895,0.78947,0.41593,-0.04666,32.63293,23.02321,-6.39522
-0.14953,1.67224,-0.46455,-0.64452,0.34091,0.48441,1.22105,1.83054,0.25757,0.91241,-1.10440,2.12906,0.45616,0.78064,0.42169,-0.06850,23.63605,13.68297,-7.87837
-0.15781,1.67629,-0.45595,-0.63418,0.33047,0.51178,1.35752,1.87650,0.22723,0.92852,-1.23780,2.57843,0.46078,0.77428,0.42519,-0.08591,14.52089,8.70264,-4.64124
-0.16628,1.67978,-0.44646,-0.62846,0.31381,0.54563,1.27213,1.76217,0.25533,0.62237,-1.50844,2.58074,0.46221,0.77168,0.42592,-0.09727,-0.28433,-4.03598,-0.50399
-0.17454,1.68320,-0.43663,-0.62125,0.29975,0.57719,1.04247,1.53617,0.33813,0.66244,-0.66083,2.05092,0.46035,0.77288,0.42436,-0.10323,-16.40997,-17.85682,6.41835
-0.18244,1.68681,-0.42681,-0.61068,0.29172,0.60244,1.00317,1.46915,0.37101,0.65714,-0.31761,1.93500,0.46051,0.77110,0.42472,-0.11376,-9.59418,-12.00252,5.14114
-0.18960,1.69003,-0.41578,-0.59054,0.27913,0.64057,1.19203,1.53787,0.34529,1.42623,-0.79520,2.04476,0.46306,0.76462,0.42891,-0.13030,11.00221,4.32734,-1.63131
-0.19620,1.69308,-0.40506,-0.56596,0.26655,0.66730,1.35618,1.60789,0.26148,1.93070,-0.96354,1.73141,0.46720,0.75671,0.43321,-0.14642,10.71164,5.19675,-5.82964
-0.20270,1.69615,-0.39471,-0.54607,0.25746,0.68282,1.46442,1.67092,0.19610,2.03083,-0.91005,1.38700,0.47140,0.74875,0.43678,-0.16241,10.97307,6.59788,-7.76177
-0.20593,1.69880,-0.38285,-0.50488,0.24205,0.70309,1.56000,1.74836,0.11393,1.93005,-0.96183,0.55456,0.47655,0.73965,0.44022,-0.17894,5.40560,4.78562,-4.75590
-0.20841,1.70143,-0.37132,-0.46913,0.22909,0.71167,1.59518,1.83737,0.06334,1.98107,-1.04152,0.14757,0.48162,0.73111,0.44190,-0.19558,2.27603,6.57748,-3.38237
-0.21118,1.70376,-0.36030,-0.43906,0.21548,0.71615,1.61782,1.89053,0.01962,1.95310,-1.31267,0.02088,0.48642,0.72240,0.44359,-0.21155,1.96982,6.02625,-3.71889
-0.21563,1.70561,-0.35034,-0.41463,0.19862,0.71557,1.59384,1.89143,0.00172,1.75639,-1.25085,-0.06853,0.49039,0.71460,0.44472,-0.22602,-0.48008,2.45119,-2.27486
-0.21996,1.70737,-0.34052,-0.39365,0.18407,0.71345,1.52411,1.82924,0.04775,1.42506,-0.90299,-0.19350,0.49210,0.70892,0.44522,-0.23886,-4.79885,-4.33367,2.53715
-0.22435,1.70925,-0.33074,-0.37808,0.17427,0.71161,1.41302,1.70179,0.18441,1.15471,-0.64550,-0.09917,0.49053,0.70621,0.44495,-0.25035,-5.29133,-6.84549,8.05387
-0.22878,1.71131,-0.32100,-0.36572,0.16888,0.70884,1.25524,1.49094,0.38687,0.82502,-0.31461,-0.28156,0.48546,0.70695,0.44414,-0.25940,-9.44339,-16.64972,13.48997
-0.23305,1.71334,-0.31137,-0.35379,0.16424,0.70534,1.13177,1.30978,0.59592,0.93236,-0.25456,-0.20458,0.47894,0.70853,0.44310,-0.26883,-7.86827,-15.24861,14.92544
-0.23690,1.71522,-0.30165,-0.33814,0.15825,0.70435,1.10539,1.15597,0.74720,1.14900,-0.38454,0.03973,0.47203,0.70875,0.44393,-0.27890,-2.96532,-12.97354,11.96827
-0.24036,1.71675,-0.29157,-0.31987,0.14838,0.70802,1.18179,1.04423,0.84684,1.43647,-0.84927,0.43513,0.46492,0.70685,0.44698,-0.29054,5.14104,-8.32335,6.63673
-0.24339,1.71776,-0.28127,-0.29917,0.13293,0.71458,1.21451,0.84481,0.92076,1.75807,-1.49135,0.43462,0.45650,0.70616,0.45118,-0.29896,6.10317,-11.13636,4.19580
-0.24588,1.71816,-0.27103,-0.27499,0.11180,0.71902,1.17150,0.57902,0.97033,1.92665,-1.69628,0.19603,0.44726,0.70744,0.45544,-0.30343,-1.10928,-18.85821,2.63781
-0.24755,1.71783,-0.26111,-0.24292,0.08405,0.71716,1.10504,0.28851,0.96827,2.03415,-1.73282,-0.49398,0.43808,0.70928,0.46047,-0.30491,-2.90353,-19.87430,-0.76967
-0.24883,1.71742,-0.25195,-0.21151,0.06040,0.70472,1.09103,0.18697,0.90400,2.10837,-1.56959,-1.19912,0.43199,0.70831,0.46487,-0.30915,-1.15103,-10.65865,-4.57351
-0.24935,1.71656,-0.24373,-0.17499,0.03477,0.68084,1.09285,0.18320,0.79524,2.25548,-1.58092,-1.72622,0.42828,0.70552,0.46891,-0.31456,0.36373,-0.22195,-6.26855
-0.24993,1.71583,-0.23560,-0.14680,0.01637,0.66004,1.11725,0.24813,0.69446,2.30106,-1.47559,-1.69388,0.42567,0.70145,0.47255,-0.32167,-0.14410,3.72317,-7.51107
-0.24983,1.71453,-0.22778,-0.11499,-0.00635,0.63984,1.17499,0.30115,0.57572,2.31487,-1.73428,-1.27598,0.42368,0.69603,0.47743,-0.32878,3.88679,6.58810,-8.62546
-0.24941,1.71290,-0.21998,-0.08501,-0.02918,0.62378,1.20665,0.26671,0.46859,2.27795,-1.57736,-1.09766,0.42092,0.69137,0.48326,-0.33362,3.01380,-0.12548,-8.04472
-0.24871,1.71121,-0.21218,-0.05705,-0.04830,0.61025,1.19690,0.14031,0.39398,1.95187,-1.30860,-0.92623,0.41666,0.68842,0.48963,-0.33576,0.27915,-7.02362,-6.41548
-0.24804,1.70954,-0.20442,-0.03564,-0.06285,0.59953,1.21077,0.03425,0.33861,1.68048,-1.08146,-0.93059,0.41190,0.68524,0.49653,-0.33799,0.01138,-10.08979,-5.74939
-0.24687,1.70762,-0.19706,-0.01158,-0.07783,0.58559,1.25982,-0.01920,0.26222,1.61745,-0.99828,-1.07072,0.40795,0.68056,0.50418,-0.34091,2.93302,-4.43258,-5.38108
-0.24522,1.70547,-0.19013,0.01486,-0.09332,0.56736,1.33439,-0.00814,0.18549,1.68657,-0.90168,-1.18216,0.40476,0.67438,0.51200,-0.34531,4.46375,0.13293,-5.07282
-0.24366,1.70348,-0.18301,0.03428,-0.10329,0.55614,1.41770,0.05155,0.10184,2.02958,-0.97267,-1.01503,0.40265,0.66675,0.51982,-0.35086,5.66334,4.28931,-5.08239
-0.24069,1.70065,-0.17616,0.06977,-0.12319,0.54397,1.57282,0.10320,-0.07301,2.55571,-1.30705,-0.48131,0.40211,0.65565,0.53083,-0.35589,10.19916,6.64971,-10.31114
-0.23747,1.69774,-0.16871,0.10190,-0.14019,0.54207,1.64799,-0.04048,-0.21895,2.47959,-1.33146,0.02824,0.39893,0.64739,0.54336,-0.35567,7.71437,-4.41228,-11.51519
-0.23399,1.69472,-0.16098,0.13145,-0.15546,0.54456,1.68602,-0.29314,-0.34832,2.02629,-0.93447,0.21894,0.39369,0.64095,0.55737,-0.35148,1.95438,-16.45712,-11.62720
-0.23054,1.69187,-0.15328,0.15440,-0.16516,0.54658,1.74435,-0.44629,-0.45079,1.67660,-0.55706,0.11738,0.38876,0.63331,0.57118,-0.34862,3.01626,-15.24739,-10.97881
-0.22578,1.68911,-0.14565,0.19201,-0.17159,0.54659,1.98928,-0.40144,-0.61480,2.16279,0.05905,0.02772,0.38604,0.61858,0.58775,-0.35055,11.91907,0.99766,-8.13796
-0.22065,1.68668,-0.13817,0.22820,-0.17208,0.54461,2.26909,-0.21016,-0.76917,2.80667,0.00845,-0.30749,0.38549,0.59973,0.60383,-0.35653,21.68383,13.52223,-8.50925
-0.21465,1.68449,-0.13090,0.27002,-0.16907,0.54030,2.44364,-0.10598,-0.92972,3.50966,0.21080,-0.29104,0.38532,0.58144,0.61959,-0.35995,16.20568,12.53740,-8.94346
-0.20784,1.68253,-0.12338,0.31476,-0.16318,0.54001,2.48015,-0.23851,-1.08743,3.44301,0.27411,0.15035,0.38272,0.56703,0.63626,-0.35661,4.90057,-3.02204,-12.03870
-0.20055,1.68064,-0.11542,0.35742,-0.15760,0.54683,2.44661,-0.53720,-1.23486,3.14497,0.40307,0.78077,0.37727,0.55575,0.65415,-0.34772,-2.98198,-16.35406,-14.12042
-0.19288,1.67869,-0.10676,0.39721,-0.15422,0.56254,2.42872,-0.90654,-1.36551,2.69320,0.03587,1.46979,0.36887,0.54538,0.67363,-0.33573,-4.17777,-23.31461,-13.95176
-0.18499,1.67621,-0.09728,0.43143,-0.15920,0.58656,2.48248,-1.30742,-1.49614,2.38833,-0.57170,1.94705,0.35734,0.53390,0.69557,-0.32162,0.49428,-26.58518,-13.46823
-0.17666,1.67275,-0.08703,0.46591,-0.17796,0.61767,2.62594,-1.73947,-1.68200,1.91278,-1.60309,2.00277,0.34316,0.51975,0.72066,-0.30454,5.66045,-26.39733,-15.25001
-0.16844,1.66813,-0.07678,0.49184,-0.21047,0.64207,2.88201,-1.99198,-1.84363,1.55603,-2.83882,1.57278,0.32897,0.50055,0.74630,-0.29029,14.45796,-20.85610,-13.89452
-0.16030,1.66242,-0.06690,0.51120,-0.25211,0.65627,3.14185,-2.13963,-1.98225,1.58589,-4.00765,0.86263,0.31498,0.47849,0.77140,-0.27709,21.68847,-13.85972,-11.36885
-0.15165,1.65475,-0.05729,0.53354,-0.31306,0.66293,3.35287,-2.31239,-2.21223,1.69092,-4.95394,0.05465,0.30113,0.45429,0.79722,-0.25957,19.70600,-10.54417,-13.98662
-0.14295,1.64569,-0.04813,0.55233,-0.38202,0.66219,3.37029,-2.58096,-2.53417,1.33800,-5.39519,-0.42279,0.28753,0.43271,0.82176,-0.23409,6.70270,-13.47477,-23.56650
-0.13440,1.63596,-0.03934,0.56453,-0.44538,0.65564,3.28422,-2.81261,-2.87477,0.77864,-5.54872,-0.83235,0.27516,0.41215,0.84422,-0.20424,-3.32823,-12.90124,-32.19932
-0.12597,1.62345,-0.03134,0.57247,-0.53631,0.63936,3.26963,-2.96197,-3.29708,-0.10958,-5.73811,-1.13730,0.26480,0.38732,0.86639,-0.17099,1.05229,-4.08780,-30.33604
-0.11842,1.60957,-0.02398,0.56631,-0.63139,0.61676,3.44108,-2.96058,-3.59515,-1.01836,-5.88007,-1.52070,0.25454,0.35643,0.88762,-0.14248,12.78359,0.93651,-17.75141
-0.11148,1.59587,-0.01671,0.55195,-0.70371,0.59686,3.73298,-2.87870,-3.68707,-1.82261,-5.77278,-1.68399,0.24254,0.32139,0.90744,-0.12018,21.10374,1.91231,-7.94616
-0.10596,1.57969,-0.01059,0.51969,-0.79781,0.56444,4.36450,-2.67680,-3.51258,-2.74198,-5.47043,-2.01181,0.22777,0.27579,0.92734,-0.11001,35.07886,0.01058,14.38623
-0.10134,1.56333,-0.00484,0.48054,-0.87697,0.53313,5.11004,-2.55685,-3.08364,-3.28380,-5.48546,-2.26950,0.20652,0.22528,0.94586,-0.10927,45.61097,-10.99852,36.08994
-0.09805,1.54590,0.00007,0.42919,-0.95451,0.49510,5.80627,-2.60364,-2.56688,-4.16541,-5.72716,-3.24312,0.17831,0.17243,0.96221,-0.11237,43.11886,-25.00770,39.87317
-0.09579,1.52806,0.00388,0.37446,-1.02160,0.44956,6.28523,-2.73914,-2.15794,-4.95226,-5.76644,-4.46722,0.14748,0.12117,0.97501,-0.11367,33.00919,-31.80742,34.66388
-0.09509,1.50926,0.00595,0.30987,-1.08754,0.38966,6.65978,-2.93737,-1.78993,-5.75143,-5.48211,-5.73794,0.11314,0.06992,0.98438,-0.11537,25.30593,-33.38008,26.34112
-0.09756,1.48819,0.00439,0.21259,-1.17158,0.28921,7.06832,-3.29877,-1.32552,-6.27474,-5.19405,-7.03633,0.07000,0.01638,0.99003,-0.12117,16.90121,-36.74036,20.86234
-0.10081,1.46715,0.00123,0.12260,-1.23983,0.18478,7.36658,-3.68357,-1.02741,-6.63129,-4.56534,-8.22307,0.02489,-0.03668,0.99137,-0.12339,15.27946,-37.46587,10.71478
-0.10569,1.44628,-0.00480,0.02733,-1.29225,0.06020,7.53526,-4.11008,-0.82431,-6.92082,-3.16011,-9.68932,-0.02331,-0.08718,0.98825,-0.12332,12.45453,-36.09635,2.85582
-0.11211,1.42598,-0.01348,-0.07107,-1.32490,-0.07766,7.51168,-4.55292,-0.80943,-7.01960,-1.72325,-10.53793,-0.07340,-0.13243,0.98148,-0.11735,0.14591,-29.52582,-12.04725
-0.12014,1.40675,-0.02487,-0.17286,-1.33588,-0.22675,7.29937,-4.95991,-1.10896,-6.80566,-0.54829,-11.40743,-0.12355,-0.17124,0.97224,-0.10080,-3.13160,-21.68773,-24.86731
-0.13037,1.38957,-0.04075,-0.28737,-1.31491,-0.41375,6.81083,-5.00193,-2.02989,-6.74958,2.78240,-12.98982,-0.16259,-0.20040,0.96415,-0.06176,-9.79283,25.47682,-60.13195
-0.14037,1.37463,-0.05886,-0.37603,-1.26395,-0.59710,6.54351,-5.08334,-2.52798,-6.67242,4.88034,-12.98202,-0.20367,-0.23211,0.95063,-0.03080,-3.89083,27.64667,-45.25582
-0.15008,1.36129,-0.07836,-0.44134,-1.20139,-0.76074,6.43270,-5.51002,-2.69415,-5.29030,6.16323,-13.71283,-0.25635,-0.26462,0.92962,-0.00850,-4.68513,-13.33006,-29.59263
-0.16065,1.35261,-0.10448,-0.50565,-1.08362,-0.98827,6.28604,-6.03553,-3.01334,-2.59308,8.77649,-14.91561,-0.31467,-0.29255,0.90281,0.01840,-4.59077,-24.37411,-35.09607
-0.16934,1.34837,-0.13376,-0.52925,-0.91912,-1.22105,6.06342,-6.09550,-3.51069,0.36325,11.92208,-14.88323,-0.36153,-0.31601,0.87555,0.05333,1.58652,6.65268,-33.33302
-0.17516,1.34718,-0.16418,-0.50491,-0.74183,-1.42564,5.91704,-5.91862,-3.83399,3.38619,13.64697,-14.75824,-0.39999,-0.33942,0.84691,0.08680,1.06668,23.94592,-22.75220
-0.17833,1.34823,-0.19550,-0.44662,-0.57103,-1.59856,5.85229,-5.71574,-4.00771,6.26206,15.22830,-14.21071,-0.43468,-0.36343,0.81550,0.11803,6.06098,20.78385,-6.68352
-0.17520,1.35791,-0.23243,-0.30437,-0.30543,-1.81768,5.90007,-5.49843,-3.83730,11.52358,18.75509,-13.28675,-0.46421,-0.39142,0.78176,0.14192,0.20265,17.44516,-3.24565
-0.16705,1.37213,-0.26895,-0.11514,-0.02396,-1.98758,5.94008,-5.52086,-3.36339,14.94953,21.78850,-10.68621,-0.49437,-0.42260,0.74400,0.15319,-5.32419,-9.32707,35.49325
-0.15764,1.38663,-0.30296,0.04756,0.19511,-2.08172,5.84255,-5.78134,-2.96656,16.91759,22.87076,-7.86461,-0.52929,-0.44947,0.70182,0.15901,-20.94112,-24.70908,23.18008
-0.13708,1.41456,-0.33744,0.33700,0.56149,-2.15861,5.37034,-6.42477,-2.43134,18.90318,23.97174,-1.34291,-0.57303,-0.46842,0.65610,0.14749,-40.55969,-40.89046,4.56290
-0.11211,1.44733,-0.36550,0.63984,0.93420,-2.12676,4.32410,-7.33831,-2.17716,18.17760,23.50623,5.35212,-0.62776,-0.46773,0.60942,0.12553,-63.86422,-39.59708,-27.02600
-0.09107,1.47553,-0.39020,0.81871,1.15820,-2.05510,3.37514,-8.10561,-2.38288,17.50436,23.46672,9.83876,-0.68519,-0.45564,0.55768,0.10909,-72.69412,-51.83877,-59.43089
-0.06127,1.51699,-0.40537,1.08416,1.52482,-1.85780,1.01902,-9.55436,-3.37329,14.36683,24.01202,14.70061,-0.77110,-0.38670,0.50097,0.07001,-93.49702,-46.33013,-135.47460
-0.03308,1.56001,-0.41605,1.27578,1.84482,-1.63417,-1.34105,-10.88613,-5.24526,12.73290,23.45280,17.59634,-0.85812,-0.28001,0.42867,0.03842,-65.08133,-75.31955,-205.36860
-0.00319,1.61022,-0.41982,1.45671,2.21132,-1.35193,-3.87703,-11.39301,-8.01225,12.42312,23.41765,18.84125,-0.92533,-0.12511,0.35736,0.01991,-17.89611,-54.02346,-237.68720
0.02686,1.66071,-0.42385,1.60186,2.50396,-1.13105,-5.24563,-10.58009,-9.84196,15.25313,26.81137,19.84671,-0.95186,0.01010,0.30595,0.01582,32.31988,-10.28239,-211.82630
0.06490,1.72423,-0.42190,1.83378,2.92525,-0.87224,-5.97360,-9.14934,-12.07614,19.86982,31.96495,16.76153,-0.95033,0.16095,0.26397,0.03580,101.04220,11.90365,-175.59250
0.11837,1.80347,-0.41284,2.25310,3.49900,-0.55642,-6.04511,-6.72621,-14.89143,34.60560,38.11603,22.19814,-0.90809,0.33061,0.24295,0.08387,148.09600,-25.38642,-172.38480
0.18891,1.88773,-0.40038,2.84891,4.03634,-0.25160,-4.72965,-4.38310,-16.86809,52.04807,36.37102,23.71733,-0.83914,0.46832,0.22976,0.15404,197.41080,-60.28503,-133.58600
0.28627,1.97593,-0.38013,3.72093,4.51411,0.10745,-2.14174,-2.48094,-18.47828,73.27438,28.80359,29.71538,-0.74265,0.57965,0.21737,0.25541,194.31370,-137.85650,-83.76230
0.41507,2.05815,-0.34796,4.88360,4.80085,0.57077,1.54244,-1.59548,-19.74535,93.14797,9.30801,39.50197,-0.61808,0.65558,0.19347,0.38828,146.09230,-215.99130,-85.22854
0.57678,2.12044,-0.29861,6.29867,4.72718,1.19694,6.17243,-2.29033,-20.41620,108.38640,-23.45551,53.28169,-0.46829,0.67485,0.14691,0.55109,49.20495,-305.50700,-109.55460
0.76696,2.14382,-0.22574,7.83404,4.07562,2.04416,9.91400,-4.73332,-21.35921,111.06610,-73.47202,67.62988,-0.28633,0.65143,0.04853,0.70093,-69.42093,-289.35300,-191.72160
0.96416,2.10152,-0.12742,9.14820,2.57370,3.09484,10.88720,-6.40867,-23.42397,75.66034,-141.30050,77.18266,-0.07512,0.63625,-0.08171,0.76346,-24.96093,-57.04031,-261.59230
1.13025,1.97869,-0.00979,9.71676,0.18418,4.21349,11.54882,-6.24370,-23.24492,3.30246,-192.58690,77.61284,0.10024,0.60463,-0.14407,0.77693,32.95329,-8.73630,-37.82861
1.23571,1.79219,0.11073,9.24659,-2.65186,5.13138,13.54130,-4.03137,-22.43436,-68.22891,-213.62510,48.94253,0.29320,0.57812,-0.13489,0.74941,15.63739,-142.91930,38.64199
1.26708,1.55858,0.21151,7.77563,-5.59537,5.56060,18.43054,0.70234,-20.08701,-134.25420,-216.14490,7.61766,0.51894,0.56025,-0.00249,0.64562,229.52530,-402.39070,81.03035
1.22453,1.28681,0.27059,5.51032,-8.49572,5.27502,27.05114,3.88185,-16.73156,-191.14850,-206.52400,-56.85888,0.76567,0.42277,0.20880,0.43751,297.95260,-440.31980,-306.68390
1.12877,1.01872,0.27480,2.96201,-10.68972,4.24124,38.14885,2.86909,-12.30981,-234.01780,-159.19520,-125.94540,0.89415,0.08031,0.42720,0.10746,538.02230,-111.86830,-737.52140
0.89993,0.76175,0.13032,-0.93004,-12.05683,1.30559,47.42236,-7.01629,-8.00378,-229.00760,14.75035,-205.95300,0.71581,-0.41197,0.52508,-0.20538,814.72060,418.70060,-384.69920
0.71634,0.65705,-0.03805,-3.24507,-10.97346,-1.18022,42.75528,-15.09850,-8.90888,-151.56780,142.92410,-166.52820,0.51351,-0.65859,0.49249,-0.24498,465.78380,689.71260,-64.49203
0.58650,0.68095,-0.17955,-4.31795,-8.54599,-2.74057,29.46527,-10.98614,-13.21940,-28.71428,167.56330,-42.25617,0.57854,-0.69951,0.41582,-0.05548,-137.55760,790.62440,584.42150
0.53011,0.73137,-0.20841,-4.23409,-6.10969,-2.54599,16.35475,-3.25076,-11.46982,35.29857,110.02660,46.59967,0.71872,-0.56681,0.36841,0.16260,-347.95630,588.93100,663.39900
0.49217,0.71187,-0.20357,-3.91797,-5.12881,-1.94063,11.42245,-4.36204,-8.58722,33.04780,64.99583,56.03170,0.68661,-0.55459,0.43052,0.18881,-487.27190,150.56950,214.22010
0.45747,0.67970,-0.18673,-3.62561,-4.55458,-1.30025,7.19480,-6.56875,-6.71341,20.02893,36.91228,52.95326,0.61167,-0.55450,0.52240,0.21328,-436.51700,-22.10985,-88.99771
0.42619,0.66221,-0.12262,-3.35237,-3.82564,-0.01750,-1.59371,-1.55529,-4.56195,1.78763,26.92499,30.45457,0.61318,-0.39773,0.54881,0.40575,-153.30840,354.62440,-7.16725
0.33340,0.58414,-0.09871,-3.35100,-3.40365,0.32844,-2.97501,1.46422,-4.17582,1.13646,35.31379,20.47704,0.60946,-0.36077,0.49478,0.50359,-50.63594,280.93120,11.37485
0.29032,0.56937,-0.07870,-3.33021,-2.92068,0.54298,-3.27426,3.12006,-4.56473,4.79377,34.62558,12.91532,0.61048,-0.34206,0.43834,0.56407,11.24160,135.75490,-71.05587
0.25365,0.56018,-0.06052,-3.23194,-2.45351,0.68503,-3.51272,3.55254,-4.60269,10.34831,33.41753,8.56432,0.59795,-0.32817,0.40563,0.60847,-5.16504,47.53540,-23.38612
0.22257,0.55476,-0.04382,-3.05879,-2.02330,0.78121,-3.77150,3.75268,-4.15119,13.34747,29.28701,5.02945,0.58661,-0.30469,0.38486,0.64416,-10.68279,18.80787,25.34634
0.19310,0.54902,-0.02909,-2.87710,-1.70289,0.83086,-3.81580,4.38051,-3.58122,15.17735,24.97197,2.65369,0.58589,-0.27040,0.35489,0.67651,15.20156,48.03679,33.34879
0.17013,0.54786,-0.01521,-2.64660,-1.38751,0.85745,-3.70826,5.30381,-2.99428,17.02843,20.89479,0.53121,0.59303,-0.22576,0.31535,0.70562,33.88584,70.64628,16.00474
0.15346,0.55040,-0.00411,-2.36670,-1.07547,0.83889,-3.66234,5.99995,-2.31507,18.15374,18.15401,-3.25510,0.59791,-0.17543,0.28065,0.73004,27.05560,58.13556,18.78081
0.13624,0.55026,0.00387,-2.16018,-0.86589,0.77753,-3.61375,5.99455,-1.77936,16.71884,16.97456,-7.10056,0.59449,-0.13674,0.25904,0.74885,21.71926,25.56896,35.10335
0.12310,0.55490,0.00632,-1.94331,-0.63260,0.65334,-3.36016,5.52862,-1.24186,14.25994,17.16050,-11.20142,0.59161,-0.10909,0.24936,0.75889,27.25096,-18.26312,38.52879
0.11079,0.56479,0.00168,-1.74624,-0.36436,0.45183,-2.64707,4.75262,-1.00849,9.51828,16.69427,-14.20516,0.59522,-0.10123,0.24108,0.75983,41.80516,-47.60847,18.23743
0.09810,0.57500,-0.00624,-1.60704,-0.14211,0.23552,-1.44063,4.23876,-1.51390,6.25182,11.91174,-13.09804,0.60965,-0.11166,0.21044,0.75602,57.67619,-47.89201,-39.86522
0.08429,0.58192,-0.01364,-1.50586,-0.01137,0.07451,-0.30176,4.00276,-2.18084,6.73800,7.01584,-9.84141,0.62755,-0.12410,0.16811,0.75001,64.87601,-28.54666,-70.90358
0.06974,0.58658,-0.01909,-1.42238,0.05868,-0.02196,0.27585,3.54224,-2.45302,7.93710,3.61523,-6.15044,0.63745,-0.13454,0.13897,0.74582,49.00951,-33.84309,-53.13333
0.06042,0.59116,-0.02442,-1.29172,0.11222,-0.09753,0.36554,2.36791,-2.14697,8.87358,1.86304,-3.59202,0.63687,-0.15097,0.14205,0.74258,-0.01285,-72.03436,11.31037
0.05138,0.59391,-0.02807,-1.17666,0.12949,-0.13106,0.32328,1.53066,-1.71769,9.25842,0.57206,-1.75050,0.63531,-0.16023,0.14883,0.74064,-9.92878,-75.83561,31.12601
0.04514,0.59557,-0.03082,-1.03765,0.12691,-0.14344,0.23338,0.70870,-1.13358,9.91287,-0.96348,0.35809,0.63293,-0.16802,0.16584,0.73733,-5.63916,-61.40202,39.05037
0.04329,0.59663,-0.03196,-0.86936,0.11634,-0.12831,-0.00484,0.00168,-0.51437,10.25910,-0.31884,1.51947,0.62682,-0.17260,0.18854,0.73605,-17.03515,-49.12888,42.09532
0.04139,0.59759,-0.03241,-0.72986,0.10645,-0.10722,-0.18034,-0.05117,-0.13241,23.87522,-3.12114,6.84378,0.62354,-0.16725,0.19778,0.73764,-13.80249,-38.47105,29.99613
0.07272,0.58872,-0.02512,-0.14128,-0.04298,0.02130,0.80413,2.67946,0.42640,34.52405,-10.43086,7.74491,0.66714,-0.09215,0.14360,0.72513,78.94052,220.84480,13.99982
0.09456,0.58278,-0.01864,0.19474,-0.11922,0.11339,0.52112,3.17443,1.34766,18.78583,-2.64088,4.64150,0.67340,-0.04226,0.14563,0.72356,0.01216,59.60027,75.66151
0.10966,0.58110,-0.01449,0.36508,-0.11855,0.15232,0.23614,3.21154,1.58811,9.90985,3.01814,1.81902,0.67320,-0.01214,0.14406,0.72519,-16.28756,-1.47620,51.31910
0.12142,0.58237,-0.01154,0.45469,-0.07775,0.16523,0.02825,3.25176,1.21188,4.52108,4.54234,0.63874,0.67128,0.00491,0.12723,0.73019,-20.99643,3.10614,-10.07480
0.13120,0.58626,-0.00909,0.49690,-0.00937,0.17036,-0.33731,3.02804,0.54252,1.85247,3.71523,-0.07674,0.66217,0.00773,0.10683,0.74165,-31.29084,-9.95647,-41.34257
0.13962,0.58910,-0.00709,0.51485,0.03097,0.16768,-0.65420,2.58203,0.34556,1.98675,2.56272,-0.70294,0.65219,0.01136,0.10176,0.75111,-30.36502,-33.36517,-19.22858
0.14900,0.59179,-0.00618,0.54386,0.06020,0.14993,-0.94686,1.90085,0.40511,2.04972,1.01433,-1.73472,0.64026,0.01160,0.11006,0.76015,-19.54093,-43.35605,6.95734
0.15918,0.59339,-0.00729,0.57879,0.06743,0.10658,-0.94927,1.33598,0.50349,1.34116,0.33591,-2.93514,0.63445,0.01193,0.11933,0.76360,0.03471,-34.21732,11.32574
0.16865,0.59433,-0.00856,0.59837,0.06566,0.06804,-0.83043,1.14669,0.40281,1.36096,-0.16878,-3.29390,0.63275,0.01446,0.11763,0.76523,8.42029,-19.26554,-4.63092
0.17847,0.59525,-0.01101,0.61929,0.06309,0.02063,-0.64596,0.96839,0.28783,1.55545,-0.05082,-3.36645,0.63338,0.01498,0.11553,0.76503,12.93557,-12.99688,-10.02155
0.18891,0.59694,-0.01461,0.64436,0.07078,-0.03353,-0.48511,0.79881,0.23324,1.51431,0.85200,-3.26923,0.63422,0.01568,0.11497,0.76439,10.58892,-11.52570,-3.47959
0.19943,0.59920,-0.01825,0.66683,0.08737,-0.07921,-0.39765,0.70163,0.18903,1.69584,1.34981,-2.97467,0.63414,0.01754,0.11359,0.76463,7.46629,-7.74428,-3.87141
0.21014,0.60208,-0.02203,0.68751,0.10808,-0.11636,-0.36233,0.63290,0.18923,1.75188,1.96063,-3.07667,0.63322,0.02050,0.11295,0.76541,4.01260,-5.80963,-0.64350
0.22148,0.60593,-0.02669,0.71295,0.13763,-0.15798,-0.37098,0.58944,0.21944,1.91860,1.98503,-2.76820,0.63137,0.02454,0.11281,0.76684,0.64272,-2.96203,0.62286
0.23324,0.60998,-0.03160,0.73983,0.16512,-0.19565,-0.40335,0.55784,0.30107,2.05419,1.71608,-2.53285,0.62879,0.03001,0.11413,0.76857,-2.02249,-2.93956,4.94770
0.24558,0.61393,-0.03677,0.76888,0.18545,-0.23042,-0.42292,0.54417,0.43976,2.17882,0.99873,-2.44509,0.62630,0.03738,0.11712,0.76983,-2.13033,-0.97661,8.71842
0.25842,0.61737,-0.04232,0.79970,0.19439,-0.26372,-0.39310,0.54696,0.65132,2.33219,0.27081,-2.36188,0.62492,0.04714,0.12251,0.76957,2.13812,0.39014,13.94217
0.27180,0.62019,-0.04816,0.83256,0.19485,-0.29499,-0.31258,0.61975,0.88107,2.27216,-0.18630,-2.09849,0.62515,0.05981,0.12806,0.76760,5.06713,3.84756,16.14805
0.28561,0.62244,-0.05425,0.86391,0.18802,-0.32335,-0.18713,0.76916,1.06793,2.08531,-0.65454,-1.89696,0.62719,0.07477,0.13176,0.76399,8.10243,10.40850,13.55565
0.29963,0.62433,-0.06048,0.89252,0.17749,-0.34804,-0.05017,0.97387,1.22308,1.89780,-0.71008,-1.63927,0.63037,0.09191,0.13376,0.75914,9.64076,14.30945,10.66144
0.31375,0.62628,-0.06692,0.91728,0.17015,-0.37113,0.06289,1.24042,1.31960,1.43975,-0.31462,-1.52489,0.63388,0.11111,0.13284,0.75380,7.71821,17.94813,8.55677
0.32787,0.62835,-0.07347,0.93618,0.16579,-0.39084,0.17201,1.60113,1.30271,1.03764,-0.13592,-1.08030,0.63843,0.13206,0.12617,0.74770,5.58176,25.08487,-0.12089
0.34170,0.63074,-0.07971,0.94738,0.16715,-0.40213,0.21128,1.92589,1.27738,0.66412,0.32522,-0.53294,0.64162,0.15383,0.11810,0.74210,1.82959,25.94850,-3.02312
0.35509,0.63411,-0.08567,0.95055,0.18278,-0.40747,0.14876,2.15781,1.36477,-0.06892,1.56058,-0.33780,0.64155,0.17738,0.11315,0.73767,-3.94852,15.34284,4.82752
0.36787,0.63869,-0.09180,0.94329,0.21294,-0.41410,0.00704,2.38938,1.39598,-1.23010,2.63139,-0.30870,0.63907,0.20152,0.10599,0.73467,-8.15874,13.13613,7.14621
0.37967,0.64405,-0.09787,0.92336,0.24821,-0.41852,-0.22725,2.73615,1.21398,-2.11453,2.55596,0.01371,0.63457,0.22563,0.08936,0.73378,-18.27457,21.69049,-6.01553
0.39006,0.64997,-0.10363,0.88672,0.28513,-0.41767,-0.55906,3.12570,0.90501,-2.55805,2.23146,0.04001,0.62717,0.24924,0.06526,0.73504,-25.98318,23.73505,-16.46720
0.40019,0.65579,-0.10951,0.85322,0.31249,-0.41849,-0.80729,3.34248,0.72881,-2.91491,2.34881,-0.36105,0.61904,0.27176,0.04471,0.73548,-25.92392,17.81049,-12.27809
0.40897,0.66247,-0.11589,0.80753,0.34685,-0.42668,-1.08868,3.53868,0.57491,-3.52199,2.47116,-0.82727,0.60829,0.29448,0.02249,0.73672,-22.60864,13.37557,-6.84109
0.41629,0.66962,-0.12281,0.74947,0.38140,-0.44158,-1.40620,3.77707,0.35653,-3.80391,1.88633,-1.00524,0.59534,0.31693,-0.00450,0.73831,-23.57117,13.11875,-8.63864
0.42371,0.67617,-0.12976,0.70420,0.39947,-0.45331,-1.60688,3.92158,0.20228,-3.74220,1.21690,-1.13607,0.58288,0.33825,-0.02995,0.73820,-22.10416,11.92240,-9.70137
0.42997,0.68268,-0.13711,0.65219,0.41336,-0.46852,-1.75549,4.02194,0.11099,-3.57996,0.74721,-1.35924,0.56978,0.35934,-0.05438,0.73707,-14.74679,7.69103,-6.20508
0.43551,0.68912,-0.14484,0.60065,0.42354,-0.48653,-1.79759,4.06980,0.13702,-3.69567,0.58700,-1.42639,0.55726,0.38120,-0.07486,0.73386,-4.74533,3.81634,1.06789
0.44028,0.69548,-0.15268,0.54779,0.43010,-0.50183,-1.81359,4.09215,0.16995,-3.90383,0.39242,-0.74275,0.54448,0.40265,-0.09451,0.72972,0.01511,2.89786,2.72836
0.44412,0.70183,-0.16001,0.49231,0.43537,-0.50667,-1.87251,4.05969,0.17611,-4.16513,0.50031,-0.01086,0.53032,0.42201,-0.11404,0.72641,-3.26106,-0.67900,2.38894
0.44688,0.70855,-0.16667,0.43267,0.44530,-0.50093,-1.95809,3.90714,0.23142,-4.35761,0.87719,0.67151,0.51456,0.43880,-0.13023,0.72507,-4.69800,-7.69036,4.47665
0.44915,0.71570,-0.17279,0.37840,0.45885,-0.48833,-2.03698,3.68308,0.32853,-4.65704,1.24115,1.27299,0.49779,0.45377,-0.14320,0.72512,-3.31215,-15.26078,11.23956
0.44934,0.72334,-0.17788,0.30550,0.47676,-0.46354,-2.19397,3.35336,0.42192,-4.53768,0.95784,1.80513,0.47867,0.46468,-0.15410,0.72884,-6.66537,-18.97574,11.52281
0.44897,0.73059,-0.18230,0.23734,0.48585,-0.43371,-2.31747,3.02340,0.48935,-4.09014,0.24902,1.87443,0.45985,0.47356,-0.16426,0.73301,-6.70730,-19.66166,9.44901
0.44914,0.73738,-0.18681,0.19101,0.48587,-0.41087,-2.35637,2.79068,0.52862,-3.74650,-0.18775,1.89920,0.44237,0.48282,-0.17460,0.73533,-2.64132,-19.52150,7.89129
0.44725,0.74748,-0.19074,0.14034,0.48407,-0.38493,-2.38600,2.53985,0.52321,-3.24247,-0.60135,1.92833,0.42567,0.48951,-0.18462,0.73830,-0.73609,-17.94752,4.22573
0.44106,0.76840,-0.19467,0.08467,0.49167,-0.35919,-2.38255,2.29041,0.48841,-2.48867,-0.70604,1.55089,0.41026,0.49456,-0.19438,0.74116,-0.47780,-16.63885,0.21689
0.43652,0.78571,-0.19941,0.04959,0.49913,-0.34586,-2.32799,2.15424,0.47111,-2.00236,-0.41322,1.04253,0.39563,0.50129,-0.20404,0.74199,3.32436,-13.30023,0.54787
0.43409,0.79571,-0.20373,0.01974,0.50261,-0.33533,-2.23832,2.07374,0.48075,-1.35242,0.32685,0.45271,0.38150,0.50908,-0.21283,0.74162,5.48855,-6.12427,-0.33794
0.43279,0.80349,-0.20813,0.00059,0.51256,-0.33215,-2.13981,2.04677,0.55348,-1.16612,0.89237,0.02062,0.36664,0.51868,-0.22006,0.74035,6.75508,-1.35320,2.64563
0.43153,0.81168,-0.21264,-0.01449,0.52675,-0.33147,-1.98057,2.01278,0.69855,-1.09921,1.17003,-0.06229,0.35241,0.52962,-0.22343,0.73851,11.56594,-0.27670,8.14699
0.42983,0.82058,-0.21716,-0.03244,0.54802,-0.32975,-1.68405,1.95119,0.97175,-0.92648,1.26653,0.12798,0.33987,0.54295,-0.21948,0.73588,20.17124,-0.27421,14.02521
0.42816,0.82950,-0.22158,-0.04540,0.56553,-0.32662,-1.39770,1.88617,1.21781,-0.82621,1.22164,0.27400,0.32803,0.55631,-0.21366,0.73298,23.45199,-0.94514,15.64954
0.42638,0.83847,-0.22590,-0.05771,0.58043,-0.32312,-1.16541,1.83607,1.41118,-0.86191,1.01505,0.30945,0.31614,0.56946,-0.20765,0.72983,19.95876,-0.83124,12.55559
0.42461,0.84728,-0.23031,-0.07018,0.59098,-0.32015,-0.99046,1.77645,1.53383,-0.96114,0.67703,0.20234,0.30453,0.58143,-0.20221,0.72685,14.77749,-1.81961,8.68953
0.42260,0.85599,-0.23482,-0.08280,0.59794,-0.31887,-0.80822,1.70484,1.63229,-0.78940,0.36355,-0.02598,0.29399,0.59290,-0.19566,0.72371,12.80560,-3.10774,5.34511
0.42040,0.86473,-0.23953,-0.09630,0.60435,-0.32158,-0.54358,1.64241,1.74227,-0.78883,0.49270,-0.33440,0.28570,0.60515,-0.18603,0.71942,17.50641,-2.40737,5.07207
0.41821,0.87356,-0.24458,-0.10737,0.61058,-0.32777,-0.38292,1.63886,1.81222,-1.08474,0.68564,-0.39811,0.27609,0.61776,-0.17803,0.71446,17.34891,0.86273,5.31131
0.41512,0.88239,-0.25005,-0.12804,0.61607,-0.33689,-0.44746,1.65925,1.78136,-1.42057,0.44963,-0.15056,0.26335,0.62863,-0.17578,0.71033,-0.31460,1.32876,-0.17923
0.41212,0.89098,-0.25522,-0.14383,0.61626,-0.34107,-0.66828,1.66176,1.69558,-1.18503,-0.03053,-0.11059,0.24761,0.63729,-0.17830,0.70764,-15.70528,-1.73481,-4.36551
0.40890,0.89923,-0.26045,-0.16009,0.61127,-0.34396,-0.96076,1.64300,1.57469,-1.15254,-0.58940,-0.09211,0.23012,0.64395,-0.18438,0.70595,-21.46841,-3.54361,-5.54610
0.40531,0.90680,-0.26579,-0.17739,0.59774,-0.34610,-1.22409,1.58529,1.46168,-0.91320,-1.20676,-0.06580,0.21251,0.64908,-0.19109,0.70500,-18.21907,-5.77181,-4.78416
0.40201,0.91409,-0.27097,-0.18754,0.58212,-0.34695,-1.32308,1.51885,1.39880,-0.72739,-1.65801,-0.10137,0.19705,0.65457,-0.19475,0.70340,-11.77856,-6.55269,-4.28688
0.39845,0.92027,-0.27642,-0.19859,0.55271,-0.34825,-1.29413,1.43829,1.31780,-0.47853,-2.26449,-0.01843,0.18496,0.65977,-0.19675,0.70127,-0.37771,-5.85043,-4.31248
0.39516,0.92593,-0.28161,-0.20364,0.52208,-0.34706,-1.11084,1.36170,1.24790,-0.21999,-2.37415,0.26191,0.17692,0.66569,-0.19543,0.69811,10.55171,-4.33095,-5.98312
0.39211,0.93108,-0.28642,-0.20535,0.48924,-0.34263,-0.89440,1.27104,1.17699,-0.16853,-2.48429,0.51564,0.17104,0.67132,-0.19265,0.69496,16.05397,-4.95637,-5.27518
0.38902,0.93453,-0.29158,-0.20409,0.43172,-0.33367,-0.47069,1.11954,1.01323,0.12809,-2.32527,0.68832,0.17275,0.67611,-0.18703,0.69142,18.72365,-4.77079,-7.13420
