posX, posY, posZ, velX, velY, velZ, angVelX, angVelY, angVelZ, accX, accY, accZ, rotX, rotY, rotZ, rotW, angAccX, angAccY, angAccZ
0.32295,1.14201,-0.41588,0.07985,0.01585,0.12838,-0.28405,-0.17356,0.03196,-0.67022,1.78972,-0.05038,0.00967,0.77304,-0.18103,0.60791,15.86449,-0.49996,1.54001
0.32352,1.14355,-0.41438,0.07090,0.03717,0.12523,-0.14418,-0.17768,0.05021,-0.83292,1.91813,-0.40539,0.01091,0.77272,-0.17839,0.60907,11.54399,-1.01094,2.12074
0.32373,1.14588,-0.41326,0.05815,0.06668,0.11795,0.06184,-0.15898,0.07007,-1.00151,2.27104,-0.64001,0.01385,0.77343,-0.17310,0.60964,13.30971,0.86303,1.40146
0.32361,1.14891,-0.41234,0.04328,0.10006,0.10910,0.33780,-0.14556,0.08067,-1.18731,2.38907,-0.67082,0.01925,0.77472,-0.16494,0.61011,18.05558,1.52706,1.49264
0.32327,1.15260,-0.41150,0.02859,0.13559,0.10049,0.72386,-0.16264,0.05910,-1.02399,2.52826,-0.69747,0.02906,0.77623,-0.15295,0.61092,25.13726,-0.60780,-0.44570
0.32295,1.15687,-0.41117,0.01645,0.17429,0.08777,1.15235,-0.19573,0.01825,-0.87520,3.08606,-1.19205,0.04221,0.77772,-0.13812,0.61179,32.18116,-1.65326,-2.97375
0.32242,1.16196,-0.41209,0.00371,0.21667,0.05904,1.39495,-0.23482,0.00627,-1.10764,3.42471,-2.76370,0.05290,0.77822,-0.12537,0.61308,21.61010,-3.27239,-1.83607
0.32068,1.16853,-0.41522,-0.02402,0.27101,0.00154,1.57389,-0.14351,0.01827,-2.17106,3.70435,-4.32038,0.06194,0.78096,-0.11285,0.61117,10.56029,4.23450,0.65255
0.31769,1.17638,-0.41999,-0.06590,0.33471,-0.07044,1.81913,0.03286,0.08141,-2.98959,4.21883,-4.68162,0.07107,0.78598,-0.09683,0.60647,14.62325,10.78622,4.90349
0.31477,1.18385,-0.42405,-0.09643,0.37753,-0.11579,1.99821,0.12669,0.12799,-3.22378,4.30543,-4.48281,0.08026,0.78981,-0.08101,0.60266,16.44855,10.01182,5.98780
0.31034,1.19409,-0.43020,-0.14327,0.45275,-0.18135,2.39352,0.24125,0.19360,-2.93536,4.94678,-3.82834,0.09367,0.79483,-0.05783,0.59677,24.55504,7.48025,6.04365
0.30626,1.20433,-0.43594,-0.17597,0.51324,-0.22720,2.59748,0.24289,0.22379,-2.90788,5.59798,-3.58819,0.10582,0.79722,-0.03779,0.59314,23.73640,2.84208,2.27924
0.30110,1.21660,-0.44319,-0.21732,0.58977,-0.28439,2.47329,0.11157,0.27898,-3.43674,6.14692,-4.01632,0.11175,0.79627,-0.02441,0.59403,-2.24401,-7.40327,2.08088
0.29375,1.23175,-0.45206,-0.28258,0.69333,-0.35608,2.32621,0.04953,0.42513,-4.49731,7.25768,-5.11748,0.11370,0.79608,-0.01070,0.59431,-13.51418,-10.22943,3.71902
0.28542,1.24776,-0.46077,-0.34875,0.78789,-0.41085,2.47961,0.22222,0.73944,-5.99091,8.07891,-4.57210,0.11513,0.80094,0.01386,0.58741,5.03454,7.10579,23.72208
0.27354,1.26761,-0.47068,-0.45318,0.91880,-0.47128,2.90383,0.48709,1.16218,-6.84624,7.91852,-3.51964,0.11766,0.80798,0.04971,0.57520,23.56614,12.23534,27.87216
0.26106,1.28737,-0.48009,-0.54689,1.02351,-0.51309,3.41768,0.79558,1.48276,-6.59110,6.81127,-2.84928,0.12393,0.81531,0.08938,0.55851,34.53965,17.39339,27.60085
0.24791,1.30724,-0.48952,-0.63184,1.10879,-0.54677,3.90689,1.14527,1.72150,-5.79941,5.41966,-1.93520,0.13209,0.82275,0.13041,0.53723,36.96308,24.59295,23.12942
0.23398,1.32733,-0.49924,-0.71043,1.17913,-0.57744,4.16259,1.47525,1.79978,-4.56950,3.64371,-1.53014,0.14064,0.82960,0.16548,0.51439,18.63207,19.82273,12.75969
0.22132,1.34552,-0.50862,-0.75744,1.21316,-0.59609,4.17299,1.67381,1.76773,-3.93146,2.30337,-1.13745,0.14818,0.83468,0.19342,0.49390,3.57439,18.31711,4.47265
0.20820,1.36334,-0.51809,-0.80151,1.23490,-0.61051,4.03958,1.84786,1.61455,-2.97937,1.07450,-0.54160,0.15674,0.83960,0.21483,0.47365,-9.33400,14.51873,-3.14140
0.19543,1.38081,-0.52699,-0.82923,1.24439,-0.61406,3.90459,1.96600,1.42317,-2.10538,0.61368,-0.06825,0.16672,0.84337,0.23383,0.45416,-15.88796,12.18946,-9.60200
0.18243,1.39786,-0.53540,-0.85940,1.25161,-0.60759,3.88879,2.26184,1.13494,-1.69323,0.22430,0.48078,0.18286,0.84815,0.25181,0.42872,-6.32900,18.09750,-11.01273
0.16956,1.41497,-0.54328,-0.87891,1.25415,-0.59494,4.01947,2.56823,0.97451,-1.74957,0.30784,1.28894,0.19974,0.85167,0.27432,0.39939,4.64673,27.19130,-8.70578
0.15590,1.43239,-0.55015,-0.90353,1.25782,-0.57202,4.01325,2.82261,0.84206,-1.90068,0.36662,2.56329,0.21516,0.85494,0.29337,0.36975,4.20163,26.13677,-4.02271
0.14170,1.44965,-0.55594,-0.93201,1.25907,-0.53674,3.53590,2.74139,0.71199,-1.93131,-0.12850,3.05724,0.22258,0.85808,0.30085,0.35162,-26.95378,-1.58111,-3.52018
0.12754,1.46663,-0.56124,-0.95285,1.25478,-0.50192,3.08832,2.56550,0.60911,-1.74150,-0.51012,3.11657,0.22812,0.86019,0.30678,0.33751,-39.22097,-14.77333,-4.24318
0.11298,1.48319,-0.56514,-0.97430,1.24431,-0.45495,2.70058,2.44122,0.52127,-1.42296,-1.08103,3.23356,0.23342,0.86257,0.31123,0.32344,-31.78178,-11.59786,-3.31212
0.09862,1.49872,-0.56840,-0.98952,1.22335,-0.40576,2.45844,2.42582,0.40982,-0.97335,-1.85117,3.46885,0.24155,0.86465,0.31632,0.30655,-20.91493,-2.33461,-4.13361
0.08447,1.51325,-0.57082,-0.99851,1.19219,-0.35403,2.43357,2.54568,0.29420,-0.65819,-2.63175,3.22105,0.25361,0.86563,0.32456,0.28467,-9.63443,4.94060,-6.10738
0.07071,1.52720,-0.57237,-0.99875,1.15685,-0.30201,2.52222,2.81648,0.13710,0.35933,-2.30526,4.07640,0.27037,0.86581,0.33357,0.25690,7.38596,22.15507,-8.78772
0.05728,1.54111,-0.57285,-0.99323,1.12722,-0.24442,2.46542,2.96165,0.00717,0.24129,-2.12553,4.82649,0.28510,0.86592,0.33923,0.23202,-3.94994,15.52516,-6.93614
0.04342,1.55438,-0.57165,-0.99563,1.09447,-0.17366,2.45973,2.99921,-0.04292,-0.42691,-2.38541,5.04420,0.29767,0.86460,0.34686,0.20869,-7.77216,2.90997,-3.66392
0.02952,1.56719,-0.56850,-0.99697,1.05987,-0.09126,2.49145,3.01168,-0.09289,0.16925,-2.52581,7.02817,0.31061,0.86183,0.35559,0.18529,9.06113,8.04673,-3.87282
0.01552,1.57961,-0.56354,-0.99851,1.02432,-0.00031,2.30594,2.67188,-0.12173,-0.25230,-2.95794,6.75168,0.31766,0.85902,0.36169,0.17421,-11.39090,-19.03350,-2.84817
0.00145,1.59176,-0.55898,-1.00104,0.99396,0.06421,2.20423,2.45100,-0.15341,-0.29502,-2.95709,6.03451,0.32557,0.85567,0.36835,0.16172,-17.54263,-27.04121,-4.23138
-0.01225,1.60212,-0.55023,-0.99808,0.94535,0.17504,2.50515,2.46383,-0.19378,0.30696,-2.41563,5.38650,0.33864,0.84763,0.38378,0.13984,15.06421,-0.96727,-6.07034
-0.02548,1.61247,-0.54211,-0.98781,0.90398,0.25795,2.80247,2.63806,-0.19491,0.94320,-2.69571,4.96944,0.35254,0.83915,0.39889,0.11147,20.75401,12.14647,-1.58693
-0.03840,1.62287,-0.53484,-0.97575,0.87215,0.31177,2.88440,2.70147,-0.20529,1.16369,-2.83411,4.42717,0.36453,0.83153,0.41000,0.08701,11.87027,7.30848,-1.34841
-0.05060,1.63201,-0.52642,-0.95578,0.82849,0.37219,2.80648,2.66801,-0.20811,1.55796,-2.82283,3.51046,0.37435,0.82513,0.41785,0.06646,-3.32553,-1.30349,0.43214
-0.06235,1.64099,-0.51836,-0.93203,0.79020,0.41533,2.68439,2.62865,-0.22729,1.74279,-2.83977,2.79790,0.38408,0.81888,0.42391,0.04712,-8.17419,-3.90679,-0.11631
-0.07364,1.64940,-0.51021,-0.90697,0.75167,0.45084,2.53345,2.60819,-0.23806,1.84755,-2.67567,2.33980,0.39348,0.81310,0.42809,0.02809,-10.99635,0.12478,0.61411
-0.08460,1.65755,-0.50189,-0.88200,0.71551,0.47939,2.40318,2.62261,-0.23870,1.70402,-2.51924,1.64701,0.40279,0.80722,0.43138,0.00841,-11.00948,-1.55210,1.83498
-0.09521,1.66531,-0.49346,-0.85609,0.68029,0.50270,2.41743,2.75698,-0.25436,1.81792,-2.34126,1.34169,0.41413,0.79891,0.43587,-0.01603,-2.25014,7.97227,1.11267
-0.10542,1.67266,-0.48512,-0.83053,0.64743,0.52079,2.49715,2.94363,-0.26685,1.83541,-2.53387,1.10290,0.42630,0.78873,0.44078,-0.04354,7.75007,13.18140,-0.46155
-0.11524,1.67974,-0.47672,-0.80487,0.61518,0.53409,2.39226,3.02318,-0.26419,2.09080,-2.53856,1.09110,0.43683,0.78068,0.44183,-0.06719,-2.80835,9.69511,2.11780
-0.12486,1.68648,-0.46806,-0.78117,0.58461,0.54792,2.09174,2.90107,-0.23314,1.69920,-2.36747,1.13632,0.44409,0.77626,0.43960,-0.08335,-18.04681,-5.13564,4.44707
-0.13463,1.69301,-0.45942,-0.76531,0.55946,0.56071,1.82273,2.74155,-0.16146,1.22295,-1.89100,0.97358,0.44910,0.77302,0.43726,-0.09771,-23.35085,-14.25047,7.28637
-0.14408,1.69917,-0.45050,-0.74856,0.53354,0.57455,1.61303,2.61300,-0.06077,1.16330,-1.81541,0.75621,0.45279,0.77022,0.43483,-0.11252,-14.91116,-10.97110,8.35627
-0.15298,1.70495,-0.44164,-0.72620,0.50638,0.58398,1.38602,2.50248,0.04564,1.67789,-1.64806,0.34211,0.45579,0.76849,0.43082,-0.12679,-12.98006,-8.01803,8.80135
-0.16150,1.71082,-0.43310,-0.70240,0.48736,0.58845,1.28009,2.48913,0.06957,1.96813,-1.45000,0.30423,0.46116,0.76425,0.42752,-0.14312,-11.69961,-5.35992,6.55418
-0.16948,1.71636,-0.42430,-0.67673,0.46802,0.59666,1.33837,2.56894,0.03185,1.98840,-1.46873,0.79633,0.46874,0.75619,0.42647,-0.16304,-1.26848,4.20773,-0.82527
-0.17657,1.72103,-0.41431,-0.64276,0.43915,0.61998,1.57516,2.69198,-0.03079,1.84240,-1.61212,1.59937,0.47706,0.74376,0.42929,-0.18692,12.81820,8.83140,-6.39379
-0.18409,1.72586,-0.40422,-0.62101,0.41958,0.64179,1.63272,2.61640,0.00581,1.84556,-1.50307,1.62417,0.48098,0.73528,0.43103,-0.20550,7.96158,-1.36784,-1.12317
-0.19138,1.73067,-0.39403,-0.59978,0.40370,0.66128,1.55177,2.40356,0.11894,1.60296,-1.18276,1.26559,0.48109,0.73091,0.43153,-0.21933,-3.14158,-14.54578,6.21185
-0.19860,1.73546,-0.38399,-0.58158,0.39070,0.67346,1.45662,2.23214,0.24389,1.60765,-1.14116,0.80571,0.48026,0.72751,0.43098,-0.23309,-5.57637,-16.56944,9.05768
-0.20459,1.73977,-0.37395,-0.54960,0.37374,0.68356,1.33397,2.07453,0.38570,2.31406,-1.12074,0.62079,0.47823,0.72561,0.42920,-0.24611,-6.55429,-11.70272,9.60876
-0.21001,1.74367,-0.36389,-0.51525,0.35400,0.69274,1.23264,1.91848,0.45085,2.68884,-1.75099,0.69568,0.47704,0.72310,0.42802,-0.25762,-5.48889,-11.27695,5.74142
-0.21539,1.74737,-0.35381,-0.48830,0.33586,0.69909,1.14334,1.78624,0.47689,2.83697,-1.98185,0.60799,0.47636,0.72034,0.42684,-0.26831,-7.26504,-12.69176,3.23760
-0.21867,1.74948,-0.34342,-0.43684,0.29875,0.70851,1.06679,1.64916,0.44958,2.68998,-2.07660,0.33065,0.47640,0.71725,0.42634,-0.27718,-5.20804,-10.07451,-1.01490
-0.22194,1.75154,-0.33352,-0.39525,0.26803,0.70927,1.06058,1.65986,0.39529,3.15145,-2.28546,-0.17203,0.47849,0.71145,0.42542,-0.28966,0.84048,1.57270,-3.32364
-0.22533,1.75390,-0.32381,-0.36441,0.24820,0.70651,0.99622,1.61112,0.37376,3.24007,-1.92417,-0.35516,0.47972,0.70733,0.42373,-0.30001,-4.06908,-1.31980,-3.62318
-0.22822,1.75563,-0.31451,-0.31893,0.22170,0.70129,0.91812,1.58041,0.33702,2.99792,-1.41536,-0.27496,0.48172,0.70327,0.42131,-0.30960,-6.79372,-3.65279,-0.74260
-0.23134,1.75746,-0.30496,-0.27973,0.20081,0.70114,0.97950,1.62239,0.25974,3.12044,-1.51365,0.09642,0.48461,0.69564,0.42122,-0.32219,2.36707,3.14112,-4.77952
-0.23400,1.75910,-0.29512,-0.24684,0.18245,0.70446,1.04683,1.63210,0.19139,3.13666,-1.61138,0.29465,0.48705,0.68765,0.42205,-0.33435,5.26465,2.84492,-6.60831
-0.23405,1.76000,-0.28502,-0.19895,0.15930,0.70814,1.12817,1.62061,0.10956,2.94652,-1.40734,0.11440,0.48949,0.67881,0.42409,-0.34608,3.85040,-0.68393,-5.99741
-0.23356,1.76073,-0.27515,-0.15175,0.13784,0.70862,1.15919,1.59805,0.06998,3.11493,-1.40024,-0.02412,0.49133,0.67097,0.42514,-0.35728,3.15411,0.06555,-3.57361
-0.23251,1.76119,-0.26525,-0.10457,0.11605,0.70863,1.11862,1.49356,0.03745,2.90715,-1.51165,0.00913,0.49263,0.66499,0.42609,-0.36546,-2.11554,-6.43469,-2.45847
-0.23173,1.76161,-0.25537,-0.07118,0.09821,0.70893,1.08238,1.39295,0.01067,2.83344,-1.48082,0.02457,0.49369,0.65925,0.42720,-0.37306,-3.77308,-7.28965,-2.48684
-0.22978,1.76141,-0.24545,-0.02752,0.07487,0.70975,1.05495,1.24873,-0.04738,2.58961,-1.39521,0.08112,0.49461,0.65366,0.42977,-0.37866,-2.81976,-9.04844,-3.32036
-0.22783,1.76109,-0.23553,0.00760,0.05425,0.71026,1.11931,1.20579,-0.12586,2.32784,-1.30007,-0.02410,0.49614,0.64536,0.43338,-0.38670,2.24159,-5.25579,-5.73939
-0.22574,1.76076,-0.22579,0.03714,0.03819,0.70816,1.22520,1.23976,-0.21711,2.37716,-1.33228,-0.24582,0.49849,0.63470,0.43738,-0.39669,7.28151,1.96496,-7.34538
-0.22336,1.76012,-0.21619,0.06403,0.02127,0.70462,1.30518,1.23529,-0.28096,2.22487,-1.58329,-0.39236,0.50015,0.62442,0.44171,-0.40600,7.88662,3.16989,-7.40950
-0.22035,1.75882,-0.20696,0.09437,-0.00175,0.69587,1.31323,1.14796,-0.30000,1.83021,-1.60078,-0.76677,0.50055,0.61653,0.44586,-0.41298,1.48135,-4.45701,-2.68495
-0.21752,1.75733,-0.19806,0.11647,-0.02311,0.68426,1.23638,0.97361,-0.26805,1.62751,-1.71739,-1.01158,0.49947,0.61215,0.44931,-0.41704,-3.60981,-9.30639,0.93632
-0.21479,1.75576,-0.18937,0.13236,-0.04106,0.67228,1.10600,0.75088,-0.21413,1.21343,-1.45252,-1.08472,0.49741,0.61066,0.45234,-0.41841,-10.29591,-17.98212,3.28471
-0.21181,1.75367,-0.18131,0.14863,-0.06297,0.65383,1.00761,0.54007,-0.16289,0.74421,-1.19372,-1.21828,0.49457,0.60976,0.45593,-0.41918,-7.30018,-14.65306,2.18547
-0.20915,1.75166,-0.17346,0.15717,-0.07935,0.63519,0.95846,0.39559,-0.11487,0.48515,-0.99649,-1.40842,0.49152,0.60803,0.45963,-0.42124,-3.55671,-10.71022,2.84170
-0.20665,1.74973,-0.16587,0.16156,-0.09124,0.61714,0.96040,0.32989,-0.08936,0.09482,-0.92710,-1.53993,0.48885,0.60477,0.46351,-0.42479,-1.56891,-8.90753,1.94830
-0.20416,1.74740,-0.15926,0.16508,-0.10635,0.58898,1.01419,0.36570,-0.06124,0.19617,-0.90045,-1.83268,0.48654,0.59954,0.46680,-0.43119,2.78733,0.70529,2.61802
-0.20159,1.74482,-0.15277,0.16895,-0.12252,0.56391,1.10072,0.45940,-0.10210,0.19631,-1.40117,-1.75888,0.48594,0.59146,0.47071,-0.43871,5.85656,6.83446,-1.71880
-0.19910,1.74179,-0.14637,0.17086,-0.14150,0.54309,1.13580,0.49107,-0.15216,0.34003,-1.80546,-1.84942,0.48552,0.58412,0.47487,-0.44448,5.30351,5.90801,-3.72892
-0.19660,1.73766,-0.14092,0.17259,-0.17303,0.51272,1.04148,0.32098,-0.19707,0.10553,-1.88972,-1.71663,0.48402,0.58147,0.47991,-0.44418,-4.65550,-7.29325,-3.91617
-0.19438,1.73377,-0.13531,0.16977,-0.19486,0.48960,0.91355,0.08008,-0.20513,-0.38712,-1.36682,-1.76678,0.48098,0.58175,0.48523,-0.44133,-9.73866,-17.61177,-1.50599
-0.19225,1.73037,-0.12953,0.16644,-0.20478,0.47501,0.84259,-0.03838,-0.20095,-0.57218,-1.14031,-1.85541,0.47835,0.58080,0.48979,-0.44041,-9.36299,-16.94174,-1.27469
-0.19062,1.72632,-0.12546,0.15674,-0.22138,0.43900,0.77104,-0.12254,-0.21833,-0.84185,-0.58270,-1.94595,0.47646,0.57973,0.49422,-0.43892,-5.11754,-6.59800,-1.34269
-0.18918,1.72255,-0.12157,0.14570,-0.23147,0.40627,0.86669,0.05395,-0.28713,-0.90666,-0.38326,-1.91165,0.47730,0.57148,0.49839,-0.44408,4.32811,8.91175,-2.85236
-0.18783,1.71887,-0.11774,0.13567,-0.23827,0.37934,1.03537,0.33060,-0.37326,-0.69734,-0.40783,-1.83866,0.47951,0.55904,0.50249,-0.45282,11.85093,18.55497,-4.70987
-0.18648,1.71517,-0.11410,0.12768,-0.24396,0.35494,1.19050,0.54947,-0.47353,-0.32345,-0.48760,-1.79233,0.48194,0.54543,0.50738,-0.46131,13.24846,19.03605,-6.52834
-0.18515,1.71160,-0.11066,0.12108,-0.24633,0.33261,1.18459,0.52926,-0.52825,-0.11389,-0.17421,-1.75406,0.48267,0.53721,0.51259,-0.46442,3.86966,4.47339,-4.94682
-0.18373,1.70845,-0.10743,0.11726,-0.24228,0.31208,1.06425,0.34994,-0.54586,-0.12063,0.42537,-1.39701,0.48197,0.53400,0.51792,-0.46294,-8.04672,-10.83043,-2.27155
-0.18222,1.70569,-0.10412,0.11540,-0.23293,0.29658,0.93668,0.12261,-0.52808,-0.03993,0.90291,-0.88553,0.47970,0.53320,0.52356,-0.45986,-10.75932,-15.93990,0.06736
-0.18045,1.70336,-0.10061,0.11800,-0.21943,0.28765,0.88323,-0.06117,-0.53449,0.31226,1.21476,-0.25388,0.47693,0.53134,0.53039,-0.45706,-7.03382,-14.76749,-0.23957
-0.17821,1.70115,-0.09669,0.12693,-0.20696,0.28663,0.97321,-0.14431,-0.58953,0.84687,0.93604,0.24202,0.47400,0.52533,0.53929,-0.45664,3.68141,-7.54210,-3.24780
-0.17517,1.69887,-0.09230,0.14626,-0.19808,0.29258,1.17841,-0.17913,-0.70390,1.57560,0.35604,0.62826,0.47070,0.51519,0.55102,-0.45760,11.94165,-2.73033,-6.73542
-0.17169,1.69612,-0.08764,0.16801,-0.19793,0.30144,1.37930,-0.19513,-0.84227,2.01723,-0.14020,0.84920,0.46774,0.50324,0.56377,-0.45840,15.06003,-0.99648,-9.98750
-0.16705,1.69297,-0.08266,0.20268,-0.20404,0.31325,1.59178,-0.28737,-1.03911,2.54942,-0.65955,0.45819,0.46387,0.48981,0.57976,-0.45694,15.20269,-3.38431,-12.70208
-0.16158,1.68937,-0.07784,0.24355,-0.21586,0.32002,1.65524,-0.51899,-1.24124,2.88876,-1.04396,0.24917,0.45932,0.47980,0.59674,-0.45023,4.22497,-12.64725,-13.54783
-0.15592,1.68543,-0.07325,0.27856,-0.23044,0.32219,1.68318,-0.70615,-1.42029,3.04022,-1.44617,0.07627,0.45507,0.46987,0.61347,-0.44249,1.00603,-14.85768,-15.63866
-0.14919,1.68066,-0.06882,0.32213,-0.25439,0.32138,1.69700,-0.91993,-1.65559,3.33882,-2.06925,-0.09476,0.45089,0.45930,0.63214,-0.43144,1.89854,-12.29515,-17.83852
-0.14188,1.67508,-0.06412,0.36490,-0.28532,0.32505,1.57632,-1.29655,-1.92132,3.09465,-2.54992,0.39327,0.44553,0.45271,0.65257,-0.41316,-7.23748,-20.74445,-20.92440
-0.13453,1.66900,-0.05910,0.39862,-0.31669,0.33227,1.49411,-1.58784,-2.14707,2.48921,-2.60073,0.88152,0.43977,0.44534,0.67296,-0.39419,-12.50512,-24.86731,-23.89944
-0.12643,1.66144,-0.05368,0.43644,-0.36381,0.34408,1.62576,-1.73487,-2.42860,1.88545,-2.87513,0.96573,0.43386,0.43071,0.69585,-0.37689,5.58652,-10.33311,-18.75252
-0.11876,1.65353,-0.04827,0.46070,-0.40702,0.35363,1.85950,-1.75831,-2.62231,1.46155,-3.23428,0.47007,0.42718,0.41206,0.71808,-0.36343,18.17957,-3.38746,-12.76322
-0.11148,1.64563,-0.04308,0.47303,-0.43963,0.35729,1.98736,-1.78185,-2.74359,0.92048,-3.53477,0.16842,0.42032,0.39460,0.73865,-0.34930,16.61471,-3.32028,-10.61801
-0.10453,1.63566,-0.03796,0.47802,-0.49535,0.35937,2.12498,-1.89164,-2.91273,-0.09807,-3.61243,-0.14453,0.41142,0.37571,0.76109,-0.33215,10.89395,-6.18100,-10.60222
-0.09824,1.62557,-0.03308,0.47263,-0.54196,0.35750,2.13625,-2.05370,-3.04481,-0.65472,-3.37535,-0.32544,0.40157,0.35983,0.78221,-0.31212,1.71503,-9.57668,-11.22584
-0.09255,1.61497,-0.02836,0.45935,-0.58670,0.35374,2.06889,-2.23033,-3.19459,-1.14531,-3.18858,-0.36488,0.39158,0.34529,0.80250,-0.28886,-4.42018,-9.60388,-12.59181
-0.08733,1.60393,-0.02382,0.44244,-0.62896,0.34827,2.01291,-2.35455,-3.34487,-1.34402,-2.87762,-0.35499,0.38182,0.32986,0.82180,-0.26467,-5.81642,-7.50584,-13.00386
-0.08235,1.59242,-0.01937,0.42500,-0.66878,0.34227,2.15747,-2.35426,-3.42789,-1.53353,-2.44406,-0.09353,0.37134,0.30861,0.84079,-0.24483,3.71354,-3.02815,-9.06996
-0.07764,1.58050,-0.01505,0.40740,-0.70697,0.33570,2.56989,-2.24846,-3.35228,-1.49140,-2.64807,-0.39414,0.35820,0.27992,0.85942,-0.23396,26.38850,-1.00964,7.39071
-0.07334,1.56792,-0.01090,0.38749,-0.74731,0.32821,3.07634,-2.15969,-3.18587,-1.52589,-3.03493,-0.62554,0.34182,0.24716,0.87753,-0.22807,34.87906,-2.83228,16.76663
-0.06968,1.55416,-0.00717,0.36170,-0.79711,0.31558,3.44057,-2.17589,-3.04941,-1.30343,-3.58611,-1.30051,0.32312,0.21569,0.89472,-0.22035,24.15375,-8.32865,14.39642
-0.06600,1.53983,-0.00404,0.34120,-0.84527,0.29632,3.50456,-2.23130,-3.09336,-1.47044,-3.76836,-1.88264,0.30673,0.18858,0.91022,-0.20459,6.26141,-6.07269,-1.48582
-0.06271,1.52496,-0.00151,0.31965,-0.89105,0.27271,3.52350,-2.27774,-3.17628,-2.08161,-4.07315,-2.18286,0.29059,0.16157,0.92443,-0.18675,2.50253,-2.24421,-5.70409
-0.06126,1.50807,-0.00033,0.27515,-0.95784,0.23409,3.52563,-2.38078,-3.35800,-3.41560,-4.40510,-2.73333,0.27301,0.13385,0.93835,-0.16444,0.92296,-3.52602,-11.60602
-0.06113,1.49050,0.00007,0.21941,-1.02088,0.19105,3.62522,-2.46088,-3.54809,-4.54190,-4.51597,-3.23102,0.25433,0.10244,0.95123,-0.14140,4.00853,-2.87745,-14.22299
-0.06262,1.47200,-0.00085,0.15129,-1.08478,0.13733,3.94068,-2.54181,-3.65145,-5.36882,-4.29441,-4.10923,0.23236,0.06427,0.96284,-0.12169,18.52620,-7.97074,-8.71539
-0.06558,1.45305,-0.00315,0.07556,-1.14275,0.07428,4.34100,-2.65421,-3.68964,-5.60395,-3.88390,-4.71903,0.20710,0.02199,0.97251,-0.10418,26.02909,-13.84354,-1.09280
-0.06988,1.43381,-0.00683,-0.00453,-1.19174,0.00379,4.74023,-2.84103,-3.69089,-5.98987,-3.13490,-5.51254,0.17757,-0.02247,0.97997,-0.08734,25.94354,-19.48444,-0.55775
-0.07577,1.41484,-0.01224,-0.09147,-1.22698,-0.07791,4.95040,-3.04704,-3.76584,-6.36419,-2.14774,-6.61270,0.14667,-0.06397,0.98484,-0.06693,16.12997,-19.69758,-3.99173
-0.08242,1.39662,-0.01876,-0.17060,-1.24409,-0.15785,5.01491,-3.18364,-3.92566,-6.74626,-0.91368,-7.13680,0.11708,-0.10293,0.98687,-0.04234,7.07653,-9.16065,-14.26627
-0.09219,1.37905,-0.02918,-0.27893,-1.24657,-0.27884,5.12456,-3.39742,-4.09223,-6.93325,0.75925,-8.12908,0.08323,-0.14344,0.98602,-0.01645,5.63477,-8.98118,-14.60503
-0.10219,1.36303,-0.04134,-0.36977,-1.22641,-0.40214,5.29545,-3.64427,-4.12286,-6.25535,2.33583,-9.38344,0.04627,-0.18520,0.98160,0.00542,7.87394,-17.91751,-8.38981
-0.11131,1.34786,-0.05361,-0.42723,-1.19943,-0.49884,5.42886,-3.84374,-4.08661,-5.52589,3.32636,-10.00964,0.00908,-0.22606,0.97375,0.02501,7.20216,-20.72625,-4.31068
-0.12323,1.33641,-0.07367,-0.51261,-1.12223,-0.68809,5.66516,-4.24822,-3.93388,-4.13713,5.55916,-11.08116,-0.03648,-0.26963,0.96147,0.03922,4.87254,-26.91268,0.83010
-0.13391,1.32770,-0.09522,-0.56547,-1.01733,-0.86837,5.79447,-4.66237,-3.72829,-2.55868,7.92103,-11.64960,-0.08353,-0.31008,0.94570,0.05027,-0.03155,-30.36020,2.66612
-0.14348,1.32274,-0.11919,-0.59151,-0.87439,-1.05319,5.77524,-5.03898,-3.51509,-0.59154,10.14192,-11.79812,-0.13071,-0.34575,0.92728,0.05932,-8.89643,-26.34786,0.78614
-0.15156,1.31869,-0.14269,-0.58853,-0.74797,-1.18957,5.72239,-5.21501,-3.36024,1.22253,11.15283,-11.33834,-0.17367,-0.37965,0.90605,0.06909,-11.36361,-20.57828,2.58438
-0.15778,1.31903,-0.16903,-0.55795,-0.58361,-1.33836,5.61785,-5.35878,-3.14767,3.22251,12.73405,-10.22500,-0.21534,-0.41067,0.88277,0.07547,-12.31587,-12.09229,5.63428
-0.16234,1.32125,-0.19524,-0.50976,-0.42838,-1.45264,5.48199,-5.53575,-2.89276,4.66144,13.70854,-8.87363,-0.25723,-0.43915,0.85727,0.07788,-17.90406,-13.91390,8.42856
-0.16344,1.33027,-0.22406,-0.41905,-0.20310,-1.58017,5.20183,-6.02713,-2.49868,6.34365,15.08731,-6.85000,-0.30705,-0.46229,0.82895,0.06967,-26.38094,-28.35108,5.44103
-0.16266,1.34157,-0.25152,-0.31825,0.01184,-1.66282,4.79073,-6.71160,-2.18854,7.67819,16.02299,-4.64768,-0.36392,-0.47872,0.79699,0.05652,-36.68793,-42.59106,-6.65520
-0.16050,1.35442,-0.27758,-0.21945,0.20196,-1.70677,4.27925,-7.41171,-2.01085,8.76646,16.28817,-2.47642,-0.42455,-0.48752,0.76184,0.04093,-44.11526,-50.58827,-21.39539
-0.15499,1.37202,-0.30232,-0.09310,0.41948,-1.71972,3.45872,-8.14626,-1.91379,9.38844,15.34591,0.52928,-0.48956,-0.48215,0.72627,0.01952,-53.01412,-44.22259,-35.63022
-0.14674,1.39303,-0.32424,0.04944,0.64577,-1.68858,2.24627,-8.77209,-2.05356,8.81652,13.60106,3.05030,-0.55607,-0.45769,0.69376,-0.00331,-59.21094,-28.28858,-52.93073
-0.13937,1.41283,-0.34462,0.14917,0.80752,-1.64259,1.23033,-8.94252,-2.34466,8.70519,13.74700,4.31207,-0.61352,-0.42831,0.66315,-0.01905,-57.00697,-9.65086,-69.29778
-0.12943,1.43785,-0.36305,0.26467,1.01015,-1.57628,0.05031,-9.06889,-2.80019,8.10131,15.84534,5.25023,-0.67069,-0.38343,0.63396,-0.03536,-48.66582,8.34152,-73.34235
-0.11763,1.46853,-0.37968,0.38408,1.25546,-1.49809,-1.21579,-9.37594,-3.49815,8.33496,20.39174,5.95654,-0.73117,-0.32154,0.59933,-0.05294,-44.90702,-2.93030,-87.79784
-0.10330,1.50706,-0.39484,0.51653,1.56605,-1.41508,-2.44120,-10.04409,-4.54678,9.82252,24.24771,5.90304,-0.79723,-0.24028,0.54941,-0.06953,-35.29384,-37.96867,-110.56180
-0.08599,1.55277,-0.40905,0.66479,1.91630,-1.33384,-3.50087,-10.76178,-5.82713,11.35076,26.23035,5.73353,-0.85860,-0.14340,0.48546,-0.08105,-20.19865,-57.31815,-113.08660
-0.06361,1.60871,-0.42169,0.86080,2.35249,-1.24589,-4.39267,-11.10293,-7.58622,14.83411,29.16681,5.98802,-0.90516,-0.02724,0.41726,-0.07638,7.25209,-55.26445,-114.78520
-0.03678,1.66991,-0.43390,1.08645,2.78366,-1.16895,-4.65459,-10.52185,-9.25152,20.00332,32.36510,6.45064,-0.92662,0.08408,0.36287,-0.05126,61.09456,-27.11716,-106.89660
-0.00097,1.73835,-0.44556,1.39976,3.23020,-1.09775,-4.07100,-9.68664,-10.74341,30.07996,37.84097,10.38517,-0.93280,0.18418,0.30976,-0.00368,107.76200,-70.27041,-39.88122
0.04562,1.81457,-0.45256,1.80338,3.69424,-0.97439,-3.62722,-8.23462,-12.19808,39.07026,39.36984,12.46249,-0.91399,0.29142,0.27817,0.04814,139.49120,28.78520,-87.69517
0.11766,1.90614,-0.45129,2.50345,4.29004,-0.75323,-1.73896,-6.20058,-13.95379,49.85002,34.76173,17.79505,-0.86897,0.38931,0.26731,0.14788,184.94080,-42.97730,-49.67058
0.20371,1.99627,-0.44262,3.27435,4.74323,-0.46293,1.14051,-4.58403,-15.02738,61.79964,29.26446,26.60888,-0.80657,0.45723,0.25736,0.27232,209.91040,-107.15730,-16.20136
0.28694,2.07054,-0.42833,3.94352,5.01067,-0.16459,3.83622,-3.72631,-15.75516,75.29013,24.08285,35.79581,-0.72502,0.50902,0.23459,0.40025,199.66040,-183.80270,-9.53667
0.38731,2.12950,-0.37676,5.45699,5.22500,0.64174,7.92514,-3.25203,-17.55081,94.86505,-2.57845,52.08474,-0.57461,0.54668,0.19848,0.57582,156.22790,-200.55670,-90.98560
0.50356,2.16752,-0.31716,6.84712,4.93357,1.50241,9.19379,-3.65853,-20.16795,107.84600,-40.81081,68.59251,-0.39768,0.60908,0.10503,0.67811,74.24432,-71.57360,-166.12500
0.64330,2.15863,-0.23482,8.31597,3.94872,2.57662,9.87267,-3.02631,-23.70437,102.34570,-104.71860,82.97829,-0.15897,0.67199,0.00113,0.72330,145.21230,8.30192,-217.12780
0.78226,2.07248,-0.13526,9.47702,1.96916,3.74770,11.26134,-1.00814,-25.86559,56.73693,-179.19240,81.40594,0.09973,0.69284,-0.05602,0.71196,208.88070,-51.18230,-140.52300
0.87590,1.90384,-0.03642,9.78062,-0.92153,4.72771,14.00274,0.59741,-25.00154,-16.28262,-230.11710,55.06157,0.32221,0.64901,-0.04483,0.68772,78.81682,-204.59810,-41.93104
0.89556,1.68018,0.03555,8.99307,-4.24117,5.16775,17.44177,2.36193,-23.19884,-93.01769,-240.67640,2.50649,0.53373,0.57492,0.01095,0.62006,11.13502,-253.78780,-82.83312
0.86170,1.45938,0.06599,7.43740,-7.01629,4.92142,22.07188,4.96907,-20.64281,-159.57830,-221.37290,-49.94468,0.73567,0.47320,0.12054,0.46940,117.47910,-337.04060,-162.39420
0.73117,1.23401,0.03062,4.79139,-9.67915,3.86650,31.18355,6.48240,-15.06712,-211.72430,-163.90590,-101.30530,0.88232,0.24579,0.34903,0.19817,241.23390,-344.38990,-574.60680
0.52127,1.06704,-0.08890,1.21808,-11.48078,1.66870,40.27235,-0.59382,-12.88343,-227.13370,-39.19735,-166.74040,0.85677,-0.20901,0.46851,-0.05246,448.00400,337.59670,-622.22200
0.57189,0.88989,-0.15104,-1.56853,-10.92913,-0.68529,39.02340,-8.11351,-12.18077,-161.89480,100.55760,-139.43360,0.70969,-0.48993,0.48835,-0.13348,206.74700,466.49540,-328.94880
0.57813,0.82833,-0.20668,-2.99121,-9.03403,-2.07684,27.49780,-6.45353,-15.06697,-56.77495,138.23800,-46.20985,0.73770,-0.54532,0.39791,0.00997,-207.87740,668.66560,314.04270
0.56912,0.80608,-0.21875,-3.28587,-7.26023,-2.21437,17.45984,-1.61560,-13.59738,13.04831,117.05620,15.08866,0.81068,-0.47391,0.31383,0.14042,-271.14320,549.02860,739.61210
0.55619,0.77539,-0.21459,-3.13180,-6.14783,-1.88659,13.43716,-2.39996,-9.35396,27.50219,80.52464,35.16140,0.80499,-0.44430,0.36830,0.13764,-429.25540,90.57299,337.82150
0.54308,0.74354,-0.19361,-2.88889,-5.32904,-1.32539,9.57354,-6.02037,-6.14603,9.85492,43.09924,43.65134,0.73273,-0.43840,0.50110,0.14075,-417.91380,-221.58440,-46.77994
0.51692,0.70645,-0.15996,-2.79039,-4.76966,-0.64606,3.78350,-5.49531,-5.39909,-2.81008,27.75005,37.79525,0.69096,-0.40110,0.54460,0.25514,-349.44150,123.18620,-89.86029
0.47983,0.65929,-0.13865,-2.80392,-4.48565,-0.24261,0.51575,-3.28590,-4.87782,-3.60410,25.14476,29.88118,0.68569,-0.36391,0.52982,0.34160,-233.90360,274.88440,-19.27457
0.43723,0.62161,-0.11462,-2.88560,-4.12629,0.10801,-2.02401,-0.87749,-4.57079,-6.88854,29.81300,21.37073,0.68379,-0.31878,0.49419,0.43196,-136.39600,238.14770,-11.73309
0.39675,0.60286,-0.09545,-2.98433,-3.68825,0.34190,-3.11770,1.30285,-4.77896,-4.89145,34.06474,13.90917,0.68432,-0.29499,0.43615,0.50444,-45.79379,185.57820,-44.44939
0.35223,0.58720,-0.07840,-3.02730,-3.17039,0.52004,-3.58083,2.67562,-4.98161,1.83930,31.87923,9.96638,0.67833,-0.28149,0.38239,0.56073,1.34398,99.74709,-39.35981
0.31248,0.56798,-0.06414,-2.99017,-2.80666,0.62166,-3.87341,3.09946,-4.91798,6.17701,29.44047,7.78716,0.66256,-0.27189,0.34863,0.60461,-9.18425,49.67292,-12.81876
0.27905,0.55633,-0.04888,-2.87133,-2.41390,0.71599,-4.31395,3.32883,-4.42093,11.44924,27.04423,5.92827,0.64473,-0.24913,0.32630,0.64481,-12.75162,33.88935,20.95552
0.25333,0.55028,-0.03428,-2.66309,-2.01479,0.78206,-4.87157,3.78400,-3.42434,14.09823,23.49550,1.94023,0.63017,-0.20417,0.30962,0.68216,-14.88368,46.16914,55.58083
0.22675,0.53748,-0.02312,-2.51281,-1.79666,0.78555,-4.97939,4.38402,-2.72160,15.08581,21.38529,-1.56074,0.62147,-0.16070,0.28243,0.71287,7.54800,73.61314,48.65092
0.21210,0.54018,-0.01592,-2.21674,-1.40059,0.69380,-4.49975,5.52757,-1.57604,14.43245,20.49717,-8.63861,0.63402,-0.09677,0.24671,0.72649,45.98351,67.99779,26.17223
0.19269,0.53854,-0.01043,-2.04958,-1.14726,0.58057,-3.86113,5.93563,-1.12716,13.70336,22.11325,-12.70986,0.64030,-0.05694,0.21276,0.73588,61.73637,48.92278,4.25808
0.17717,0.54697,-0.01282,-1.86830,-0.80510,0.36551,-2.67505,6.17409,-0.99314,8.75592,20.97311,-16.59888,0.65833,-0.03007,0.17328,0.73189,68.09408,9.21836,-12.90145
0.15790,0.55277,-0.02306,-1.76747,-0.54942,0.12924,-1.11637,6.30226,-1.57701,5.66082,16.21759,-17.30699,0.68479,-0.02471,0.11781,0.71873,83.15587,4.03076,-74.70211
0.13660,0.55557,-0.03298,-1.72036,-0.39582,-0.04919,0.12115,5.74113,-2.18316,4.49001,9.60933,-13.15014,0.70645,-0.03705,0.07429,0.70288,78.30330,-34.02092,-97.32162
0.11624,0.55900,-0.04362,-1.66715,-0.26440,-0.20000,0.90753,3.61051,-2.18777,5.94192,5.69230,-6.57303,0.71898,-0.07553,0.08167,0.68608,37.80313,-123.70940,-37.32328
0.09733,0.56110,-0.04970,-1.60458,-0.17945,-0.25226,0.80581,1.36449,-1.54548,6.54109,6.38648,-2.66464,0.71478,-0.10667,0.12117,0.68047,-7.83308,-178.96020,31.04807
0.08181,0.56553,-0.05387,-1.50473,-0.07904,-0.26583,0.33427,-0.92695,-0.83826,7.08445,7.20389,1.10852,0.69724,-0.14301,0.17995,0.67899,-43.48237,-182.48170,48.59775
0.06948,0.57095,-0.05525,-1.37951,0.01545,-0.23456,-0.25825,-2.26688,-0.55521,8.15287,6.42708,4.95031,0.67422,-0.17272,0.22100,0.68319,-47.59559,-111.60490,24.29152
0.06107,0.57735,-0.05418,-1.22104,0.10446,-0.17203,-0.90710,-2.66898,-0.45223,12.14395,6.63301,4.92873,0.65029,-0.18860,0.24390,0.69431,-47.96873,-46.33341,0.57918
0.05704,0.58469,-0.05227,-1.03023,0.18831,-0.11007,-1.35577,-2.38132,-0.63314,13.65757,5.90078,4.14770,0.63100,-0.19652,0.24650,0.70884,-43.13451,7.68615,-12.26273
0.06033,0.58923,-0.04867,-0.76873,0.21287,-0.03464,-1.33235,-0.82964,-0.21102,28.10292,-3.39578,9.12918,0.63438,-0.16456,0.23104,0.71910,-6.97720,50.30123,-10.71389
0.08790,0.58282,-0.04145,-0.20172,0.07162,0.07912,-0.64161,1.88790,0.57753,31.49858,-7.63288,4.59634,0.66531,-0.09102,0.18915,0.71645,48.39510,198.45110,36.62123
0.10489,0.57990,-0.03763,0.08960,0.01315,0.11914,-0.19369,3.41985,0.65494,19.52866,-2.02936,1.68677,0.68391,-0.04226,0.14798,0.71315,41.04711,151.10540,18.95365
0.12215,0.58090,-0.03518,0.32555,0.02658,0.13074,0.01158,4.60745,0.12892,9.81850,2.07288,-0.54999,0.69402,-0.00602,0.09358,0.71382,5.15451,77.65071,-36.17999
0.13224,0.58343,-0.03385,0.40937,0.05890,0.12402,-0.18567,4.55980,-0.00575,6.81971,1.87101,-1.17604,0.69164,0.01452,0.07026,0.71867,-17.16002,15.04934,-17.31124
0.14286,0.58562,-0.03312,0.48227,0.07855,0.10986,-0.41207,4.14257,0.05216,4.76109,0.74366,-1.38924,0.68653,0.02998,0.05972,0.72403,-16.76468,-26.74886,8.47550
0.15294,0.58693,-0.03270,0.53146,0.08148,0.09357,-0.55314,3.69616,0.13695,3.89410,-0.15993,-1.61146,0.68187,0.04306,0.05285,0.72829,-10.15886,-34.04313,10.11506
0.16359,0.58774,-0.03296,0.57807,0.07648,0.07123,-0.68973,3.02824,0.35456,3.22533,-0.58580,-1.91744,0.67597,0.05179,0.05720,0.73287,-5.73298,-43.92833,16.46596
0.17430,0.58839,-0.03399,0.61619,0.07022,0.04231,-0.76544,2.29553,0.67038,2.49552,-0.34259,-2.32608,0.67035,0.05866,0.06981,0.73643,-0.34727,-51.51546,25.28709
0.18481,0.58924,-0.03608,0.64435,0.06827,0.00344,-0.74948,1.62233,0.92572,1.42561,0.11066,-2.92563,0.66613,0.06301,0.08467,0.73833,5.25395,-49.68105,23.85376
0.19490,0.59019,-0.03900,0.66096,0.06808,-0.03938,-0.68733,1.10688,1.02688,0.57282,0.12164,-3.07814,0.66304,0.06535,0.09644,0.73946,7.35077,-39.44453,13.07193
0.20457,0.59097,-0.04222,0.66868,0.06558,-0.07740,-0.59673,0.82354,0.96326,0.39608,-0.18752,-3.02621,0.66145,0.06716,0.10158,0.74003,8.41694,-27.92815,-0.52340
0.21448,0.59244,-0.04713,0.67972,0.06570,-0.13280,-0.45904,0.67311,0.78885,0.71669,0.16876,-3.56690,0.66196,0.06776,0.10181,0.73949,9.31624,-11.81784,-10.72913
0.22418,0.59559,-0.05245,0.69139,0.07033,-0.18538,-0.31813,0.70070,0.62378,0.93272,-0.03298,-3.76434,0.66369,0.07152,0.09785,0.73813,8.49808,-0.23722,-12.44342
0.23407,0.59820,-0.05804,0.70267,0.07080,-0.23021,-0.18055,0.77990,0.50427,1.03917,-0.34576,-3.69005,0.66625,0.07694,0.09285,0.73591,10.17728,5.41195,-11.37289
0.24490,0.59960,-0.06544,0.72042,0.06669,-0.29069,0.03391,0.95052,0.34676,1.31438,-0.26553,-3.86961,0.67190,0.08335,0.08396,0.73114,12.39557,10.79046,-11.04114
0.25637,0.60028,-0.07316,0.74135,0.06311,-0.34352,0.19292,1.02403,0.34577,1.99095,-0.57945,-3.85939,0.67664,0.09106,0.07973,0.72630,10.81932,8.28385,-5.98568
0.26772,0.60086,-0.08005,0.75594,0.05906,-0.37271,0.30104,1.01356,0.44419,2.12678,-0.80044,-3.72355,0.68050,0.09948,0.07987,0.72156,11.81893,2.92995,3.81376
0.28112,0.60037,-0.08998,0.79519,0.04070,-0.43764,0.62827,0.98140,0.80665,1.83463,-1.04350,-2.81786,0.68955,0.11335,0.08874,0.70978,17.95276,-2.43590,17.59318
0.29392,0.60015,-0.09855,0.81992,0.02951,-0.47303,0.84915,1.07375,0.97371,1.44245,-0.36204,-1.97631,0.69767,0.12720,0.09123,0.69911,17.74187,3.99536,13.36914
0.30678,0.60060,-0.10683,0.84123,0.03036,-0.49757,0.95170,1.31489,1.03129,0.91527,0.48220,-0.79511,0.70437,0.14353,0.08767,0.68962,7.58878,14.23114,5.58577
0.31925,0.60174,-0.11418,0.85187,0.04109,-0.50331,0.91400,1.58159,1.00356,0.49760,1.00061,0.19989,0.70843,0.16020,0.08011,0.68268,-2.03942,18.71334,-0.00741
0.33143,0.60362,-0.12051,0.85653,0.06059,-0.49304,0.74846,1.80580,0.98964,0.20066,1.63826,1.38208,0.70908,0.17762,0.07182,0.67860,-10.03127,16.20366,0.24083
0.34331,0.60625,-0.12575,0.85625,0.08698,-0.46916,0.47831,2.01123,0.97926,-0.25506,1.97241,2.08379,0.70626,0.19598,0.06225,0.67743,-18.99703,13.31066,2.71971
0.35485,0.60938,-0.13020,0.85001,0.11527,-0.43828,0.19446,2.20221,0.98195,-0.59594,2.10100,2.30747,0.70151,0.21538,0.05174,0.67736,-21.20898,13.17196,2.94937
0.36584,0.61320,-0.13399,0.83754,0.14797,-0.40411,-0.06911,2.32695,1.03412,-1.15064,2.61076,2.53493,0.69522,0.23522,0.04271,0.67788,-19.30803,8.35492,5.87841
0.37743,0.61877,-0.13815,0.82044,0.18910,-0.37012,-0.35185,2.46306,1.06002,-1.88419,3.21261,2.84989,0.68698,0.25551,0.03186,0.67953,-18.56607,7.43119,6.57018
0.39146,0.62751,-0.14457,0.80417,0.24078,-0.34254,-0.68573,2.62878,1.01771,-2.35343,3.87629,2.89157,0.67613,0.27569,0.01698,0.68305,-23.85968,9.67931,1.69969
0.40433,0.63774,-0.15067,0.78151,0.30392,-0.31475,-1.05576,2.75828,0.98898,-2.60625,4.62829,2.76957,0.66225,0.29578,0.00134,0.68844,-26.62594,8.69489,1.16174
0.41211,0.64627,-0.15284,0.74174,0.37110,-0.27841,-1.45214,2.86646,0.98130,-3.07011,5.01733,2.52565,0.64532,0.31615,-0.01454,0.69527,-28.07545,5.22250,5.51154
0.41602,0.65255,-0.15276,0.69379,0.42522,-0.24569,-1.78839,2.98325,0.93217,-3.40299,4.83583,1.88385,0.62750,0.33605,-0.03236,0.70161,-29.65904,7.25905,2.72352
0.41822,0.65953,-0.15196,0.63401,0.48336,-0.21742,-2.12335,3.12062,0.85838,-3.57120,4.25485,1.04829,0.60756,0.35578,-0.05280,0.70817,-26.53331,8.25004,-0.57850
0.42096,0.66865,-0.15266,0.57003,0.54043,-0.20264,-2.39428,3.30369,0.74374,-3.85435,3.34322,0.26178,0.58738,0.37535,-0.07633,0.71293,-19.64182,9.08474,-3.81096
0.42398,0.67782,-0.15431,0.51311,0.57815,-0.19789,-2.56209,3.44248,0.60144,-3.98460,2.40009,-0.10487,0.56831,0.39326,-0.10049,0.71573,-16.24663,8.90554,-8.11076
0.42614,0.68678,-0.15581,0.45340,0.60451,-0.19348,-2.66045,3.47608,0.46226,-4.16405,1.63376,0.05424,0.55015,0.40845,-0.12317,0.71787,-10.29383,2.46643,-8.53397
0.42731,0.69622,-0.15745,0.38615,0.62442,-0.18585,-2.72224,3.37334,0.32905,-3.91642,0.86511,0.42750,0.53272,0.41988,-0.14352,0.72063,-6.82358,-6.43247,-7.53801
0.42855,0.70511,-0.15824,0.33855,0.63310,-0.17267,-2.71113,3.17866,0.32818,-3.43741,0.45735,0.83669,0.51564,0.43078,-0.15836,0.72351,-1.05341,-12.47309,-1.13307
0.42896,0.71393,-0.15807,0.28969,0.63917,-0.15190,-2.61524,2.85122,0.46451,-2.95040,0.23908,1.24009,0.49966,0.44034,-0.16525,0.72741,8.04373,-20.05901,9.92839
0.42932,0.72282,-0.15780,0.24351,0.64198,-0.12666,-2.42455,2.41455,0.74854,-2.57769,-0.07337,1.43416,0.48495,0.44934,-0.16321,0.73231,15.89705,-23.30058,18.67134
0.42990,0.73144,-0.15753,0.20737,0.63830,-0.10463,-2.24379,2.06209,0.97365,-2.62361,-0.34999,1.47764,0.47063,0.45813,-0.16088,0.73671,17.43754,-22.72150,19.94618
0.42995,0.73965,-0.15726,0.16934,0.62903,-0.08575,-2.15194,1.80408,1.06130,-2.87162,-0.70071,1.38966,0.45609,0.46529,-0.16170,0.74118,12.70826,-18.35638,11.54324
0.43001,0.74745,-0.15741,0.13664,0.61490,-0.07236,-2.17141,1.66057,1.02963,-2.74757,-1.39778,1.17326,0.44022,0.47136,-0.16738,0.74566,1.85783,-13.85492,2.26583
0.42935,0.75424,-0.15728,0.10070,0.58826,-0.05846,-2.22076,1.52294,0.91999,-2.55797,-2.29129,0.82720,0.42465,0.47504,-0.17536,0.75051,-3.86429,-11.33055,-4.70864
0.42804,0.75954,-0.15723,0.06183,0.54516,-0.04791,-2.20286,1.37763,0.78110,-2.34640,-3.15440,0.37299,0.41147,0.47725,-0.18327,0.75455,-0.72302,-9.96548,-7.28617
0.42691,0.76455,-0.15734,0.03417,0.50544,-0.04335,-2.11621,1.28015,0.67907,-2.30457,-3.59699,0.18042,0.39995,0.48040,-0.19012,0.75704,5.43955,-9.79207,-6.87881
0.42533,0.76860,-0.15756,0.00644,0.46002,-0.04188,-2.01676,1.21138,0.52755,-2.39790,-3.99949,-0.01991,0.39034,0.48274,-0.19846,0.75843,8.06606,-7.96029,-10.19919
0.42267,0.77040,-0.15792,-0.03097,0.39148,-0.04293,-1.89765,1.16930,0.21774,-2.40842,-4.46349,-0.10333,0.38477,0.48273,-0.21124,0.75783,6.43122,-5.40410,-18.11312
0.41978,0.77169,-0.15834,-0.06264,0.32718,-0.04324,-1.81449,1.16021,-0.11412,-2.03332,-4.74568,0.11144,0.37993,0.48203,-0.22673,0.75624,3.58377,-3.76435,-23.84851
0.41677,0.77177,-0.15819,-0.08942,0.25663,-0.03511,-1.58115,1.07063,-0.35377,-1.03364,-4.41767,0.52950,0.37942,0.48085,-0.23796,0.75379,9.82160,-6.63430,-19.54163
0.41438,0.77174,-0.15776,-0.10506,0.20017,-0.02202,-1.09074,0.86773,-0.25037,-0.72850,-3.34719,0.58783,0.38281,0.48285,-0.23530,0.75163,27.90641,-12.39266,2.54337
0.41224,0.77250,-0.15763,-0.11453,0.16761,-0.01473,-0.64914,0.69708,-0.06525,-0.64650,-2.45565,0.52575,0.38605,0.48646,-0.22884,0.74963,37.37962,-14.00953,12.82509
0.41007,0.77313,-0.15744,-0.12228,0.14028,-0.00807,-0.16529,0.53106,0.17234,-0.36561,-1.48001,0.62969,0.39160,0.49150,-0.21720,0.74693,37.45986,-12.26388,16.01162
0.40801,0.77407,-0.15719,-0.12634,0.12333,-0.00171,0.14387,0.42496,0.34818,-0.16841,-0.65399,0.64323,0.39516,0.49641,-0.20734,0.74461,26.60523,-8.14089,13.22528
0.40597,0.77565,-0.15700,-0.12695,0.11693,0.00417,0.26654,0.39802,0.45886,0.15064,0.12780,0.65508,0.39565,0.50141,-0.20093,0.74275,11.61163,-2.86506,8.06334
0.40423,0.77751,-0.15677,-0.12410,0.11727,0.00857,0.16793,0.45180,0.44125,0.33220,0.32755,0.62262,0.39236,0.50552,-0.20140,0.74158,-2.91413,2.11035,1.97603
0.40275,0.77953,-0.15643,-0.11841,0.12008,0.01329,-0.02560,0.53564,0.35257,0.61893,0.46135,0.51767,0.38699,0.50885,-0.20640,0.74075,-14.34914,5.98663,-5.53205
0.40163,0.78224,-0.15607,-0.10748,0.13021,0.01813,-0.37631,0.68046,0.21297,0.77979,0.88488,0.35454,0.37720,0.51176,-0.21752,0.74061,-20.85574,8.03970,-7.46243
0.40057,0.78505,-0.15585,-0.09857,0.14100,0.01929,-0.71576,0.79946,0.10283,0.82018,0.96554,0.07692,0.36568,0.51423,-0.22971,0.74100,-27.33028,9.36189,-8.17444
0.39987,0.78829,-0.15570,-0.08710,0.15595,0.01895,-1.05756,0.89889,0.02838,0.94633,0.91939,-0.22027,0.35182,0.51623,-0.24300,0.74208,-27.67770,7.82979,-6.44291
0.39928,0.79197,-0.15583,-0.07495,0.17214,0.01561,-1.23706,0.92487,0.08714,0.69457,0.59223,-0.47788,0.33872,0.51903,-0.25085,0.74361,-13.90171,2.71549,3.10168
0.39860,0.79515,-0.15612,-0.06737,0.17942,0.00984,-1.21395,0.89199,0.17999,0.44438,0.10261,-0.61540,0.32953,0.52237,-0.25395,0.74434,-1.05984,-1.26082,6.80663
0.39785,0.79792,-0.15667,-0.06290,0.17949,0.00176,-1.10023,0.84124,0.25427,0.22687,-0.22778,-0.56507,0.32303,0.52585,-0.25503,0.74438,8.08876,-2.89644,5.52161
0.39700,0.80038,-0.15739,-0.06016,0.17353,-0.00623,-0.98538,0.77919,0.30035,0.18808,-0.63191,-0.43635,0.31756,0.52880,-0.25569,0.74441,9.35020,-4.09624,4.15383
0.39629,0.80191,-0.15816,-0.05617,0.15572,-0.01415,-0.87860,0.69387,0.25416,0.23126,-1.23552,-0.34510,0.31412,0.53008,-0.25778,0.74424,5.95687,-4.51254,-2.14239
0.39559,0.80335,-0.15893,-0.05294,0.13934,-0.01914,-0.82198,0.63835,0.19238,0.31323,-1.51765,-0.31636,0.31029,0.53111,-0.26114,0.74394,5.02898,-4.95575,-4.42398
0.39501,0.80419,-0.15987,-0.04837,0.11687,-0.02495,-0.74435,0.58514,0.10355,0.39483,-1.78168,-0.35833,0.30806,0.53173,-0.26484,0.74312,4.60323,-4.40399,-5.85138
0.39463,0.80435,-0.16084,-0.04244,0.09109,-0.03154,-0.67798,0.55311,-0.00818,0.49191,-1.89027,-0.41215,0.30662,0.53219,-0.26955,0.74169,5.19982,-2.94912,-7.42171
0.39426,0.80451,-0.16208,-0.03719,0.06807,-0.03876,-0.64860,0.54839,-0.12044,0.44758,-1.95088,-0.48220,0.30488,0.53266,-0.27552,0.73987,2.89514,-1.67439,-8.88667
