posX, posY, posZ, velX, velY, velZ, angVelX, angVelY, angVelZ, accX, accY, accZ, rotX, rotY, rotZ, rotW, angAccX, angAccY, angAccZ
0.41403,1.13887,-0.37486,-0.06016,0.35084,-0.26639,1.04031,0.11124,0.51213,-0.93563,2.09569,-2.66570,0.00492,0.70755,-0.20269,0.67695,-7.21010,1.44790,3.06880
0.41249,1.14570,-0.38076,-0.07340,0.38507,-0.30238,1.29772,0.24820,0.53067,-0.81778,2.18904,-2.79815,0.01090,0.71376,-0.18943,0.67420,12.98058,8.02148,2.60715
0.41094,1.15275,-0.38698,-0.08389,0.41540,-0.33461,1.67317,0.43177,0.52568,-0.88134,2.52957,-2.79107,0.02056,0.72245,-0.17253,0.66923,26.87171,14.23382,0.32147
0.40906,1.16067,-0.39408,-0.09752,0.45293,-0.37312,2.07377,0.63727,0.51598,-1.17835,2.99973,-2.67170,0.03245,0.73278,-0.15302,0.66224,31.90349,16.98763,0.18024
0.40682,1.16920,-0.40171,-0.11341,0.49090,-0.41175,2.19808,0.73916,0.49257,-1.43690,2.99480,-2.55608,0.04124,0.74066,-0.13778,0.65631,14.78359,10.69888,-0.08897
0.40446,1.17806,-0.40952,-0.12845,0.52615,-0.44420,2.15492,0.78554,0.49897,-1.21846,3.27489,-2.70906,0.04679,0.74694,-0.12528,0.65130,-1.39534,3.36436,-1.91158
0.40165,1.18807,-0.41815,-0.14729,0.57136,-0.48130,2.14249,0.84201,0.53870,-1.51074,3.14340,-2.68562,0.05172,0.75355,-0.11157,0.64578,-3.98223,3.29141,4.67461
0.39813,1.19927,-0.42737,-0.17302,0.62544,-0.52063,2.31818,0.96433,0.55198,-1.76010,3.31553,-2.47835,0.06050,0.76211,-0.09406,0.63772,8.24095,7.16077,1.08470
0.39424,1.21090,-0.43662,-0.19864,0.67439,-0.55269,2.62757,1.14128,0.55213,-1.88723,3.52052,-2.38213,0.07262,0.77224,-0.07278,0.62695,19.26689,11.51190,0.96983
0.39001,1.22297,-0.44592,-0.22342,0.71831,-0.57790,2.91059,1.32235,0.56697,-2.31835,3.82722,-1.88171,0.08517,0.78279,-0.05001,0.61440,24.44782,16.56240,1.47661
0.38449,1.23668,-0.45563,-0.26311,0.77877,-0.60406,3.17635,1.50207,0.61451,-2.71278,4.00773,-1.20342,0.09766,0.79344,-0.02539,0.60023,18.44951,12.24778,3.26309
0.37872,1.25058,-0.46490,-0.30058,0.83254,-0.61729,3.34663,1.59040,0.67027,-2.88013,3.92016,-0.59281,0.10897,0.80223,-0.00130,0.58698,12.03957,6.95473,4.29471
0.37222,1.26534,-0.47373,-0.34125,0.88760,-0.62000,3.53062,1.66988,0.73916,-3.13531,4.03572,0.18662,0.12052,0.81049,0.02448,0.57270,13.22819,5.52315,4.15654
0.36483,1.28088,-0.48194,-0.38589,0.94126,-0.61281,3.65317,1.68039,0.82125,-3.42471,3.81342,0.89620,0.13095,0.81707,0.05048,0.55919,11.22907,1.61795,5.38391
0.35669,1.29694,-0.48963,-0.43350,0.99218,-0.59865,3.76321,1.68719,0.89411,-3.55923,3.54481,1.12789,0.14124,0.82278,0.07689,0.54513,6.71482,-1.61491,3.60261
0.34809,1.31320,-0.49693,-0.47670,1.03350,-0.58151,3.93659,1.72436,0.94599,-3.73823,3.28026,1.48346,0.15306,0.82795,0.10530,0.52914,12.29251,1.73488,4.24270
0.33798,1.33046,-0.50345,-0.53464,1.08187,-0.55593,4.08589,1.77969,1.01679,-3.65775,2.85287,1.88048,0.16424,0.83260,0.13458,0.51156,13.28471,4.14147,4.60691
0.32778,1.34737,-0.50986,-0.58234,1.11483,-0.53338,4.04375,1.77399,1.05088,-3.47812,2.05486,1.63584,0.17292,0.83605,0.15938,0.49570,-1.09089,-1.09590,2.79088
0.31695,1.36423,-0.51599,-0.62857,1.13887,-0.51149,4.00867,1.84164,1.04537,-3.26516,1.43320,1.43723,0.18232,0.83974,0.18302,0.47761,-3.94940,2.13169,1.52216
0.30531,1.38122,-0.52155,-0.67810,1.15889,-0.48565,4.00850,2.01483,1.00913,-3.09893,1.13370,1.69677,0.19316,0.84406,0.20613,0.45582,0.53304,9.69129,1.56965
0.29381,1.39803,-0.52705,-0.71385,1.17142,-0.46457,3.94961,2.15345,0.99611,-3.06892,1.01996,2.02759,0.20268,0.84793,0.22771,0.43368,-3.26241,12.37213,1.56827
0.28135,1.41495,-0.53184,-0.75638,1.18247,-0.43701,3.71531,2.21296,0.97927,-3.26336,0.70449,2.48113,0.20931,0.85170,0.24442,0.41360,-12.10560,6.94354,2.49799
0.26853,1.43174,-0.53628,-0.79426,1.18882,-0.41068,3.36390,2.15366,0.97078,-3.24719,0.47453,2.47525,0.21268,0.85484,0.25705,0.39741,-26.22518,-4.30619,2.11385
0.25404,1.44854,-0.53929,-0.85135,1.19428,-0.36650,2.89466,2.06559,0.97301,-3.26257,0.09495,2.38700,0.21287,0.85873,0.26484,0.38358,-27.20097,-8.24041,2.43068
0.23956,1.46512,-0.54211,-0.89554,1.19414,-0.32847,2.66720,2.07656,0.98380,-3.11712,-0.06228,2.75370,0.21530,0.86219,0.27585,0.36630,-19.01625,-1.85792,3.29918
0.22479,1.48165,-0.54428,-0.93314,1.19252,-0.28977,2.62337,2.14352,1.02134,-3.23231,-0.22612,3.25865,0.21899,0.86495,0.29005,0.34609,-8.20806,2.91209,3.36646
0.20872,1.49770,-0.54468,-0.98341,1.18362,-0.23125,2.64238,2.22047,1.07673,-2.99022,-0.93534,3.94292,0.22269,0.86708,0.30561,0.32431,2.03577,4.97116,5.22562
0.19291,1.51317,-0.54442,-1.01915,1.16768,-0.17379,2.71071,2.26834,1.06868,-2.32015,-1.45963,4.18803,0.22810,0.86766,0.32172,0.30272,2.09465,3.65738,0.69972
0.17725,1.52786,-0.54330,-1.04511,1.14407,-0.11439,2.82929,2.34678,1.00724,-1.57607,-1.93654,4.22555,0.23583,0.86693,0.33843,0.27978,7.53657,5.75764,-3.65693
0.16193,1.54215,-0.54184,-1.05912,1.11935,-0.06376,2.88879,2.39677,0.92125,-0.92983,-2.26308,4.49164,0.24407,0.86545,0.35378,0.25741,6.90023,8.10796,-6.04551
0.14660,1.55546,-0.53852,-1.06946,1.08381,0.00506,2.85343,2.39507,0.78173,-0.51523,-2.29696,4.48605,0.25298,0.86344,0.36629,0.23730,-4.16956,2.35614,-8.74922
0.13135,1.56842,-0.53474,-1.07650,1.05018,0.06701,2.83876,2.36461,0.69435,-0.41246,-2.50021,4.51844,0.26096,0.86058,0.37942,0.21760,-2.08559,-0.74444,-6.96002
0.11617,1.58106,-0.53064,-1.08048,1.01928,0.11902,2.81469,2.31027,0.64069,-0.17904,-2.62255,4.30251,0.26800,0.85717,0.39240,0.19862,-1.87577,-2.63150,-5.75891
0.10118,1.59253,-0.52501,-1.07979,0.97579,0.18316,2.74673,2.26119,0.57411,0.34437,-2.82983,3.85277,0.27508,0.85368,0.40377,0.18039,-4.26881,-2.98577,-3.66577
0.08668,1.60370,-0.51931,-1.07088,0.93613,0.23428,2.72149,2.23115,0.48952,0.75152,-3.01711,3.44879,0.28309,0.84921,0.41528,0.16201,-5.15159,-1.55224,-5.00263
0.07231,1.61432,-0.51359,-1.06214,0.89703,0.27325,2.73494,2.26084,0.35593,0.39191,-4.09641,2.86786,0.29362,0.84345,0.42663,0.14270,2.25791,-0.79494,-10.86312
0.05853,1.62421,-0.50733,-1.04570,0.85607,0.31131,2.60532,2.37903,0.25919,2.01687,-1.91836,2.66000,0.30430,0.83963,0.43310,0.12187,-9.58475,11.84095,-9.68314
0.04572,1.63393,-0.50035,-1.01730,0.81998,0.35173,2.45352,2.41930,0.21877,1.28285,-2.69231,2.25173,0.31269,0.83615,0.43887,0.10235,-10.08832,1.82693,1.45596
0.03249,1.64290,-0.49331,-1.00007,0.77803,0.38488,2.25333,2.40204,0.16553,1.14245,-2.54001,1.98539,0.32084,0.83286,0.44293,0.08492,-11.18826,1.86683,-1.79107
0.01953,1.65179,-0.48666,-0.98478,0.74687,0.40620,1.97404,2.32473,0.16290,1.09039,-2.00178,1.30623,0.32665,0.83114,0.44453,0.06995,-19.05294,-5.97914,0.92182
0.00683,1.66044,-0.48003,-0.97062,0.72049,0.42313,1.74289,2.32317,0.20843,0.82728,-1.65032,1.04627,0.33180,0.83003,0.44511,0.05327,-17.76240,-3.10532,4.51099
-0.00591,1.66895,-0.47310,-0.95864,0.69628,0.44077,1.61984,2.38781,0.28044,0.83109,-1.66005,1.32215,0.33697,0.82831,0.44634,0.03380,-9.84565,3.19708,7.13684
-0.01852,1.67711,-0.46597,-0.94688,0.67137,0.46037,1.50511,2.41774,0.35799,0.93371,-1.91664,1.61623,0.34122,0.82669,0.44714,0.01467,-6.34062,2.50997,7.00792
-0.03095,1.68503,-0.45857,-0.93495,0.64846,0.47967,1.38841,2.40551,0.40883,1.10292,-2.03379,1.81655,0.34511,0.82509,0.44734,-0.00315,-8.42636,-0.64046,5.69183
-0.04277,1.69196,-0.45016,-0.91515,0.61433,0.51097,1.28102,2.37001,0.44100,1.40075,-2.23661,2.17023,0.34874,0.82341,0.44718,-0.02004,-7.20068,-2.51986,3.01971
-0.05421,1.69856,-0.44119,-0.89356,0.58175,0.54292,1.21173,2.31137,0.44838,1.78551,-2.48942,2.48092,0.35240,0.82109,0.44759,-0.03609,-3.77107,-2.81508,1.01287
-0.06533,1.70489,-0.43193,-0.87203,0.55276,0.57172,1.08198,2.16459,0.44900,2.03824,-2.60886,2.60966,0.35474,0.81970,0.44708,-0.04867,-7.77776,-8.67659,1.20506
-0.07574,1.71041,-0.42181,-0.84407,0.51766,0.60729,0.93049,1.95216,0.44471,2.07907,-2.48556,2.58862,0.35583,0.81907,0.44627,-0.05796,-11.88052,-16.13394,0.36642
-0.08531,1.71507,-0.41076,-0.80834,0.47500,0.65010,0.85292,1.75248,0.41526,2.33888,-2.82955,2.71547,0.35711,0.81757,0.44680,-0.06653,-5.42756,-12.32222,-1.11581
-0.09482,1.71957,-0.39977,-0.77975,0.43982,0.68210,0.85716,1.64475,0.35975,2.23596,-2.91236,2.46698,0.35973,0.81467,0.44841,-0.07646,-2.59624,-11.40635,-3.80677
-0.10403,1.72326,-0.38861,-0.74890,0.40029,0.71419,1.01772,1.69837,0.27946,1.94485,-2.36884,1.92454,0.36488,0.80866,0.45243,-0.09077,6.15788,-1.24697,-7.33882
-0.11373,1.72653,-0.37823,-0.71952,0.36131,0.74198,1.33554,1.96138,0.22540,2.09723,-2.63364,1.72636,0.37235,0.79890,0.45871,-0.11270,20.81522,17.64240,-5.10487
-0.12333,1.72983,-0.36784,-0.69952,0.33189,0.75736,1.45643,2.06636,0.20601,2.15979,-2.74529,1.41577,0.37798,0.79107,0.46273,-0.13124,14.14534,13.74148,-3.20486
-0.13148,1.73213,-0.35641,-0.66941,0.29255,0.77263,1.41718,2.04739,0.20363,2.10141,-2.61922,0.71306,0.38211,0.78545,0.46444,-0.14616,-0.99621,-0.24902,-0.25458
-0.13890,1.73412,-0.34462,-0.63666,0.25477,0.78192,1.30682,1.99628,0.20924,2.06442,-2.34420,0.30479,0.38569,0.78109,0.46447,-0.15940,-7.12922,-3.47171,0.89557
-0.14636,1.73614,-0.33315,-0.61298,0.22740,0.78585,1.20985,1.94914,0.23377,2.06909,-2.38712,0.12042,0.38867,0.77699,0.46415,-0.17258,-6.70054,-3.44246,2.23353
-0.15311,1.73738,-0.32200,-0.58382,0.19510,0.78605,1.05347,1.86890,0.26455,2.16677,-2.40472,-0.13573,0.39104,0.77433,0.46226,-0.18390,-9.99693,-6.01606,3.28380
-0.15935,1.73809,-0.31092,-0.55348,0.16124,0.78417,0.87167,1.75466,0.28822,2.26122,-2.57772,-0.24356,0.39295,0.77274,0.45948,-0.19324,-12.06701,-7.64629,3.54254
-0.16535,1.73846,-0.29998,-0.52674,0.13052,0.78118,0.70849,1.62062,0.30263,2.29532,-2.61841,-0.38999,0.39443,0.77167,0.45665,-0.20106,-13.16804,-10.21340,2.08530
-0.17052,1.73777,-0.28948,-0.49191,0.09011,0.77368,0.52973,1.47070,0.30556,1.98490,-2.42425,-0.63820,0.39573,0.77153,0.45312,-0.20693,-11.89186,-11.03723,1.13662
-0.17569,1.73694,-0.27911,-0.46447,0.05647,0.76534,0.45829,1.40176,0.31512,1.83167,-2.23358,-0.76929,0.39717,0.77013,0.45055,-0.21487,-6.25018,-5.68641,0.79652
-0.18059,1.73580,-0.26912,-0.43882,0.02520,0.75285,0.43415,1.40339,0.32442,1.74338,-2.12000,-1.20567,0.39907,0.76789,0.44800,-0.22444,-2.38520,-2.55388,1.01863
-0.18574,1.73444,-0.25994,-0.41349,-0.00384,0.73298,0.43091,1.48310,0.31088,2.01635,-2.08299,-1.68796,0.40238,0.76456,0.44493,-0.23575,0.16406,4.79932,-0.32976
-0.19065,1.73275,-0.25140,-0.38667,-0.03189,0.70754,0.37241,1.56543,0.28849,2.22504,-2.17362,-1.91418,0.40657,0.76157,0.44030,-0.24669,-3.05226,6.70401,-1.18226
-0.19495,1.73066,-0.24323,-0.35896,-0.05962,0.68130,0.27756,1.61254,0.25855,2.12353,-1.93446,-1.86770,0.41114,0.75911,0.43469,-0.25645,-6.91881,4.14222,-1.29745
-0.19835,1.72830,-0.23528,-0.33286,-0.08466,0.65631,0.15633,1.58287,0.27198,1.90647,-1.74989,-1.69116,0.41426,0.75814,0.42852,-0.26455,-8.14472,-1.13180,1.40391
-0.20167,1.72589,-0.22732,-0.31170,-0.10452,0.63741,0.05954,1.53217,0.28517,1.64353,-1.54708,-1.48934,0.41693,0.75744,0.42249,-0.27193,-9.00218,-4.09192,2.50969
-0.20447,1.72302,-0.21978,-0.28703,-0.12705,0.61593,0.06781,1.56046,0.28689,1.28321,-1.04417,-1.32644,0.42003,0.75490,0.41757,-0.28167,-1.25796,-0.21037,0.31702
-0.20717,1.72031,-0.21264,-0.26554,-0.14256,0.59202,0.14794,1.72082,0.28147,1.33470,-0.76813,-1.70602,0.42439,0.74992,0.41260,-0.29542,5.48228,10.00660,-0.56203
-0.20981,1.71782,-0.20588,-0.24775,-0.15095,0.56702,0.19066,1.90326,0.29091,1.33563,-0.40796,-1.78389,0.42916,0.74466,0.40622,-0.31030,3.29713,12.61907,0.22123
-0.21218,1.71536,-0.19927,-0.22950,-0.15698,0.54552,0.26702,2.06916,0.29720,1.38663,-0.59212,-1.36079,0.43380,0.73833,0.40033,-0.32621,5.18976,13.11892,-0.36747
-0.21428,1.71268,-0.19269,-0.21110,-0.16542,0.52858,0.27190,2.06230,0.30683,1.63665,-0.75648,-1.11957,0.43710,0.73376,0.39485,-0.33857,2.23871,4.12205,0.00817
-0.21608,1.70986,-0.18614,-0.19186,-0.17397,0.51500,0.24028,1.93487,0.34300,1.49551,-0.56618,-0.88941,0.43854,0.73114,0.38987,-0.34803,-2.16604,-8.31707,1.90257
-0.21771,1.70702,-0.17958,-0.17467,-0.18094,0.50477,0.21422,1.77195,0.38754,1.57685,-0.60952,-0.90332,0.43878,0.72938,0.38553,-0.35616,-0.96966,-12.10347,3.56992
-0.21862,1.70401,-0.17355,-0.14953,-0.18905,0.48831,0.15429,1.49885,0.44212,1.64941,-0.44095,-1.21378,0.43718,0.72992,0.38208,-0.36071,-2.62265,-17.44076,3.97003
-0.21928,1.70108,-0.16783,-0.12570,-0.19395,0.47019,0.09056,1.29943,0.47577,1.73216,-0.20323,-1.29812,0.43609,0.73042,0.37809,-0.36519,-4.50629,-15.93012,3.83705
-0.21968,1.69815,-0.16217,-0.10344,-0.19775,0.45555,0.09284,1.22456,0.44378,1.67145,-0.19702,-1.05766,0.43665,0.72873,0.37477,-0.37127,-2.08793,-10.25199,-0.54849
-0.21952,1.69510,-0.15662,-0.07746,-0.20258,0.44280,0.18839,1.24175,0.33562,1.76235,-0.22927,-0.79277,0.43896,0.72391,0.37343,-0.37923,4.68278,0.10414,-6.91527
-0.21913,1.69201,-0.15106,-0.05375,-0.20683,0.43309,0.31565,1.27913,0.20437,1.68490,-0.23514,-0.66855,0.44201,0.71741,0.37348,-0.38790,8.43998,3.64626,-10.17251
-0.21845,1.68903,-0.14565,-0.03029,-0.20841,0.42276,0.42223,1.24544,0.10730,1.39833,-0.06743,-0.69064,0.44407,0.71153,0.37445,-0.39537,6.64171,-1.12616,-7.31525
-0.21800,1.68618,-0.14031,-0.01607,-0.20754,0.41387,0.47163,1.17776,0.08087,1.15358,0.07129,-0.85502,0.44489,0.70716,0.37471,-0.40199,4.80061,-4.05719,-4.27547
-0.21730,1.68348,-0.13548,-0.00097,-0.20446,0.39850,0.48191,1.02421,0.10867,0.93033,0.12964,-1.05964,0.44380,0.70494,0.37518,-0.40663,1.71246,-9.00360,0.63910
-0.21665,1.68081,-0.13088,0.01015,-0.20154,0.38257,0.44571,0.78250,0.18160,0.52841,0.13139,-0.95755,0.44083,0.70532,0.37569,-0.40872,-1.58330,-15.34303,3.77542
-0.21622,1.67807,-0.12623,0.01486,-0.20032,0.37114,0.43098,0.61668,0.24439,0.27891,0.12101,-0.97462,0.43774,0.70544,0.37611,-0.41144,-1.49575,-14.63692,4.89658
-0.21580,1.67541,-0.12207,0.01844,-0.19821,0.35410,0.40648,0.45817,0.30980,0.01153,0.17615,-1.09561,0.43405,0.70635,0.37646,-0.41345,-1.47983,-11.87543,4.48511
-0.21547,1.67278,-0.11804,0.01967,-0.19599,0.33851,0.42546,0.40943,0.33156,-0.02198,0.26182,-1.09574,0.43133,0.70557,0.37694,-0.41719,0.63577,-4.84163,1.91559
-0.21516,1.67024,-0.11414,0.02036,-0.19281,0.32493,0.45709,0.40721,0.32708,0.03393,0.31643,-1.16400,0.42923,0.70386,0.37758,-0.42164,2.51813,-0.68629,0.14581
-0.21489,1.66786,-0.11075,0.02012,-0.18753,0.30558,0.48280,0.35734,0.33516,0.03087,0.32986,-1.34542,0.42634,0.70279,0.37873,-0.42530,2.38164,-1.68914,-0.02398
-0.21469,1.66563,-0.10765,0.01867,-0.18111,0.28583,0.46180,0.25553,0.36109,-0.10060,0.47576,-1.55158,0.42282,0.70324,0.37958,-0.42731,-0.96623,-6.76497,1.90328
-0.21449,1.66350,-0.10485,0.01774,-0.17448,0.26603,0.42029,0.17208,0.37828,-0.07500,0.55641,-1.76738,0.41956,0.70406,0.38001,-0.42880,-2.35985,-7.80458,2.10195
-0.21427,1.66160,-0.10274,0.01725,-0.16565,0.23952,0.35456,0.08062,0.37473,-0.06147,0.68731,-2.05205,0.41674,0.70544,0.38029,-0.42903,-4.12049,-7.12822,0.19909
-0.21394,1.66003,-0.10144,0.01879,-0.15335,0.20528,0.27372,0.04983,0.33476,0.09400,0.89905,-2.14731,0.41552,0.70620,0.37988,-0.42931,-5.20530,-2.83312,-1.93076
-0.21353,1.65850,-0.10002,0.02139,-0.14317,0.18127,0.25099,0.08408,0.25745,0.10375,0.97634,-1.80255,0.41547,0.70521,0.38016,-0.43076,-3.99892,0.02445,-4.91435
-0.21298,1.65722,-0.09891,0.02549,-0.13143,0.15799,0.29273,0.20073,0.12033,0.31340,0.91460,-1.54669,0.41740,0.70132,0.38152,-0.43402,1.82736,8.09734,-8.95186
-0.21232,1.65606,-0.09792,0.03050,-0.12038,0.13816,0.35209,0.29421,-0.02841,0.48134,0.71588,-1.39313,0.41996,0.69644,0.38398,-0.43723,4.41885,8.76998,-10.94186
-0.21163,1.65500,-0.09708,0.03482,-0.11016,0.12029,0.37741,0.27247,-0.14423,0.35086,0.67495,-1.31472,0.42173,0.69297,0.38723,-0.43816,2.23537,0.47714,-9.41549
-0.21107,1.65414,-0.09660,0.03662,-0.09981,0.10280,0.38333,0.17987,-0.22105,0.11001,0.70965,-1.23915,0.42252,0.69084,0.39100,-0.43742,0.33454,-5.00981,-6.56949
-0.21076,1.65372,-0.09680,0.03460,-0.08531,0.08100,0.33881,0.00444,-0.25072,-0.21715,1.06297,-1.45610,0.42210,0.69100,0.39468,-0.43424,-2.21629,-11.48985,-2.65678
-0.21212,1.65730,-0.10010,-0.00065,-0.00911,0.00145,0.31298,-0.06480,-0.26605,-0.42354,1.41867,-1.56199,0.42214,0.69036,0.39759,-0.43258,-3.43282,-8.49709,-1.34513
-0.21107,1.65752,-0.09826,-0.00152,-0.00883,0.00172,0.30179,-0.10286,-0.26152,-0.23892,1.59819,-1.26392,0.42191,0.68962,0.40021,-0.43156,-1.36819,-2.20012,0.65003
-0.21009,1.65766,-0.09661,-0.00163,-0.00980,0.00182,0.33461,-0.10954,-0.29036,-0.05277,1.60268,-0.85535,0.42201,0.68757,0.40398,-0.43122,1.40104,-1.38664,-0.78777
-0.20881,1.65787,-0.09467,-0.00065,-0.01274,0.00164,0.44185,-0.06902,-0.36022,0.33639,1.45517,-0.51305,0.42257,0.68347,0.40928,-0.43220,6.09941,2.75420,-4.03640
-0.20773,1.65805,-0.09296,-0.00068,-0.01502,0.00178,0.52303,-0.07313,-0.41886,0.59434,1.16936,-0.46682,0.42285,0.67966,0.41508,-0.43239,7.88215,2.01658,-5.29493
-0.20627,1.65839,-0.09068,-0.00347,-0.01561,0.00283,0.53987,-0.20055,-0.44464,0.80177,1.14269,-0.63826,0.42180,0.67819,0.42132,-0.42970,3.21409,-6.73381,-2.55437
-0.20435,1.65884,-0.08826,-0.00736,-0.01508,0.00421,0.51174,-0.37636,-0.45335,0.81366,1.16926,-0.60560,0.42002,0.67828,0.42767,-0.42499,-2.62100,-12.48069,-1.26799
-0.20254,1.65908,-0.08672,-0.01127,-0.01410,0.00553,0.46167,-0.55293,-0.46902,0.96524,1.17962,-0.50410,0.41826,0.67924,0.43388,-0.41887,-3.32002,-12.63527,-0.78905
-0.20063,1.65913,-0.08583,-0.01370,-0.01399,0.00624,0.44189,-0.66057,-0.51078,1.21187,1.20733,-0.23988,0.41716,0.67920,0.44044,-0.41313,-2.77438,-9.38959,-2.79026
-0.19795,1.65911,-0.08443,-0.01433,-0.01563,0.00628,0.48027,-0.68706,-0.61405,1.62199,1.24992,0.15268,0.41745,0.67668,0.44843,-0.40836,1.35818,-3.95072,-5.75030
-0.19371,1.65899,-0.08200,-0.01148,-0.02114,0.00506,0.66062,-0.55345,-0.81442,2.36900,1.24278,0.69219,0.42024,0.66889,0.45875,-0.40686,10.36329,7.23872,-11.10109
-0.18954,1.65889,-0.07885,-0.00935,-0.02630,0.00405,0.83404,-0.44909,-0.99020,2.93736,0.90922,0.91842,0.42307,0.66004,0.46998,-0.40556,15.88099,11.10288,-14.03954
-0.18369,1.65896,-0.07401,-0.00977,-0.03129,0.00368,0.99384,-0.44995,-1.18586,3.44540,0.65681,1.25182,0.42565,0.65075,0.48343,-0.40204,12.81743,2.83652,-13.56315
-0.17700,1.65907,-0.06816,-0.01483,-0.03489,0.00465,1.10390,-0.64976,-1.35380,3.64413,0.22438,1.85029,0.42582,0.64350,0.49932,-0.39403,8.85136,-9.59312,-12.84312
-0.16831,1.65917,-0.06107,-0.02488,-0.03790,0.00676,1.19437,-1.05765,-1.53293,3.31994,-0.17905,2.60743,0.42311,0.63844,0.51860,-0.38003,3.63679,-24.78863,-12.79647
-0.15959,1.65891,-0.05388,-0.03303,-0.04187,0.00764,1.33673,-1.36804,-1.71917,2.97881,-0.64751,3.07319,0.42013,0.63130,0.53936,-0.36612,6.96250,-24.77892,-13.97225
-0.14947,1.65830,-0.04517,-0.03937,-0.04690,0.00707,1.53193,-1.57732,-1.93260,2.94494,-0.94477,3.00793,0.41749,0.62112,0.56183,-0.35252,12.81136,-16.69465,-14.82701
-0.13808,1.65730,-0.03497,-0.04420,-0.05189,0.00523,1.73816,-1.69813,-2.15966,2.62059,-1.08679,2.85225,0.41558,0.60813,0.58521,-0.33913,13.93550,-11.15456,-15.86786
-0.12583,1.65566,-0.02338,-0.04691,-0.05786,0.00192,2.01115,-1.70899,-2.36528,2.35903,-1.36894,2.66146,0.41391,0.59154,0.60937,-0.32775,19.13458,-3.64029,-13.53800
-0.11318,1.65319,-0.01058,-0.04843,-0.06473,-0.00268,2.34870,-1.65194,-2.54582,1.92851,-1.93475,2.56372,0.41196,0.57113,0.63461,-0.31838,24.64050,1.65271,-11.13417
-0.10014,1.64987,0.00441,-0.05292,-0.07024,-0.00746,2.65660,-1.71665,-2.68237,1.79682,-2.51230,2.38752,0.40717,0.54993,0.66128,-0.30740,25.98009,-2.32643,-7.66290
-0.08750,1.64555,0.02044,-0.06270,-0.06961,-0.01090,2.72304,-2.01428,-2.80050,0.75496,-2.49584,1.95923,0.39953,0.53342,0.68716,-0.28922,6.78432,-18.37296,-11.38352
-0.07722,1.64070,0.03429,-0.07108,-0.06672,-0.01395,2.70475,-2.28185,-2.86741,0.27960,-2.11899,1.68549,0.39080,0.51829,0.71137,-0.26945,-3.74488,-22.25639,-11.12464
-0.06381,1.63304,0.05282,-0.08011,-0.06188,-0.01883,2.66865,-2.55849,-2.94637,0.08965,-1.98377,1.17237,0.38067,0.50319,0.73532,-0.24738,-4.15496,-16.53020,-8.75572
-0.05309,1.62473,0.06892,-0.08534,-0.05754,-0.02391,2.66101,-2.70089,-2.99869,-0.07853,-2.17210,0.93576,0.37103,0.48643,0.75782,-0.22679,-3.42717,-10.66994,-6.26188
-0.04463,1.61635,0.08284,-0.08784,-0.05536,-0.02931,2.74372,-2.75347,-3.02145,-0.40313,-2.77089,0.81938,0.36098,0.46703,0.77990,-0.20816,3.03847,-6.50744,-3.33792
-0.03543,1.60529,0.09960,-0.09055,-0.05297,-0.03624,2.87103,-2.81891,-3.05278,-0.81491,-3.91669,0.38395,0.34947,0.44548,0.80223,-0.18933,9.35965,-5.65194,-0.17173
-0.02759,1.59278,0.11662,-0.09462,-0.04818,-0.04285,2.92770,-2.91874,-3.18265,-1.41084,-4.69059,-0.06379,0.33825,0.42320,0.82386,-0.16656,5.06220,-6.66249,-7.61305
-0.02056,1.57839,0.13404,-0.09838,-0.04209,-0.04952,2.97984,-2.98247,-3.38480,-1.58223,-4.87282,-0.48400,0.32810,0.39856,0.84469,-0.14140,4.25028,-4.25658,-13.51769
-0.01336,1.55975,0.15352,-0.10031,-0.03528,-0.05754,3.11639,-2.95437,-3.62164,-1.69770,-4.79927,-0.79461,0.31960,0.36977,0.86467,-0.11608,9.38957,1.53262,-13.92559
-0.00777,1.54081,0.17120,-0.09950,-0.03086,-0.06537,3.34881,-2.87076,-3.74192,-1.98287,-4.95412,-1.20892,0.31042,0.33762,0.88363,-0.09410,17.82574,3.24159,-6.72145
-0.00303,1.51956,0.18937,-0.09787,-0.02616,-0.07325,3.60507,-2.78728,-3.82124,-2.40136,-5.16587,-1.54490,0.30062,0.30271,0.90146,-0.07320,19.82775,2.46735,-1.56583
0.00029,1.49606,0.20712,-0.09563,-0.02177,-0.08174,3.90974,-2.73277,-3.84606,-3.24268,-5.31795,-2.04678,0.28919,0.26494,0.91830,-0.05386,21.72128,-0.16080,1.08087
0.00164,1.47067,0.22419,-0.09364,-0.01597,-0.09020,4.19664,-2.72229,-3.87489,-4.11128,-5.44112,-2.81315,0.27629,0.22508,0.93372,-0.03424,20.94564,-3.88764,2.53135
0.00117,1.44324,0.24071,-0.09210,-0.00768,-0.09796,4.44056,-2.73351,-3.96077,-4.87250,-5.02956,-3.39171,0.26285,0.18342,0.94716,-0.01278,17.55806,-4.44015,-3.04434
-0.00138,1.41331,0.25640,-0.08932,0.00039,-0.10647,4.74838,-2.76895,-3.99368,-5.43228,-4.04401,-3.86683,0.24745,0.13813,0.95898,0.00718,19.55313,-5.78535,-2.98150
-0.00654,1.38122,0.27005,-0.08342,0.00527,-0.11712,5.19819,-2.84643,-3.83039,-5.58304,-2.75167,-4.09783,0.22822,0.08840,0.96937,0.02060,25.25531,-13.20278,9.44152
-0.01531,1.34694,0.28041,-0.07420,0.00603,-0.13191,5.77631,-3.08615,-3.39008,-6.19879,-1.17240,-4.20642,0.20116,0.03447,0.97864,0.02456,28.68505,-28.85951,23.11396
-0.02803,1.31607,0.28044,-0.06402,0.00440,-0.14999,6.35811,-3.52966,-2.81745,-7.05661,0.51968,-4.87124,0.16468,-0.02214,0.98586,0.02170,30.28980,-52.65495,34.16566
-0.04745,1.27902,0.27428,-0.04783,0.00217,-0.17673,6.94008,-4.41108,-1.93220,-7.67125,2.37506,-5.02414,0.10978,-0.08004,0.99071,0.00654,21.97787,-80.07777,36.89040
-0.07461,1.23758,0.26978,-0.02616,0.01039,-0.20335,7.14230,-5.56277,-1.20301,-7.00258,3.65108,-6.18402,0.04118,-0.13036,0.99058,-0.00807,1.51892,-93.02153,17.75768
-0.09882,1.20775,0.26456,-0.00939,0.02514,-0.21222,6.88481,-6.22706,-1.04241,-6.59681,4.95972,-5.84089,-0.01896,-0.17044,0.98514,-0.00963,-18.14441,-62.84527,-13.26415
-0.12538,1.17946,0.26036,0.00731,0.04319,-0.21419,6.45914,-6.76769,-1.14428,-6.20975,6.06128,-5.69150,-0.08005,-0.20359,0.97577,-0.00409,-26.50019,-38.27148,-34.50687
-0.16388,1.14463,0.26151,0.02968,0.06688,-0.20695,5.72877,-7.27035,-1.52779,-5.41144,7.85971,-6.43889,-0.14392,-0.22454,0.96372,0.01090,-28.71995,-18.35620,-50.05888
-0.20563,1.11452,0.26231,0.04833,0.08661,-0.18751,4.89058,-7.34674,-2.13271,-4.14172,10.29727,-7.26382,-0.19865,-0.23687,0.95040,0.03433,-29.44251,12.20541,-56.23393
-0.23760,1.09567,0.25979,0.05881,0.09752,-0.16836,4.30817,-7.15795,-2.64134,-2.61090,11.87055,-7.79667,-0.24592,-0.24986,0.93468,0.05878,-23.98651,29.32008,-54.86570
-0.27515,1.07760,0.25425,0.06830,0.10549,-0.14502,3.75106,-6.78580,-3.16948,-0.78055,12.71085,-7.77337,-0.28683,-0.25820,0.91833,0.08791,-15.53065,44.26471,-45.22956
-0.31209,1.06424,0.24563,0.07537,0.11018,-0.12310,3.36496,-6.34727,-3.62067,1.57342,12.14851,-7.76210,-0.32335,-0.26595,0.90042,0.11813,-10.85672,39.83082,-31.79301
-0.34786,1.05468,0.23460,0.08233,0.11050,-0.10371,3.10173,-5.94048,-3.86687,3.27884,15.15236,-7.74624,-0.35662,-0.27440,0.88112,0.14544,6.23921,44.91597,-17.77484
-0.38262,1.04876,0.22227,0.09867,0.10118,-0.09178,2.55485,-6.10920,-3.98848,5.81532,16.42506,-8.09146,-0.40360,-0.27279,0.85770,0.16441,-27.71191,8.91813,-21.70782
-0.41702,1.04803,0.20566,0.12009,0.08562,-0.08259,1.88513,-6.55783,-4.05774,8.91103,17.68814,-8.45981,-0.45899,-0.26463,0.82936,0.17737,-43.78171,-12.68532,-28.97054
-0.45162,1.05183,0.18762,0.14764,0.06442,-0.07473,1.09949,-7.33104,-4.14673,12.37886,19.85719,-8.82563,-0.52491,-0.24855,0.79310,0.18351,-54.31108,-31.04389,-34.18610
-0.48662,1.06083,0.16608,0.17923,0.03722,-0.06375,0.15962,-8.32015,-4.40845,16.79010,20.23357,-8.41719,-0.59995,-0.22135,0.74601,0.18584,-64.45443,-51.02681,-51.94491
-0.52152,1.07607,0.14035,0.20066,0.00762,-0.04391,-0.76664,-8.94610,-5.05513,21.02003,18.83252,-6.97711,-0.67014,-0.18154,0.69258,0.19567,-51.35197,-38.88315,-72.69879
-0.55469,1.09715,0.11087,0.20378,-0.01683,-0.01809,-1.23471,-8.93850,-5.59253,26.56086,20.27401,-4.12114,-0.72345,-0.14595,0.64082,0.21134,-14.79331,-16.38617,-45.29147
-0.58352,1.12389,0.07984,0.19120,-0.03934,0.00695,-1.51893,-8.50722,-6.37432,29.44733,19.13156,-1.43745,-0.76403,-0.10247,0.59095,0.23777,21.50974,24.53564,-55.78159
-0.60644,1.15614,0.04692,0.17591,-0.06529,0.02938,-1.83119,-8.21734,-7.29718,34.55471,18.38489,1.42740,-0.80142,-0.04962,0.53330,0.26619,26.94196,13.85236,-63.05591
-0.62273,1.19416,0.01202,0.15892,-0.09343,0.05122,-2.14284,-8.14844,-8.21502,43.64165,17.33865,6.54883,-0.83558,0.00920,0.46469,0.29291,27.05072,-25.60179,-77.89022
-0.63078,1.22942,-0.01768,0.12863,-0.12196,0.06623,-2.61175,-7.65314,-9.02101,45.61955,13.39984,11.41255,-0.85584,0.07766,0.40316,0.31459,8.60924,43.85587,-61.63818
-0.63002,1.29061,-0.05728,0.06477,-0.14092,0.07395,-2.31360,-6.55181,-10.45862,47.16794,6.75807,19.27043,-0.85140,0.15832,0.34480,0.36217,66.90551,17.27700,-71.34222
-0.61833,1.34320,-0.07491,0.00770,-0.13074,0.06084,-1.12823,-5.44215,-11.55222,48.40364,2.35047,25.02365,-0.82788,0.22385,0.29006,0.42471,124.29960,-4.45407,-40.44690
-0.59535,1.40057,-0.08552,-0.04531,-0.11431,0.03988,0.17406,-4.57873,-12.92836,51.02080,-5.22223,31.32285,-0.78480,0.29493,0.22598,0.49602,141.93780,-45.97899,-64.04192
-0.55889,1.45994,-0.08873,-0.10683,-0.09916,0.01632,0.99587,-3.48608,-14.66342,56.52533,-15.85737,40.57457,-0.71837,0.38677,0.15877,0.55601,122.95740,-10.96480,-72.80810
-0.50751,1.51937,-0.08570,-0.17411,-0.06803,-0.00920,1.73872,-2.19784,-16.64783,55.61320,-33.75919,50.29157,-0.62117,0.49080,0.08835,0.60453,121.70590,8.65875,-129.78260
-0.43981,1.57486,-0.08426,-0.21403,0.01598,-0.04791,3.94852,-1.41624,-18.11129,49.98193,-55.17978,60.79878,-0.48566,0.56280,0.02142,0.66853,135.03300,-71.76408,-113.01680
-0.36990,1.61410,-0.06747,-0.21445,0.12362,-0.08470,6.87726,-0.97666,-18.83779,40.66817,-77.91605,66.62012,-0.32026,0.59896,-0.02989,0.73334,120.90290,-181.38890,-90.34335
-0.26164,1.64054,-0.02381,-0.18244,0.26323,-0.09284,9.98772,-0.05495,-19.78353,14.29134,-120.48010,63.58874,-0.11222,0.62583,-0.06687,0.76894,128.52170,-151.56670,-98.08042
-0.16389,1.63044,0.02757,-0.12586,0.38955,-0.05476,13.10256,1.39938,-20.15839,-22.47039,-154.30180,45.28896,0.11198,0.63589,-0.07321,0.76009,161.81910,-167.47750,-76.50964
-0.06131,1.57240,0.09965,-0.02587,0.51251,0.06552,17.46779,3.40334,-19.72311,-83.16148,-176.94860,2.67512,0.36134,0.61623,-0.02616,0.69929,204.75840,-191.97210,-102.70540
0.00217,1.49732,0.16174,0.08229,0.54534,0.21202,21.05518,3.96907,-18.38033,-133.24650,-163.76050,-39.83769,0.57524,0.54780,0.03229,0.60660,155.26410,-229.18070,-155.08730
0.52877,0.98766,0.33716,3.57076,-8.97881,3.50500,25.96371,2.39041,-15.48543,-174.04280,-118.23740,-78.83194,0.75231,0.41150,0.14791,0.49276,76.51990,-258.58960,-236.76720
0.70464,0.90913,0.25079,1.01718,-10.12801,2.18445,33.54858,-1.09207,-11.10323,-183.39490,-44.50085,-116.23230,0.87917,0.16306,0.35033,0.27881,237.03220,-218.63850,-503.74110
0.70842,0.81641,0.16405,-1.07969,-10.16583,0.70547,37.52575,-7.30469,-6.57904,-157.22030,36.44412,-117.07510,0.84156,-0.12305,0.52161,0.06753,408.65400,-60.38348,-649.56540
0.65087,0.79722,0.03619,-3.08444,-8.76084,-1.21085,29.67316,-14.08634,-8.21023,-72.34914,102.39840,-71.76008,0.74169,-0.34915,0.55883,0.12530,3.27445,472.89470,-442.96070
0.60531,0.77871,-0.02649,-3.57373,-7.25702,-1.85618,20.98511,-9.53357,-10.45716,-10.82133,104.62430,-16.00303,0.76828,-0.38848,0.46734,0.20106,-238.59500,679.83710,225.76690
0.56426,0.76407,-0.05112,-3.64507,-5.94134,-1.77885,14.51567,-6.63960,-9.17570,9.51195,85.98460,21.95068,0.77274,-0.38350,0.43820,0.25255,-331.15330,448.92170,240.71350
0.52257,0.74538,-0.05102,-3.60158,-4.94714,-1.34312,9.66329,-8.85911,-7.01498,8.18426,60.15689,37.10812,0.69816,-0.41005,0.51652,0.27864,-391.56700,61.89864,-72.72771
0.47727,0.72039,-0.03861,-3.57770,-4.25953,-0.82353,4.85172,-10.94962,-5.83664,-7.29494,42.80778,34.80208,0.59095,-0.43069,0.60240,0.31998,-371.00200,-79.08432,-199.84530
0.42636,0.69163,-0.02595,-3.63176,-3.79301,-0.43511,1.27682,-8.50234,-5.96491,-12.81281,38.92174,27.21414,0.54989,-0.42583,0.60015,0.39510,-242.73010,185.06190,-144.95080
0.37545,0.66484,-0.00895,-3.75044,-3.26988,-0.09676,-1.50753,-2.41160,-6.68645,-8.41905,42.95942,18.81446,0.57194,-0.37931,0.51217,0.51642,-19.78014,421.82820,-105.59580
0.31863,0.65541,0.00243,-3.82629,-2.66206,0.11541,-1.97665,2.88018,-7.74651,0.12932,45.95108,12.59957,0.60362,-0.35107,0.38284,0.60483,104.06830,373.65910,-120.90340
0.26795,0.64941,0.01138,-3.78150,-2.14970,0.23600,-1.50489,5.65260,-8.49550,12.90751,40.87309,9.83001,0.61555,-0.34298,0.26527,0.65809,147.98680,253.89380,-141.11530
0.22382,0.65056,0.02540,-3.60963,-1.64317,0.36926,-1.21190,6.11433,-8.88763,21.23271,31.71722,6.78344,0.60313,-0.35323,0.18382,0.69113,53.94736,45.84577,-60.85697
0.19286,0.65341,0.04097,-3.26445,-1.22794,0.49117,-1.67984,4.93801,-7.71367,27.51927,19.84671,4.50084,0.58174,-0.35674,0.16850,0.71129,-25.10064,-48.65389,64.19558
0.16571,0.64891,0.05260,-2.95273,-1.02506,0.54843,-2.49840,3.94020,-6.44583,26.65377,14.00920,2.16258,0.55351,-0.35046,0.16753,0.73671,-68.97528,-51.47008,134.92400
0.14536,0.64313,0.06379,-2.59425,-0.88069,0.57999,-2.98921,3.56800,-4.76727,25.28765,8.87155,-0.75451,0.53913,-0.32519,0.17263,0.75749,-25.84533,-7.06052,130.45710
0.13025,0.63708,0.07224,-2.23214,-0.77637,0.55836,-2.57277,3.94966,-3.01069,20.39856,7.33390,-4.95857,0.55018,-0.28564,0.16725,0.76664,46.67868,28.59596,110.61050
0.11213,0.63091,0.07702,-2.00955,-0.70003,0.49521,-1.59348,4.55786,-2.29029,16.95440,7.56974,-7.59203,0.56808,-0.25498,0.13599,0.77057,91.83727,41.54706,48.01292
0.09665,0.62886,0.07742,-1.79005,-0.57463,0.36898,-0.19024,5.02293,-1.94274,12.03033,8.54287,-9.66721,0.59690,-0.23088,0.09428,0.76257,101.59990,26.87304,-3.75752
0.07861,0.62922,0.07584,-1.66565,-0.43697,0.24107,0.59128,4.74391,-1.98975,8.29599,10.37074,-9.92900,0.61188,-0.22358,0.06047,0.75628,62.14256,-14.84379,-19.99409
0.06057,0.63292,0.07153,-1.57761,-0.27515,0.10984,0.88563,3.90095,-2.15055,6.07684,11.71156,-9.32473,0.61644,-0.23056,0.03813,0.75192,17.86456,-52.36591,-21.07036
0.04226,0.63951,0.06672,-1.51113,-0.10592,-0.00264,0.80349,2.61162,-2.18750,5.04512,11.32225,-7.30480,0.61363,-0.24931,0.03213,0.74851,-11.42363,-84.53844,-10.36695
0.02488,0.64767,0.06243,-1.44557,0.05001,-0.07973,0.37396,1.21252,-2.02700,5.26545,10.00445,-4.18734,0.60348,-0.27284,0.04092,0.74813,-37.29526,-98.08320,7.18458
0.00952,0.65650,0.05907,-1.36285,0.18129,-0.11913,-0.21015,0.09407,-1.77120,6.41606,8.46899,-1.44185,0.58837,-0.29424,0.05565,0.75110,-50.94271,-83.88914,19.83987
-0.00333,0.66555,0.05688,-1.25750,0.28484,-0.12924,-0.67062,-0.56228,-1.63299,7.76912,6.30555,0.75310,0.57259,-0.31205,0.06554,0.75529,-43.78019,-53.79663,13.08558
-0.01372,0.67382,0.05623,-1.13648,0.35163,-0.11122,-0.91871,-0.67845,-1.55686,8.82712,3.73209,2.10459,0.55987,-0.32178,0.06680,0.76062,-24.32348,-10.34170,9.57756
-0.02117,0.68123,0.05636,-0.99758,0.39086,-0.08314,-1.07443,-0.66579,-1.59489,11.08852,1.78732,2.16570,0.54715,-0.33084,0.06347,0.76626,-13.72099,5.96796,-3.37196
-0.02616,0.68750,0.05751,-0.85081,0.40108,-0.04405,-1.15442,-0.44132,-1.24962,9.81438,-0.03955,3.25705,0.53941,-0.32889,0.06473,0.77245,-5.47442,11.97712,21.48712
-0.03138,0.69282,0.05921,-0.74450,0.39469,-0.00620,-1.19885,-0.22087,-1.10668,12.71323,-1.73491,5.94494,0.53097,-0.32770,0.06220,0.77898,-4.56317,21.14948,17.90697
-0.02457,0.69555,0.06793,-0.46764,0.34486,0.13683,-1.24498,0.48621,-0.62379,16.04046,-3.31083,7.24855,0.52710,-0.30718,0.05907,0.79014,1.46026,45.27829,22.77113
-0.02016,0.69853,0.07415,-0.28942,0.31052,0.20828,-1.32309,0.77189,-0.30433,14.48599,-2.80395,4.81679,0.52079,-0.29377,0.05992,0.79930,-4.49686,32.14459,27.16760
-0.01237,0.70079,0.08020,-0.10008,0.27320,0.25992,-1.46568,0.93114,0.03719,13.06969,-2.86792,2.79674,0.51309,-0.27985,0.06491,0.80883,-7.03602,17.07314,21.43469
-0.00466,0.70283,0.08511,0.04294,0.24137,0.28125,-1.54506,1.01141,0.28994,11.32197,-2.43437,0.76164,0.50570,-0.26714,0.07032,0.81729,-9.63447,10.35950,24.29442
0.00766,0.70378,0.08871,0.23000,0.19404,0.27902,-1.34443,1.24434,0.42087,9.65723,-2.70013,-0.55324,0.50438,-0.25194,0.06905,0.82302,9.21535,14.06639,6.82245
0.01874,0.70407,0.09187,0.35992,0.14960,0.26891,-1.05297,1.51555,0.43236,8.94644,-3.48130,-0.83727,0.50564,-0.23648,0.06289,0.82732,19.14295,18.67865,-2.26478
0.03106,0.70360,0.09467,0.47961,0.09965,0.25407,-0.72031,1.79981,0.43465,8.28831,-3.80131,-1.29039,0.50955,-0.21936,0.05455,0.83022,22.79491,20.83136,-3.28193
0.04452,0.70241,0.09682,0.59063,0.04829,0.23211,-0.40949,2.07063,0.44912,7.74195,-3.84047,-1.81316,0.51484,-0.20070,0.04532,0.83223,22.37568,20.74902,-3.00269
0.05975,0.70004,0.09796,0.70673,-0.01019,0.19779,-0.10489,2.32950,0.50414,7.02397,-3.79990,-2.52743,0.52176,-0.18014,0.03603,0.83308,19.19332,18.24468,-0.98612
0.07458,0.69810,0.09873,0.78710,-0.05035,0.16444,0.12084,2.45396,0.57258,6.64391,-3.13863,-3.27505,0.52836,-0.16087,0.02875,0.83314,18.37989,12.52544,3.41300
0.09119,0.69582,0.09796,0.87764,-0.08762,0.11423,0.39144,2.60144,0.54446,6.24199,-2.41025,-3.85964,0.53673,-0.14160,0.01808,0.83159,18.62185,11.21979,-2.05718
0.10931,0.69298,0.09593,0.97336,-0.12407,0.05353,0.60959,2.71863,0.50610,5.91241,-2.56540,-3.70194,0.54495,-0.12249,0.00681,0.82944,14.49494,9.19107,-7.68110
0.12781,0.69040,0.09379,1.05313,-0.15076,0.00286,0.62512,2.74741,0.71526,5.79710,-2.02780,-3.59603,0.55037,-0.10097,0.00332,0.82878,5.73468,2.66758,9.27310
0.14669,0.68801,0.09139,1.12006,-0.16585,-0.03915,0.55257,2.75605,1.01118,5.42445,-1.13627,-3.39308,0.55398,-0.07734,0.00404,0.82892,-0.10969,-0.01741,23.61580
0.16689,0.68555,0.08804,1.19274,-0.17586,-0.08589,0.44519,2.81012,1.31061,4.87923,-0.49155,-3.29703,0.55607,-0.05112,0.00614,0.82954,-3.65522,1.69211,23.85722
0.18837,0.68369,0.08370,1.26869,-0.17879,-0.14007,0.37104,2.91651,1.58775,4.46676,0.17124,-3.70477,0.55797,-0.02258,0.00813,0.82952,-2.76609,5.47662,18.49714
0.20940,0.68223,0.07896,1.32126,-0.17116,-0.18757,0.37225,3.04822,1.72684,3.93641,1.22105,-4.29779,0.56056,0.00604,0.00727,0.82806,-0.00007,8.12468,16.23232
0.23126,0.68165,0.07257,1.37320,-0.15156,-0.25001,0.43639,3.30697,1.65360,2.99206,1.85049,-4.51493,0.56382,0.03576,-0.00093,0.82513,2.07020,17.06162,-0.11144
0.25297,0.68198,0.06526,1.41134,-0.12451,-0.31359,0.50924,3.57335,1.46175,2.28374,2.14335,-4.82702,0.56700,0.06469,-0.01388,0.82106,0.38430,21.13870,-14.12424
0.27446,0.68320,0.05678,1.43762,-0.08835,-0.38141,0.56947,3.79076,1.30548,1.45567,2.94336,-5.02628,0.56981,0.09373,-0.02722,0.81596,-0.02358,17.12332,-12.12893
0.29546,0.68612,0.04687,1.45073,-0.02808,-0.45783,0.56300,3.98606,1.16377,0.16745,4.41881,-4.50537,0.57084,0.12300,-0.04133,0.81074,-1.91788,12.79640,-7.94536
0.31560,0.69062,0.03712,1.44604,0.04203,-0.51492,0.39411,4.06645,1.05090,-0.78349,5.22834,-3.73794,0.56755,0.15025,-0.05447,0.80768,-11.88868,7.50503,-6.35971
0.33483,0.69654,0.02716,1.42836,0.12186,-0.56188,0.15263,4.05807,1.07765,-1.62158,5.87640,-3.19064,0.56097,0.17742,-0.06396,0.80607,-15.96918,0.39827,2.26845
0.35325,0.70475,0.01697,1.39873,0.21119,-0.60248,-0.13626,3.99185,1.16862,-2.68896,6.52896,-2.68755,0.55133,0.20409,-0.07093,0.80583,-16.45442,-6.20818,12.65072
0.37060,0.71446,0.00652,1.35841,0.30154,-0.63803,-0.43491,3.95129,1.17703,-3.35657,6.27592,-2.38991,0.53948,0.22962,-0.07994,0.80613,-19.89744,-4.65215,8.01592
0.38716,0.72399,-0.00405,1.31704,0.37431,-0.66595,-0.67667,3.94190,1.15062,-3.81629,5.83117,-2.27872,0.52684,0.25481,-0.09035,0.80582,-20.31644,-3.29554,3.09253
0.40162,0.73505,-0.01559,1.25197,0.46164,-0.70348,-0.97112,3.96676,1.02033,-4.54905,5.21222,-2.38191,0.51152,0.27849,-0.10456,0.80614,-19.44690,-0.46704,-1.53566
0.41519,0.74600,-0.02742,1.18619,0.52700,-0.73722,-1.18923,4.00156,0.84586,-5.11463,4.19972,-2.46496,0.49649,0.30108,-0.12088,0.80513,-19.50923,1.44044,-8.14286
0.42720,0.75710,-0.03954,1.11037,0.58174,-0.76758,-1.34283,3.93092,0.75503,-5.70426,3.48286,-2.15721,0.48154,0.32181,-0.13460,0.80402,-14.30251,-3.82754,-5.09298
0.43837,0.76815,-0.05158,1.03932,0.62212,-0.78883,-1.43618,3.78429,0.76614,-6.09880,2.96933,-1.67580,0.46666,0.34134,-0.14467,0.80299,-8.06640,-10.25850,0.81253
0.44678,0.78012,-0.06395,0.93964,0.66608,-0.81003,-1.48786,3.52170,0.85508,-6.41639,2.32608,-1.19936,0.45201,0.35834,-0.15031,0.80293,-1.83583,-15.54541,7.35262
0.45446,0.79138,-0.07609,0.84963,0.69468,-0.82366,-1.47432,3.27724,0.95092,-6.53414,1.70259,-0.78511,0.43839,0.37475,-0.15424,0.80224,2.76046,-16.63354,8.09110
0.46161,0.80243,-0.08793,0.77273,0.71155,-0.82982,-1.43512,3.06808,1.02796,-6.42922,1.05360,-0.30643,0.42534,0.39056,-0.15741,0.80111,4.92627,-16.40918,7.79611
0.46633,0.81347,-0.09958,0.67363,0.72257,-0.83122,-1.35514,2.83145,1.09749,-6.14471,0.34407,0.05397,0.41358,0.40473,-0.15875,0.79996,6.38357,-14.17215,5.11580
0.47002,0.82379,-0.11101,0.57773,0.72389,-0.82894,-1.27367,2.65680,1.12322,-6.02460,-0.08542,0.35734,0.40233,0.41874,-0.16074,0.79809,6.96582,-11.04451,2.76621
0.47338,0.83364,-0.12210,0.49720,0.71854,-0.82184,-1.25757,2.54857,1.08206,-5.64058,-0.56230,0.78134,0.39034,0.43222,-0.16501,0.79598,2.95895,-8.45605,-2.03411
0.47647,0.84313,-0.13291,0.43243,0.70877,-0.81181,-1.25962,2.48114,1.00367,-5.33264,-0.98621,0.94387,0.37835,0.44520,-0.17075,0.79341,-0.83229,-6.72145,-5.10325
0.47762,0.85204,-0.14314,0.35056,0.69209,-0.79449,-1.22028,2.38038,0.93594,-4.97309,-1.10854,1.17604,0.36757,0.45699,-0.17562,0.79070,0.78599,-6.39961,-5.43599
0.47849,0.86105,-0.15305,0.28219,0.68077,-0.77568,-1.17051,2.25796,0.96788,-4.81104,-0.75286,1.42872,0.35637,0.46875,-0.17764,0.78849,4.60458,-8.26053,1.56176
0.47910,0.87000,-0.16278,0.22650,0.67147,-0.75845,-1.14998,2.16379,1.00494,-4.52505,-0.85105,1.50923,0.34449,0.48038,-0.17946,0.78636,3.32526,-8.02494,3.63378
0.47826,0.87839,-0.17186,0.15954,0.65474,-0.73402,-1.11267,2.06593,1.05595,-3.93648,-1.27582,1.57961,0.33283,0.49163,-0.18016,0.78427,2.61565,-6.04220,3.40289
0.47745,0.88643,-0.18078,0.10793,0.63568,-0.71202,-1.06519,2.02842,1.08029,-3.54583,-1.41828,1.65530,0.32151,0.50354,-0.18134,0.78115,4.43210,-3.10746,1.96096
0.47621,0.89402,-0.18934,0.06113,0.61376,-0.68926,-1.07630,2.01599,1.06138,-3.25014,-1.63756,1.76953,0.30943,0.51504,-0.18411,0.77787,0.88499,-1.56104,-0.05124
0.47492,0.90128,-0.19775,0.02521,0.59115,-0.66910,-1.12953,2.02177,0.99719,-2.86420,-2.04527,1.74984,0.29679,0.52597,-0.18885,0.77434,-4.20442,-0.42767,-3.65669
0.47278,0.90754,-0.20549,-0.01629,0.55584,-0.64179,-1.16676,2.04468,0.89587,-2.41925,-2.36743,1.71987,0.28481,0.53666,-0.19494,0.76999,-3.94493,0.93374,-6.18073
0.47060,0.91352,-0.21301,-0.04937,0.52444,-0.61703,-1.18232,2.06212,0.82369,-2.40245,-2.16895,1.88156,0.27304,0.54739,-0.20057,0.76524,-0.64407,1.55913,-5.06850
0.46799,0.91998,-0.22032,-0.07742,0.49841,-0.59469,-1.26140,2.06280,0.74027,-2.26062,-2.26423,2.02130,0.26011,0.55698,-0.20770,0.76090,-5.61586,-0.07142,-5.43687
0.46448,0.92584,-0.22679,-0.11148,0.46163,-0.56248,-1.37674,2.02790,0.61281,-1.98537,-2.52745,2.10116,0.24703,0.56470,-0.21682,0.75702,-8.68694,-2.83536,-6.84879
0.46106,0.93092,-0.23291,-0.13916,0.42802,-0.53227,-1.41681,1.96015,0.52664,-1.97692,-2.53026,2.23497,0.23512,0.57182,-0.22449,0.75322,-4.41285,-4.58082,-5.62388
0.45744,0.93523,-0.23835,-0.16464,0.39367,-0.49915,-1.45243,1.86044,0.43567,-1.64189,-2.55639,2.45613,0.22377,0.57755,-0.23241,0.74990,-3.38209,-6.83449,-5.18821
0.45367,0.93884,-0.24299,-0.18666,0.35424,-0.45968,-1.42319,1.73936,0.36922,-1.03777,-2.65707,2.36401,0.21386,0.58258,-0.23901,0.74682,-0.44043,-8.52384,-4.05356
0.45034,0.94220,-0.24773,-0.19802,0.32499,-0.43120,-1.28906,1.66705,0.36254,-0.71245,-2.54667,2.26090,0.20563,0.58905,-0.24293,0.74278,7.96882,-7.29032,-2.41047
0.44688,0.94524,-0.25182,-0.20776,0.29443,-0.39959,-1.05709,1.61150,0.39850,-0.55015,-2.10449,2.23634,0.19970,0.59666,-0.24367,0.73807,16.42979,-3.73969,0.40329
0.44337,0.94793,-0.25528,-0.21571,0.26395,-0.36422,-0.80060,1.56366,0.44208,-0.40064,-1.82095,2.25862,0.19516,0.60476,-0.24264,0.73301,16.69611,-2.78456,1.49496
0.44005,0.95031,-0.25854,-0.22026,0.23855,-0.33308,-0.63561,1.52556,0.45431,-0.28081,-1.75784,2.30810,0.19021,0.61238,-0.24259,0.72799,12.90529,-2.46902,0.55851
0.43675,0.95254,-0.26154,-0.22322,0.21766,-0.30565,-0.54285,1.49016,0.42707,-0.29570,-1.58566,2.42141,0.18524,0.61937,-0.24376,0.72295,10.13105,-2.22578,-2.13853
0.43337,0.95437,-0.26378,-0.22685,0.19485,-0.27229,-0.58155,1.42502,0.36461,-0.28933,-1.45375,2.56992,0.17893,0.62446,-0.24746,0.71889,0.72792,-3.93438,-3.68401
0.43002,0.95567,-0.26522,-0.22952,0.16866,-0.23237,-0.75383,1.32177,0.24988,-0.11216,-1.66225,2.56601,0.17101,0.62694,-0.25484,0.71607,-11.44659,-6.81286,-5.56639
0.42675,0.95706,-0.26659,-0.23039,0.15068,-0.20084,-0.82703,1.22802,0.18355,-0.07470,-1.51451,2.64658,0.16409,0.62958,-0.26068,0.71327,-8.99255,-7.71365,-5.99602
0.42346,0.95817,-0.26711,-0.23130,0.13232,-0.16283,-0.87106,1.09492,0.13780,-0.06205,-1.32403,2.74974,0.15781,0.63095,-0.26588,0.71155,-3.84820,-9.15930,-2.45324
0.42023,0.95907,-0.26706,-0.23063,0.11474,-0.12472,-0.88621,0.95419,0.09420,0.15081,-1.34039,2.65392,0.15237,0.63156,-0.27073,0.71036,-2.21272,-10.10701,-2.19822
0.41708,0.95998,-0.26649,-0.22773,0.09913,-0.08761,-0.78517,0.81687,0.06317,0.32406,-1.14130,2.51140,0.14958,0.63244,-0.27329,0.70920,4.69410,-10.18104,-2.13255
0.41404,0.96101,-0.26583,-0.22407,0.08992,-0.05787,-0.61984,0.71009,0.07013,0.34371,-0.68573,2.33158,0.14823,0.63415,-0.27348,0.70788,12.39781,-9.12810,-1.18298
0.41118,0.96180,-0.26426,-0.21904,0.08013,-0.01916,-0.45566,0.55530,0.08160,0.35268,-0.38842,2.01974,0.14812,0.63469,-0.27248,0.70780,9.90628,-8.40275,0.48228
0.40846,0.96270,-0.26305,-0.21294,0.07498,0.00575,-0.40387,0.45991,0.07443,0.55755,-0.21885,1.64898,0.14645,0.63506,-0.27341,0.70746,4.98846,-7.92018,-0.11458
0.40592,0.96364,-0.26184,-0.20551,0.07226,0.02490,-0.43920,0.38208,0.06297,0.56385,0.02155,1.20666,0.14339,0.63471,-0.27578,0.70748,-0.05661,-5.55145,-0.58336
0.40349,0.96461,-0.26072,-0.19787,0.07067,0.03751,-0.62192,0.32328,0.01668,0.51037,0.03519,0.78546,0.13778,0.63293,-0.28177,0.70783,-10.28279,-4.76973,-2.10123
0.40111,0.96561,-0.25972,-0.19104,0.06938,0.04503,-0.86611,0.26461,-0.02420,0.51466,-0.14980,0.34544,0.13014,0.62989,-0.28978,0.70875,-17.84595,-4.38261,-2.89130
0.39883,0.96656,-0.25887,-0.18440,0.06796,0.04828,-1.00863,0.22925,-0.04962,0.48429,-0.32713,0.00549,0.12318,0.62731,-0.29697,0.70931,-13.54221,-3.21895,-2.01182
0.39669,0.96744,-0.25819,-0.17807,0.06588,0.04815,-1.02691,0.21964,-0.05634,0.49680,-0.28610,-0.12534,0.11773,0.62590,-0.30227,0.70924,-3.01285,-1.03366,-0.61304
0.39472,0.96825,-0.25761,-0.17031,0.06328,0.04642,-0.99184,0.21648,-0.06167,0.58010,-0.22630,-0.17277,0.11329,0.62499,-0.30667,0.70887,1.73407,-0.32449,-0.63452
0.39286,0.96902,-0.25716,-0.16205,0.06098,0.04308,-0.92958,0.21416,-0.04833,0.58052,-0.21750,-0.31656,0.10927,0.62443,-0.31006,0.70852,3.83113,-0.42970,0.72745
0.39108,0.96976,-0.25683,-0.15436,0.05835,0.03797,-0.87333,0.21258,-0.03868,0.51334,-0.17557,-0.40318,0.10545,0.62397,-0.31325,0.70811,4.52513,0.67990,0.41698
0.38934,0.97043,-0.25662,-0.14782,0.05528,0.03226,-0.86872,0.21064,-0.03282,0.55047,-0.26141,-0.50784,0.10085,0.62312,-0.31717,0.70778,1.73446,0.07631,0.78758
0.38781,0.97094,-0.25671,-0.13920,0.05019,0.02289,-0.85717,0.21161,-0.01287,0.51872,-0.41185,-0.66687,0.09610,0.62241,-0.32061,0.70752,0.50160,0.16669,1.10093
0.38637,0.97130,-0.25692,-0.13173,0.04354,0.01313,-0.84574,0.21686,-0.01637,0.50957,-0.59465,-0.73587,0.09170,0.62173,-0.32440,0.70697,0.68144,0.43193,0.36799
