posX, posY, posZ, velX, velY, velZ, angVelX, angVelY, angVelZ, accX, accY, accZ, rotX, rotY, rotZ, rotW, angAccX, angAccY, angAccZ
0.39065,1.03882,-0.34970,-0.11893,0.86314,-0.40830,1.11038,0.31096,1.77870,-2.81915,2.83072,-4.15824,0.18551,0.76939,-0.09004,0.60458,0.83320,-15.22332,2.93766
0.38605,1.05435,-0.35910,-0.16131,0.91486,-0.46199,1.70111,0.42902,2.01524,-2.85934,3.52027,-4.21047,0.18572,0.77929,-0.05796,0.59570,29.87577,11.16781,12.42686
0.38110,1.07043,-0.36892,-0.19665,0.95847,-0.50786,2.41271,0.56629,2.15113,-3.16083,3.27456,-3.75183,0.19195,0.78943,-0.02027,0.58271,56.57175,15.36320,17.37963
0.37436,1.08767,-0.38061,-0.24853,1.00765,-0.57060,3.10104,0.74551,2.20878,-3.48719,3.11645,-3.52540,0.20164,0.79936,0.01946,0.56567,48.76171,18.95441,4.83438
0.36719,1.10432,-0.39279,-0.29910,1.04097,-0.63043,3.12594,0.84636,2.19795,-3.93494,2.32396,-3.86693,0.20220,0.80665,0.04442,0.55359,10.84857,10.21388,2.83733
0.35952,1.12085,-0.40551,-0.34605,1.06359,-0.68482,2.88276,0.88764,2.13325,-4.00601,1.76017,-4.38949,0.19904,0.81244,0.06113,0.54459,-16.16788,1.97838,-2.79653
0.34980,1.13805,-0.42016,-0.41157,1.08961,-0.75653,2.56741,0.94574,2.02696,-4.04607,1.38123,-4.53153,0.19488,0.81831,0.07303,0.53577,-23.74518,0.83908,-4.99137
0.33996,1.15509,-0.43464,-0.46895,1.11244,-0.81316,2.63941,1.09115,1.94037,-4.05065,1.38230,-4.33378,0.19687,0.82513,0.09306,0.52128,-5.10696,7.74139,-4.57774
0.32937,1.17221,-0.44954,-0.52780,1.13566,-0.86402,3.05270,1.35866,1.86228,-4.25700,1.55322,-3.68489,0.20574,0.83292,0.12156,0.49914,22.48685,21.46010,-3.80194
0.31728,1.18971,-0.46506,-0.59771,1.16039,-0.91471,3.52313,1.75380,1.74046,-4.56137,1.50303,-2.61508,0.21868,0.84149,0.15151,0.47024,27.94678,29.44674,-4.34395
0.30450,1.20740,-0.48003,-0.66262,1.17888,-0.94678,3.68716,2.03495,1.59592,-4.87854,1.35341,-1.33002,0.22902,0.84864,0.17517,0.44348,14.03185,26.89848,-5.15400
0.29098,1.22565,-0.49418,-0.72146,1.19543,-0.96077,3.63186,2.17261,1.47026,-4.99708,1.39575,-0.25691,0.23633,0.85432,0.19391,0.42034,-2.62757,17.35280,-6.81820
0.27575,1.24451,-0.50732,-0.79167,1.21673,-0.95854,3.45590,2.21316,1.34658,-5.03708,1.52911,1.08462,0.24190,0.85890,0.20882,0.40022,-12.98085,6.02651,-6.18232
0.25957,1.26340,-0.51902,-0.86384,1.23958,-0.93462,3.30881,2.16272,1.27185,-5.28823,1.62681,2.33279,0.24628,0.86190,0.22447,0.38222,-13.58921,-2.45857,-4.41582
0.24296,1.28204,-0.52961,-0.92881,1.25782,-0.89975,3.26738,2.10635,1.24695,-5.51116,1.34882,3.32233,0.25057,0.86372,0.24277,0.36368,-5.96091,-4.51239,-3.22946
0.22460,1.30064,-0.53836,-1.00506,1.27216,-0.84678,3.27744,2.03450,1.21080,-5.32437,0.64773,4.03331,0.25563,0.86407,0.26208,0.34548,-0.35273,-4.94116,-3.18458
0.20516,1.31876,-0.54548,-1.08191,1.27607,-0.77963,3.34230,2.04931,1.12707,-4.37902,-0.30383,4.08020,0.26329,0.86373,0.28159,0.32458,3.18670,0.49048,-4.94577
0.18640,1.33608,-0.55261,-1.13506,1.26782,-0.72618,3.34470,2.15284,0.98491,-3.39587,-0.80357,3.63824,0.27290,0.86365,0.29770,0.30167,1.95828,9.27315,-7.08850
0.16782,1.35302,-0.55928,-1.17517,1.25658,-0.67723,3.11404,2.17331,0.80364,-2.49962,-0.95408,3.86126,0.28112,0.86414,0.30665,0.28321,-12.40238,7.59259,-8.83991
0.14906,1.36996,-0.56509,-1.20964,1.24804,-0.62441,2.99731,2.25151,0.62927,-2.51283,-0.30970,3.52429,0.29138,0.86379,0.31621,0.26263,-19.86963,3.28339,-11.79416
0.12981,1.38693,-0.56958,-1.24499,1.24229,-0.56346,3.14424,2.44884,0.50468,-2.57755,-0.40798,4.60720,0.30483,0.86133,0.33147,0.23518,6.76045,15.38085,-7.07706
0.10965,1.40362,-0.57203,-1.28758,1.23426,-0.48428,3.29860,2.59787,0.41333,-2.65583,-0.43817,5.45050,0.31801,0.85735,0.34764,0.20730,9.34255,13.74405,-5.82173
0.08914,1.42029,-0.57403,-1.32600,1.22795,-0.41324,3.22711,2.58117,0.40983,-2.50957,-0.42307,5.40497,0.32590,0.85435,0.36035,0.18447,2.63532,2.16930,-1.05192
0.06879,1.43717,-0.57604,-1.35452,1.22702,-0.35786,2.83521,2.43645,0.46641,-2.11575,0.06624,4.93758,0.32774,0.85488,0.36516,0.16859,-22.20127,-9.35410,4.68074
0.04758,1.45439,-0.57638,-1.39064,1.23197,-0.28929,2.20194,2.18664,0.61791,-2.41315,0.53815,3.87259,0.32251,0.85960,0.36291,0.15929,-39.06501,-22.79297,10.89331
0.02639,1.47163,-0.57703,-1.41722,1.23500,-0.23910,1.89094,2.18415,0.71234,-2.49925,0.08952,3.93171,0.32154,0.86268,0.36360,0.14207,-31.09455,-8.57794,15.66047
0.00487,1.48889,-0.57534,-1.44400,1.24025,-0.16446,1.76896,2.40253,0.88957,-0.92905,0.85053,5.06188,0.32088,0.86594,0.36573,0.11586,-10.38742,10.59254,12.12220
-0.01581,1.50626,-0.57324,-1.45359,1.24454,-0.09961,1.87475,2.47297,1.02400,-0.86013,-0.12259,5.46336,0.32031,0.86533,0.37477,0.09032,9.35907,6.86095,14.06088
-0.03664,1.52286,-0.56941,-1.46173,1.23698,-0.02294,1.97093,2.62546,1.04894,-0.49869,-0.89152,5.59791,0.32311,0.86347,0.38224,0.06249,5.76263,10.69077,3.15367
-0.05728,1.53889,-0.56440,-1.46466,1.22193,0.05516,2.00596,2.71759,1.04880,0.15725,-1.22846,5.81346,0.32580,0.86117,0.38851,0.03606,4.86115,9.52929,0.30727
-0.07726,1.55463,-0.55822,-1.46115,1.20749,0.13420,1.92829,2.71929,1.08780,0.48965,-0.87436,5.93393,0.32583,0.86008,0.39234,0.01285,-4.49233,0.84770,2.75098
-0.09723,1.57032,-0.55062,-1.45478,1.19407,0.21779,1.87026,2.70683,1.17391,0.54393,-1.02227,6.10425,0.32389,0.85896,0.39644,-0.01092,-3.32984,-2.21701,5.82488
-0.11680,1.58549,-0.54171,-1.44484,1.17631,0.30364,1.83420,2.71127,1.26062,1.00379,-1.39439,6.24261,0.32142,0.85739,0.40039,-0.03539,-2.19996,-1.40460,6.79754
-0.13521,1.59983,-0.53058,-1.42026,1.14911,0.40527,1.85292,2.72896,1.28599,2.00462,-1.95790,6.53735,0.32032,0.85418,0.40516,-0.06020,0.42320,1.12514,2.73260
-0.15293,1.61344,-0.51885,-1.38822,1.11649,0.49642,1.89577,2.70315,1.23123,2.59800,-2.72935,6.59787,0.32078,0.84929,0.41094,-0.08324,2.86973,-0.71530,-2.53682
-0.16964,1.62590,-0.50605,-1.34877,1.07399,0.58478,1.93401,2.64478,1.11925,3.03212,-3.29192,6.14772,0.32259,0.84327,0.41710,-0.10420,1.56453,-2.23136,-8.54842
-0.18584,1.63789,-0.49318,-1.31168,1.03267,0.65421,1.97392,2.63990,1.00302,3.06833,-3.53738,5.50331,0.32557,0.83625,0.42290,-0.12589,1.24945,-1.93892,-10.53028
-0.20089,1.64869,-0.47870,-1.26458,0.98222,0.73095,2.10120,2.77897,0.86230,3.49213,-3.54225,5.44663,0.33144,0.82614,0.42950,-0.15219,3.38107,9.16162,-9.00873
-0.21533,1.65901,-0.46387,-1.21974,0.93579,0.79672,2.27922,2.93317,0.73206,3.95971,-4.08384,5.42421,0.33796,0.81350,0.43760,-0.18029,11.90730,16.14794,-11.11538
-0.22809,1.66701,-0.44762,-1.15475,0.86923,0.87794,2.42065,3.05368,0.56526,4.71524,-4.38233,5.15373,0.34592,0.79933,0.44552,-0.20717,7.59338,12.56652,-10.52382
-0.24165,1.67406,-0.43301,-1.09744,0.80779,0.93931,2.43376,2.96871,0.43475,4.87627,-4.67510,4.49301,0.35133,0.78735,0.45265,-0.22751,1.08974,-0.79167,-10.52155
-0.25424,1.68016,-0.41823,-1.03741,0.74412,0.98921,2.34131,2.81858,0.30959,4.85970,-4.53565,3.50048,0.35645,0.77709,0.45789,-0.24374,-7.35805,-10.02180,-9.88130
-0.26385,1.68561,-0.40168,-0.96255,0.67632,1.03712,2.23880,2.71503,0.22940,4.72127,-3.98225,2.73005,0.36118,0.76708,0.46190,-0.26037,-7.97222,-6.05506,-5.80066
-0.27284,1.69133,-0.38515,-0.89709,0.62280,1.07029,2.11992,2.65729,0.22168,4.73007,-3.71496,2.20451,0.36474,0.75771,0.46418,-0.27817,-8.11063,-5.64917,-0.18738
-0.28192,1.69743,-0.36890,-0.84827,0.58695,1.09158,2.08566,2.64135,0.20103,4.98799,-3.31094,2.12870,0.36856,0.74659,0.46747,-0.29704,-7.77614,-2.41784,0.42538
-0.28718,1.70148,-0.35126,-0.75540,0.52856,1.12767,2.12555,2.64853,0.13405,5.33160,-3.10626,1.85392,0.37329,0.73313,0.47240,-0.31624,1.62548,0.74418,-3.29310
-0.28893,1.70408,-0.33314,-0.61488,0.45135,1.16452,2.22638,2.59074,0.02336,5.60963,-3.09177,0.87431,0.37771,0.71797,0.47988,-0.33403,4.04215,-1.63440,-4.98062
-0.29943,1.71318,-0.29993,-0.52105,0.39837,1.17391,2.15597,2.35109,-0.01877,5.10095,-3.12976,0.16440,0.38229,0.69384,0.48987,-0.36397,-3.57202,-11.96477,-3.84055
-0.30211,1.71610,-0.28343,-0.45464,0.35626,1.17320,2.03284,2.11336,-0.03848,4.51492,-3.14834,-0.31774,0.38315,0.68496,0.49445,-0.37355,-8.84002,-16.75066,-2.51410
-0.30477,1.71867,-0.26747,-0.40165,0.31973,1.16647,1.92436,1.96447,-0.08701,4.18240,-2.97014,-0.78598,0.38541,0.67538,0.49850,-0.38317,-9.87085,-14.99613,-4.04877
-0.30609,1.72045,-0.25209,-0.34166,0.27910,1.15227,1.89810,1.96562,-0.17641,3.96731,-2.67394,-1.27199,0.38994,0.66250,0.50276,-0.39533,-5.25323,-3.19899,-5.50578
-0.30666,1.72205,-0.23747,-0.28331,0.24420,1.13037,1.94809,2.14210,-0.25800,3.94698,-2.24935,-1.88130,0.39647,0.64558,0.50615,-0.41212,1.47492,10.61261,-5.64280
-0.30612,1.72334,-0.22397,-0.21890,0.21181,1.09544,1.98901,2.40272,-0.26612,4.05713,-1.86358,-2.43216,0.40327,0.62723,0.50695,-0.43238,3.07522,16.50058,0.39929
-0.30594,1.72501,-0.21061,-0.17228,0.19252,1.06698,1.93707,2.49864,-0.19803,4.06928,-1.77848,-2.38629,0.40750,0.61248,0.50618,-0.45009,0.46799,13.48166,5.22304
-0.30483,1.72613,-0.19769,-0.12268,0.16944,1.03870,1.76166,2.31615,-0.07765,3.80680,-1.93555,-1.89740,0.40784,0.60469,0.50509,-0.46140,-8.67220,-7.61253,8.95463
-0.30284,1.72643,-0.18475,-0.06878,0.13877,1.01565,1.52420,1.86682,0.03302,3.46842,-1.94617,-1.17621,0.40437,0.60337,0.50600,-0.46518,-15.25417,-28.49076,7.13955
-0.30099,1.72663,-0.17145,-0.02742,0.11325,1.00338,1.43796,1.53452,0.04668,3.43393,-2.00489,-0.88410,0.40139,0.59887,0.50974,-0.46946,-10.23965,-29.14691,1.47815
-0.29842,1.72636,-0.15828,0.01456,0.08694,0.99241,1.45062,1.29744,0.01500,3.31136,-2.09958,-0.88363,0.39839,0.59199,0.51550,-0.47444,-1.77117,-23.11644,-4.00327
-0.29435,1.72514,-0.14569,0.06980,0.05227,0.97433,1.55863,1.13283,-0.04324,3.36903,-2.03437,-1.29449,0.39487,0.58237,0.52338,-0.48063,5.14345,-11.47692,-5.29749
-0.28995,1.72378,-0.13369,0.11943,0.02211,0.95203,1.67714,1.09231,-0.11340,3.60233,-2.30527,-1.86364,0.39279,0.57023,0.53076,-0.48873,8.41929,-3.44396,-5.32306
-0.28567,1.72243,-0.12190,0.15619,-0.00120,0.93134,1.72784,1.07457,-0.19465,3.83623,-2.45283,-2.29203,0.39210,0.55810,0.53737,-0.49599,6.89447,-1.00634,-7.20454
-0.27851,1.71923,-0.11213,0.22610,-0.04599,0.88607,1.77806,1.01265,-0.39755,4.03525,-2.68868,-2.77535,0.39318,0.54446,0.54697,-0.49979,1.88087,-1.45554,-10.87716
-0.27127,1.71551,-0.10289,0.28567,-0.09100,0.84071,1.75591,0.86875,-0.61907,3.63591,-2.87926,-2.98639,0.39459,0.53271,0.55736,-0.49988,-1.43796,-5.24922,-14.47782
-0.26460,1.71200,-0.09363,0.32520,-0.12387,0.80535,1.71173,0.68432,-0.78269,3.14087,-2.81450,-3.10713,0.39476,0.52279,0.56793,-0.49831,-4.70471,-11.52331,-15.89178
-0.25733,1.70754,-0.08543,0.36433,-0.16316,0.76153,1.63191,0.49284,-0.94385,2.44101,-2.88966,-3.18206,0.39530,0.51399,0.57879,-0.49452,-7.38450,-13.42593,-13.00203
-0.24972,1.70216,-0.07833,0.40121,-0.20854,0.71049,1.62664,0.42626,-1.11222,1.99798,-2.60689,-3.00541,0.39699,0.50203,0.58997,-0.49225,-3.38440,-4.91742,-11.56357
-0.24222,1.69673,-0.07134,0.42963,-0.24599,0.66789,1.75341,0.47773,-1.24911,1.97923,-2.53379,-2.97477,0.39826,0.48553,0.60182,-0.49342,7.16132,3.25014,-9.60129
-0.23467,1.69117,-0.06448,0.45233,-0.27694,0.63216,1.88364,0.50397,-1.36272,1.93312,-2.62675,-3.03289,0.39865,0.46822,0.61430,-0.49445,11.47880,4.38394,-9.30841
-0.22680,1.68476,-0.05844,0.47482,-0.31356,0.59253,1.96686,0.40600,-1.50162,1.56305,-2.80921,-2.89215,0.39771,0.45240,0.62864,-0.49191,7.66550,-2.94934,-10.17976
-0.21911,1.67774,-0.05280,0.49040,-0.35187,0.55551,1.94872,0.17109,-1.62444,0.95741,-2.89674,-2.70949,0.39507,0.44078,0.64371,-0.48505,-1.34825,-13.51174,-11.58267
-0.21156,1.67053,-0.04730,0.50038,-0.38434,0.52360,1.89145,-0.03331,-1.71793,0.74536,-2.67090,-2.69139,0.39247,0.43032,0.65810,-0.47718,-6.54519,-16.27887,-10.35938
-0.20368,1.66223,-0.04316,0.51324,-0.42592,0.47919,1.82583,-0.23927,-1.86726,0.78821,-2.55784,-2.87737,0.39023,0.41978,0.67368,-0.46654,-5.14962,-11.43874,-10.37538
-0.19572,1.65398,-0.03938,0.52518,-0.45912,0.43804,1.77062,-0.35170,-2.02492,0.85815,-2.21584,-3.02797,0.38951,0.40770,0.68871,-0.45578,-5.22951,-7.25825,-12.34219
-0.18751,1.64557,-0.03628,0.53777,-0.48778,0.39499,1.69034,-0.42989,-2.18904,0.87640,-1.96076,-3.15040,0.38997,0.39544,0.70338,-0.44363,-5.33222,-3.82510,-12.34764
-0.17911,1.63686,-0.03406,0.55094,-0.51540,0.34753,1.61652,-0.44583,-2.35429,0.60889,-1.58575,-2.69944,0.39187,0.38208,0.71739,-0.43105,-5.82608,0.37281,-11.71289
-0.17081,1.62811,-0.03171,0.56045,-0.53893,0.31124,1.70832,-0.35366,-2.44174,0.51602,-1.61925,-2.21748,0.39278,0.36410,0.73102,-0.42281,3.93097,4.85533,-6.60070
-0.16252,1.61909,-0.02917,0.56710,-0.56053,0.28520,1.88632,-0.25727,-2.49320,0.50778,-1.79846,-1.96191,0.39208,0.34308,0.74509,-0.41642,13.94719,6.61243,-3.26955
-0.15421,1.60913,-0.02721,0.57310,-0.59175,0.25632,2.10578,-0.19633,-2.56947,0.32742,-2.20748,-1.77327,0.38999,0.31954,0.76022,-0.40972,16.54568,3.55283,-3.37125
-0.14619,1.59852,-0.02519,0.57385,-0.62740,0.23364,2.20367,-0.27317,-2.68054,-0.01830,-2.35370,-1.20827,0.38651,0.29904,0.77600,-0.39876,5.06253,-4.02155,-7.49429
-0.13821,1.58748,-0.02285,0.57338,-0.66185,0.21975,2.34751,-0.34881,-2.77308,-0.04291,-2.54034,-0.72232,0.38140,0.27680,0.79210,-0.38793,6.99380,-6.24771,-7.53684
-0.13027,1.57642,-0.02026,0.57288,-0.68884,0.21293,2.49547,-0.40170,-2.85511,-0.02709,-2.75318,-0.49396,0.37559,0.25309,0.80790,-0.37706,12.00574,-6.63719,-7.79959
-0.12236,1.56354,-0.01782,0.57210,-0.73675,0.20556,2.86651,-0.44295,-2.98447,-0.14098,-3.10600,-0.21580,0.36617,0.22141,0.82591,-0.36711,20.23363,-6.23978,-8.97676
-0.11457,1.54966,-0.01522,0.56914,-0.79014,0.20169,3.27980,-0.50284,-3.10449,-0.23474,-3.57425,-0.23686,0.35407,0.18633,0.84394,-0.35733,26.14785,-7.19079,-7.11818
-0.10694,1.53623,-0.01247,0.56487,-0.82553,0.20079,3.48045,-0.57475,-3.19940,-0.51719,-3.68679,-0.11755,0.34264,0.15464,0.85994,-0.34524,21.33255,-8.73114,-10.13665
-0.10000,1.52049,-0.00957,0.55144,-0.88680,0.20245,3.73761,-0.75780,-3.34015,-1.21066,-4.16285,0.19681,0.32622,0.12057,0.87732,-0.33068,14.41177,-11.35367,-11.09579
-0.09396,1.50393,-0.00645,0.52733,-0.94820,0.20673,3.87692,-1.00398,-3.50708,-2.18284,-4.74000,0.19256,0.30767,0.08869,0.89431,-0.31254,9.32888,-15.41333,-14.26529
-0.08885,1.48659,-0.00336,0.49517,-1.00776,0.20979,3.97840,-1.25452,-3.70524,-3.22729,-5.19750,0.17535,0.28726,0.05672,0.91071,-0.29133,4.04706,-16.32803,-20.15970
-0.08642,1.46654,-0.00073,0.43098,-1.09470,0.20543,4.20114,-1.59998,-3.94278,-4.81183,-5.84146,-0.56148,0.26020,0.02122,0.92747,-0.26767,7.58010,-19.55832,-20.09531
-0.08576,1.44559,0.00084,0.35278,-1.17706,0.18629,4.56098,-1.89218,-4.12730,-6.50249,-5.82407,-1.71909,0.22952,-0.01982,0.94168,-0.24528,18.08527,-21.07031,-19.03956
-0.08769,1.42373,0.00103,0.25314,-1.25633,0.15126,5.02222,-2.23060,-4.23551,-8.06195,-5.37985,-3.09775,0.19261,-0.06474,0.95302,-0.22464,26.82870,-28.06375,-13.36279
-0.09384,1.40096,-0.00105,0.11028,-1.33360,0.08906,5.61268,-2.65924,-4.35143,-10.03668,-4.14174,-4.65513,0.14785,-0.11508,0.96095,-0.20363,29.67148,-31.27722,-12.53877
-0.10227,1.37940,-0.00486,-0.03875,-1.37846,0.01352,6.11914,-3.12408,-4.38406,-11.56177,-2.10649,-6.09703,0.09861,-0.16445,0.96410,-0.18372,27.54557,-38.26336,-12.82199
-0.11405,1.35933,-0.01083,-0.20656,-1.39025,-0.07849,6.51916,-3.69111,-4.33049,-12.86069,0.63349,-7.19178,0.04276,-0.21122,0.96238,-0.16545,19.89323,-43.89950,-9.93139
-0.13080,1.34231,-0.01988,-0.41684,-1.35453,-0.19921,6.82397,-4.55414,-4.16272,-13.81803,4.06233,-8.02182,-0.02516,-0.25257,0.95539,-0.15101,5.57509,-54.50668,-11.90520
-0.14738,1.32748,-0.02925,-0.57924,-1.29261,-0.29882,6.94309,-5.35470,-3.99990,-13.77838,6.59739,-8.73191,-0.09559,-0.28845,0.94280,-0.13709,-3.63880,-62.36992,-17.51426
-0.16735,1.31651,-0.04195,-0.75553,-1.18792,-0.42598,6.90977,-6.16074,-3.80350,-9.76456,7.68701,-10.31799,-0.17020,-0.31742,0.92438,-0.12568,-17.25220,-69.92476,-24.64252
-0.18891,1.31014,-0.05743,-0.92079,-1.03570,-0.56858,6.46497,-6.75539,-3.84962,-13.54891,14.57652,-10.76906,-0.23958,-0.33318,0.90554,-0.10764,-25.03679,-11.27451,-22.21245
-0.21342,1.31146,-0.07601,-1.09349,-0.80059,-0.72660,5.74919,-7.71177,-3.86793,-11.01395,18.66416,-11.75158,-0.32148,-0.33269,0.88154,-0.09409,-47.13603,-47.98829,-50.12939
-0.23734,1.31811,-0.09664,-1.22139,-0.53646,-0.88251,4.84342,-7.98547,-4.11778,-6.38688,19.86331,-11.82644,-0.38721,-0.32302,0.86054,-0.07218,-49.80660,-9.41282,-56.84818
-0.25929,1.33038,-0.11962,-1.29451,-0.24343,-1.04165,4.05485,-7.58745,-4.33743,-3.31771,22.47736,-11.60617,-0.43293,-0.31395,0.84372,-0.04644,-33.37174,47.28752,-36.74015
-0.27851,1.34884,-0.14503,-1.31065,0.08058,-1.20259,3.43273,-7.38329,-4.15804,-0.18986,24.48855,-11.14209,-0.47819,-0.30596,0.82256,-0.03337,-34.18126,39.39648,-9.81225
-0.29500,1.37035,-0.17087,-1.28456,0.37808,-1.33508,2.87224,-7.68025,-3.75569,2.78318,25.85349,-10.53337,-0.53278,-0.29504,0.79243,-0.03400,-52.21600,1.01199,-1.39772
-0.30795,1.40059,-0.19912,-1.21361,0.73723,-1.47422,1.98384,-8.45130,-3.18772,6.25308,26.62037,-9.37093,-0.59651,-0.27029,0.75388,-0.05274,-77.80614,-35.18871,-8.53416
-0.31712,1.43678,-0.22825,-1.10155,1.10904,-1.59669,0.84925,-9.24051,-2.72281,9.72552,27.41134,-8.37591,-0.66003,-0.23202,0.71008,-0.07943,-91.84305,-42.67873,-27.79155
-0.32214,1.47911,-0.25807,-0.95316,1.49479,-1.70536,-0.37560,-9.74921,-2.43878,12.02487,28.26678,-7.31455,-0.71520,-0.18397,0.66559,-0.10787,-87.14898,-26.71776,-39.78712
-0.32183,1.53121,-0.28918,-0.75568,1.95086,-1.81306,-1.83293,-10.00076,-2.49004,13.80399,29.45659,-6.34361,-0.76133,-0.11940,0.62264,-0.13580,-72.21989,-9.37262,-57.68804
-0.32110,1.58284,-0.31971,-0.59181,2.30529,-1.88897,-2.86708,-9.96037,-2.82167,14.26806,30.16635,-6.45951,-0.79880,-0.05423,0.57934,-0.15281,-54.60045,4.64277,-73.55645
-0.31324,1.64896,-0.35387,-0.35752,2.79968,-2.00336,-3.91390,-9.85235,-3.84398,16.86843,33.12238,-7.76405,-0.82999,0.03197,0.53484,-0.15506,-9.33245,-7.54196,-89.44211
-0.29816,1.72534,-0.39090,-0.05651,3.36058,-2.14161,-4.91220,-9.54167,-5.45881,21.72534,36.52437,-10.15964,-0.84783,0.13728,0.49195,-0.14257,10.18936,-1.01891,-121.03430
-0.27496,1.80648,-0.43105,0.30889,3.87952,-2.29727,-5.27006,-9.72690,-6.99940,31.86728,39.03786,-11.34667,-0.86302,0.23940,0.42921,-0.11691,30.49230,-51.97949,-98.73481
-0.24117,1.89278,-0.47141,0.74993,4.36093,-2.42171,-5.49774,-9.43903,-8.41156,42.83428,41.62426,-8.14953,-0.85825,0.34136,0.37334,-0.08652,34.48532,-40.43470,-94.01049
-0.18685,1.99110,-0.51070,1.39666,4.91482,-2.50343,-5.02620,-8.42456,-10.40815,52.66630,38.93161,-0.70035,-0.82753,0.44744,0.33817,-0.02512,96.24091,-39.94420,-109.03800
-0.11361,2.09596,-0.54377,2.18701,5.44609,-2.47355,-3.22092,-6.70049,-12.59263,63.92343,37.95886,8.91386,-0.77116,0.53724,0.33291,0.07656,189.46960,-71.20287,-74.37148
-0.01769,2.20622,-0.56545,3.14940,5.94961,-2.28418,-0.88782,-4.79208,-15.43690,78.82119,34.68825,17.64907,-0.66809,0.62840,0.33900,0.20938,247.74170,-122.03540,-116.04960
0.09829,2.31254,-0.57836,4.19588,6.28941,-2.01129,0.16449,-4.06524,-18.59501,101.64260,22.38889,23.91378,-0.52285,0.72979,0.29452,0.32756,167.23750,-159.43760,-182.76910
0.28789,2.40393,-0.56751,6.09719,6.32857,-1.44492,-1.36420,-2.59723,-23.99842,144.45300,-22.82979,43.63503,-0.26074,0.86466,0.18992,0.38510,82.11639,2.02612,-323.26860
0.50476,2.42944,-0.53211,8.24422,5.44930,-0.67618,-2.72490,1.85172,-29.71449,165.24790,-114.14230,59.93592,0.10468,0.92375,0.09797,0.35516,186.53810,-34.14980,-448.44350
0.74178,2.34179,-0.47209,10.28248,2.96283,0.29006,-2.14030,11.80040,-33.84246,117.05790,-239.57020,67.11353,0.52493,0.83029,0.08311,0.16778,199.77910,-146.09250,-632.85880
0.94090,2.15987,-0.40947,11.16612,-0.41878,1.08192,5.44382,20.76618,-35.39223,25.11723,-316.25600,59.69995,0.85143,0.50066,0.15505,-0.01890,-156.14080,-237.67030,-930.42880
1.03104,1.77743,-0.37080,10.16535,-5.84644,1.39150,21.80360,24.30024,-35.69686,-159.65940,-327.71970,-25.50823,0.94876,-0.08689,0.26780,-0.14347,-484.50630,583.94490,-743.95620
0.95273,1.44884,-0.40202,6.91821,-9.40093,0.64250,33.70378,18.41718,-34.47034,-271.00970,-161.86900,-63.69979,0.75720,-0.56860,0.27384,-0.16839,-71.02515,866.78320,-492.66120
0.75889,1.28815,-0.46863,2.64701,-9.77246,-0.47408,24.32509,5.72424,-30.82154,-215.74780,76.39606,-46.98323,0.71456,-0.59203,0.36807,0.05850,-434.94550,913.15460,444.62160
0.67549,1.25237,-0.48925,0.81634,-8.26559,-0.75520,14.65838,2.75999,-23.71966,-65.79195,125.57890,-4.16710,0.74638,-0.49384,0.41443,0.16515,-432.30850,398.06940,850.71670
0.65980,1.22933,-0.49576,0.39449,-6.84540,-0.74405,10.20598,1.71025,-16.23742,-6.01073,90.40829,4.39445,0.76793,-0.41046,0.46386,0.16320,-417.26090,-18.17829,515.17930
0.66888,1.20069,-0.49244,0.43982,-5.82892,-0.55531,7.71041,1.28191,-9.78537,7.57329,59.17850,23.33414,0.79129,-0.32916,0.50182,0.11701,-182.13830,-146.83590,480.10630
0.68124,1.16678,-0.47096,0.50683,-5.12811,-0.14691,3.51659,0.60471,-5.40187,-1.60830,28.68620,21.33067,0.79676,-0.22264,0.54382,0.14092,-277.59810,-65.10614,315.98170
0.68735,1.11336,-0.45540,0.47339,-4.85575,0.09642,1.30437,1.28688,-4.11536,-4.77032,22.27675,20.38099,0.80899,-0.18612,0.52798,0.17926,-205.12260,118.86560,162.86790
0.68540,1.06228,-0.43616,0.33330,-4.61324,0.35371,0.64319,0.23261,-4.23783,-9.34242,16.50412,18.44346,0.78736,-0.20664,0.54313,0.20584,-77.91468,-13.27065,33.97351
0.68070,1.01350,-0.41575,0.17927,-4.39823,0.57706,0.61434,-1.46139,-4.89871,-11.01619,16.05008,14.39014,0.74400,-0.25728,0.57404,0.22530,-41.48402,-118.50730,-71.78323
0.67812,0.96599,-0.39650,0.09232,-4.20961,0.73600,0.44017,-1.95406,-4.59547,-7.93617,15.49381,11.23920,0.72093,-0.27893,0.58903,0.23560,-32.48433,-76.37561,-9.49733
0.67705,0.92354,-0.37467,0.04791,-3.98258,0.90832,0.13259,-1.78794,-3.24350,-0.71589,11.47654,9.93997,0.71824,-0.26572,0.59965,0.23227,-24.99122,17.65507,76.57987
0.67881,0.87684,-0.35390,0.05000,-3.86685,1.03736,-0.24770,-2.21215,-1.96087,0.91592,5.10624,10.14430,0.70474,-0.24810,0.62574,0.22416,-38.40822,0.75464,91.41125
0.67821,0.82833,-0.33166,0.01826,-3.79997,1.15847,-0.73007,-3.36848,-1.16582,-5.09419,5.66710,11.04654,0.66828,-0.23710,0.67063,0.21781,-60.07654,-76.03889,68.41050
0.67076,0.78235,-0.30578,-0.10296,-3.70365,1.30832,-1.71120,-4.00503,-0.46417,-14.26393,7.77117,9.58677,0.63096,-0.20954,0.71214,0.22547,-77.16563,-70.90071,43.70224
0.65394,0.74327,-0.27785,-0.34534,-3.52896,1.46734,-3.05561,-2.42612,0.44811,-20.42855,12.90107,8.88572,0.63902,-0.14772,0.71092,0.25382,-91.10008,80.38287,21.73331
0.63082,0.70796,-0.24897,-0.62960,-3.33111,1.60429,-4.49784,0.32616,0.78224,-22.49913,13.89390,9.36580,0.67162,-0.07450,0.67060,0.30605,-108.32930,185.17970,-11.36112
0.59972,0.67665,-0.22066,-0.97358,-3.10792,1.70441,-5.85383,2.37506,0.38974,-18.96463,14.53241,4.27299,0.68882,-0.01040,0.62170,0.37270,-112.52080,147.56020,-71.48004
0.56681,0.64623,-0.19850,-1.27896,-2.91403,1.69486,-5.96568,2.69185,-0.16224,-24.63081,16.98294,-4.36207,0.68520,0.01593,0.59914,0.41386,-28.21536,-8.76643,-25.78866
0.53033,0.61987,-0.17984,-1.56586,-2.70220,1.63168,-5.74055,3.70322,-1.13068,-24.70122,20.25754,-6.34925,0.69709,0.03095,0.54922,0.45985,-1.34190,47.86608,-86.97470
0.48783,0.60094,-0.16389,-1.87201,-2.42600,1.54037,-5.12052,4.64915,-2.34275,-18.37837,20.85926,-6.28710,0.71415,0.02841,0.48579,0.50319,9.19663,47.05268,-129.84430
0.44434,0.58627,-0.15095,-2.13287,-2.14098,1.42762,-4.01307,4.82250,-3.46234,-12.71817,15.64323,-6.55138,0.72735,0.00426,0.43355,0.53196,42.37446,-23.08670,-85.77927
0.40613,0.56791,-0.13717,-2.26079,-1.96991,1.34512,-3.02111,3.74080,-4.03778,-5.31199,14.96080,-6.38972,0.72356,-0.03024,0.41476,0.55092,38.14118,-56.90646,-74.29573
0.36734,0.55422,-0.12602,-2.36116,-1.76533,1.24330,-1.53563,0.70922,-3.90288,-4.96749,16.06356,-6.34585,0.69711,-0.09661,0.45993,0.54145,48.98660,-221.16380,15.55110
0.32924,0.54949,-0.11523,-2.43136,-1.46633,1.15717,-0.75072,-2.35478,-3.79357,-4.17208,20.37200,-4.13907,0.64824,-0.16654,0.51638,0.53423,3.11562,-219.27720,27.52117
0.29467,0.54623,-0.10221,-2.43918,-1.21040,1.11454,-0.81974,-3.52610,-3.79929,-0.49014,20.33499,-3.24959,0.60775,-0.20701,0.53939,0.54483,-28.55607,-132.58820,4.06761
0.26348,0.54972,-0.09037,-2.37331,-0.90980,1.07337,-1.30136,-2.81130,-3.80054,4.74244,17.04761,-2.27094,0.59022,-0.21401,0.52847,0.57145,-26.24855,17.88315,-5.54543
0.23635,0.54978,-0.07737,-2.26966,-0.72313,1.05516,-1.57902,-0.81240,-3.88417,9.60777,14.56630,-1.28599,0.60083,-0.19938,0.48380,0.60431,10.69805,140.14400,-21.78891
0.21607,0.55266,-0.06459,-2.08287,-0.53608,1.03787,-1.63097,1.91071,-3.71724,14.32571,9.18861,-0.50164,0.63266,-0.16051,0.41540,0.63358,42.21712,179.90840,-20.34588
0.19682,0.55295,-0.05213,-1.91149,-0.42495,1.01560,-1.62137,2.92181,-3.27005,14.24804,7.34766,-1.78967,0.64514,-0.13528,0.37765,0.65029,28.28860,99.34608,14.43927
0.17863,0.55341,-0.04084,-1.76801,-0.33631,0.97878,-1.58113,3.04580,-2.87322,12.80424,7.38836,-3.37424,0.64743,-0.12198,0.35621,0.66263,15.26827,28.54779,30.65481
0.16255,0.55774,-0.03179,-1.61023,-0.22760,0.91889,-1.59986,2.68725,-2.50184,12.32867,7.31126,-4.40719,0.64231,-0.11582,0.34676,0.67363,4.81281,-12.51147,27.46944
0.14691,0.56665,-0.02595,-1.43875,-0.10910,0.82825,-1.65898,1.93047,-1.93722,11.52015,5.86102,-5.69373,0.63110,-0.11329,0.35405,0.68083,-6.53012,-43.50122,40.53514
0.13201,0.57265,-0.01987,-1.31299,-0.04401,0.75415,-1.60155,1.63149,-1.51320,10.58361,4.07755,-5.89774,0.62580,-0.10660,0.35367,0.68697,1.79073,-33.89538,42.59074
0.12414,0.57584,-0.01595,-1.14607,0.00280,0.65905,-1.32881,1.75247,-1.08197,9.70862,2.07498,-6.04202,0.63061,-0.09332,0.34659,0.68811,18.85549,5.06543,25.87190
0.11553,0.57759,-0.01248,-1.02348,0.02180,0.57623,-0.99785,1.94935,-0.79033,8.23182,0.77815,-5.75962,0.63875,-0.08025,0.33551,0.68774,27.43684,16.61094,17.50251
0.10685,0.57896,-0.00974,-0.92784,0.03141,0.49850,-0.71997,1.90207,-0.55803,6.47806,0.44291,-5.19285,0.64476,-0.07163,0.32878,0.68633,24.57717,2.33991,14.57401
0.09798,0.58074,-0.00748,-0.85557,0.04480,0.42828,-0.51716,1.73101,-0.50074,4.37793,1.36987,-4.85416,0.64826,-0.06838,0.32250,0.68636,15.56355,-13.84654,9.88464
0.08924,0.58403,-0.00627,-0.78930,0.07457,0.35548,-0.31625,1.78578,-0.90739,4.09399,1.99869,-4.14917,0.65294,-0.07088,0.30204,0.69095,10.70678,-0.84770,-23.32608
0.08106,0.58710,-0.00442,-0.73590,0.09881,0.30740,-0.21750,1.84808,-1.24637,5.45606,1.70872,-3.89342,0.65627,-0.07263,0.28029,0.69676,6.93300,7.77655,-34.38405
0.07468,0.59064,-0.00345,-0.66251,0.12170,0.25556,-0.18438,1.71803,-1.33494,6.37866,0.92993,-3.56919,0.65729,-0.07418,0.26642,0.70106,1.71193,-4.83943,-13.63721
0.06973,0.59364,-0.00272,-0.58205,0.12982,0.21006,-0.17752,1.46556,-1.21777,6.27185,-0.09597,-3.08448,0.65699,-0.07489,0.26047,0.70350,-0.45371,-17.86257,7.07856
0.06658,0.59567,-0.00227,-0.49743,0.12549,0.17051,-0.13687,1.31911,-1.10433,6.05368,-0.50699,-2.68993,0.65806,-0.07429,0.25379,0.70501,2.15226,-14.68907,10.02391
0.06403,0.59768,-0.00194,-0.41461,0.11843,0.13504,-0.06674,1.34851,-1.12713,6.03733,-0.57772,-2.59502,0.66093,-0.07306,0.24110,0.70690,4.41947,-0.56018,0.83605
0.06269,0.59955,-0.00202,-0.33241,0.11076,0.10047,0.01019,1.41579,-1.20380,6.32645,-0.78925,-2.58754,0.66440,-0.07226,0.22586,0.70876,5.97922,5.37783,-6.26919
0.06241,0.60089,-0.00241,-0.26064,0.10197,0.07119,0.04180,1.34428,-1.18707,6.68887,-1.02508,-2.55853,0.66628,-0.07244,0.21517,0.71030,3.85879,-0.19205,-3.63185
0.06412,0.60205,-0.00341,-0.16423,0.08803,0.03451,-0.00940,1.01378,-0.97124,6.60863,-1.23049,-2.41265,0.66482,-0.07393,0.21575,0.71134,-2.75093,-18.28367,12.28264
0.06741,0.60287,-0.00472,-0.06305,0.07139,-0.00047,-0.13855,0.59780,-0.61812,7.35784,-1.31682,-2.24800,0.66068,-0.07435,0.22398,0.71260,-7.93953,-25.22901,19.91283
0.07227,0.60310,-0.00623,0.02906,0.05660,-0.02609,-0.20667,0.38217,-0.25934,8.11441,-1.28139,-2.06636,0.65832,-0.07068,0.23161,0.71272,-6.93427,-22.48036,29.53877
0.07927,0.60323,-0.00774,0.14097,0.04059,-0.05177,-0.24715,0.36950,0.08937,7.52107,-0.75395,-1.84160,0.65760,-0.06184,0.23758,0.71224,-3.73876,-6.91111,29.36451
0.08703,0.60379,-0.00977,0.24005,0.03444,-0.07977,-0.24483,0.56783,0.23356,6.76754,-0.27805,-2.49382,0.65903,-0.05118,0.23547,0.71247,0.99209,14.84412,11.55298
0.09473,0.60429,-0.01269,0.31001,0.03203,-0.11067,-0.25116,0.63975,0.37392,5.50912,-0.26699,-2.99100,0.65957,-0.04185,0.23584,0.71246,-0.39606,10.09720,10.38201
0.10312,0.60469,-0.01666,0.38229,0.02797,-0.15701,-0.19781,0.74758,0.42011,4.13435,-0.08625,-3.29133,0.66170,-0.03321,0.23359,0.71168,2.35239,4.50316,5.73293
0.11108,0.60515,-0.02103,0.43028,0.02677,-0.19688,-0.11511,0.90838,0.34635,4.15885,-0.09678,-3.81297,0.66518,-0.02566,0.22667,0.71099,5.64559,12.88905,-5.49259
0.12062,0.60526,-0.02734,0.49035,0.02199,-0.25703,0.02917,1.06897,0.31777,3.78085,-0.71470,-3.96561,0.67079,-0.01725,0.21948,0.70822,8.33423,11.97536,-3.79244
0.12989,0.60472,-0.03374,0.53584,0.00988,-0.30892,0.17938,1.18328,0.32950,3.25216,-0.93469,-3.98425,0.67703,-0.00869,0.21354,0.70424,9.70997,7.32450,0.45664
0.13930,0.60412,-0.04057,0.57185,-0.00036,-0.35434,0.31473,1.29651,0.32613,3.15564,-0.79161,-4.02471,0.68375,-0.00001,0.20669,0.69983,11.52586,9.26557,-1.20281
0.15015,0.60339,-0.04915,0.61946,-0.00928,-0.41588,0.48546,1.42307,0.37631,3.05425,-0.44220,-3.99756,0.69215,0.01033,0.20015,0.69337,10.61795,7.95329,2.03093
0.16090,0.60281,-0.05771,0.65747,-0.01363,-0.46768,0.61520,1.53676,0.45093,2.66683,-0.26287,-3.80471,0.70023,0.02179,0.19421,0.68665,9.89003,7.87154,4.77549
