posX, posY, posZ, velX, velY, velZ, angVelX, angVelY, angVelZ, accX, accY, accZ, rotX, rotY, rotZ, rotW, angAccX, angAccY, angAccZ
0.24716,1.28449,-0.40186,-0.30475,0.70215,-0.27236,2.54034,0.43307,0.63315,-3.15155,3.58346,-2.02770,0.18222,0.87318,0.13244,0.43223,16.17532,7.27121,4.75395
0.24051,1.29703,-0.40721,-0.34710,0.75000,-0.29993,2.72137,0.55110,0.62976,-3.11578,3.34742,-1.87463,0.18897,0.87349,0.15305,0.42177,13.25677,8.35041,0.61832
0.23311,1.31003,-0.41278,-0.39214,0.79442,-0.32467,2.82231,0.66949,0.63952,-3.32682,3.13336,-1.46442,0.19503,0.87386,0.17277,0.41046,10.01765,9.60003,1.82458
0.22499,1.32343,-0.41851,-0.43900,0.83508,-0.34630,2.77529,0.72233,0.65460,-3.47957,2.71379,-1.22103,0.19924,0.87401,0.18965,0.40056,-0.42628,4.78574,1.88227
0.21610,1.33713,-0.42443,-0.48775,0.87109,-0.36604,2.61459,0.74040,0.66004,-3.64218,2.42839,-1.52488,0.20195,0.87422,0.20335,0.39192,-11.40217,-0.50235,1.10868
0.20676,1.35090,-0.43047,-0.53167,0.89907,-0.38266,2.50046,0.82752,0.65853,-3.73549,2.25302,-1.32502,0.20515,0.87501,0.21662,0.38124,-10.50405,5.11682,0.95501
0.19628,1.36524,-0.43662,-0.58399,0.92984,-0.39687,2.39465,0.93705,0.66615,-3.81492,2.15517,-0.79798,0.20808,0.87623,0.22909,0.36939,-8.86471,7.08002,1.86330
0.18494,1.37986,-0.44249,-0.63830,0.95782,-0.40305,2.35410,1.04862,0.69880,-4.04173,1.86415,-0.40092,0.21085,0.87733,0.24263,0.35632,-6.05917,5.86027,3.37527
0.17279,1.39464,-0.44796,-0.69358,0.98199,-0.40087,2.46921,1.23371,0.73349,-3.87046,1.61339,0.28560,0.21555,0.87811,0.25931,0.33944,5.92365,12.24225,4.06514
0.16006,1.40948,-0.45310,-0.74532,1.00189,-0.39362,2.56636,1.39401,0.75973,-3.62890,1.25798,0.82911,0.22043,0.87848,0.27603,0.32169,8.88517,13.37223,3.26637
0.14712,1.42417,-0.45801,-0.78758,1.01421,-0.38430,2.58206,1.48197,0.76856,-3.50945,0.79184,0.93900,0.22466,0.87842,0.29120,0.30514,2.67607,7.40608,2.68915
0.13304,1.43892,-0.46227,-0.83916,1.02479,-0.36636,2.52645,1.58327,0.74813,-3.09950,0.55722,1.55842,0.22910,0.87868,0.30398,0.28815,-2.07177,7.89680,0.56924
0.11888,1.45348,-0.46612,-0.88187,1.03088,-0.34503,2.34424,1.54037,0.75349,-3.03149,0.36317,1.95041,0.23076,0.87888,0.31409,0.27509,-9.99871,-0.32613,0.89462
0.10412,1.46800,-0.46941,-0.92428,1.03440,-0.31919,2.14973,1.47000,0.78287,-3.05298,0.20348,1.77245,0.23084,0.87921,0.32309,0.26327,-16.04288,-8.12510,2.23222
0.08885,1.48241,-0.47213,-0.96514,1.03487,-0.28981,2.11223,1.52668,0.82166,-2.87245,-0.05808,1.98715,0.23233,0.87924,0.33419,0.24754,-5.80435,0.58656,3.10117
0.07321,1.49647,-0.47422,-1.00273,1.03032,-0.25668,2.20689,1.71866,0.84852,-2.63399,-0.52299,2.37749,0.23612,0.87874,0.34727,0.22686,4.87756,11.41785,3.30051
0.05727,1.51000,-0.47566,-1.03623,1.01776,-0.22008,2.21371,1.86283,0.87304,-2.06259,-1.38544,3.40139,0.23929,0.87838,0.35864,0.20631,6.21098,16.24254,3.22631
0.04138,1.52310,-0.47622,-1.06115,1.00058,-0.17760,2.13896,1.92287,0.83281,-1.70143,-1.32703,3.11892,0.24279,0.87776,0.36754,0.18843,-7.59605,1.34626,-2.13504
0.02513,1.53559,-0.47591,-1.08503,0.97607,-0.13086,2.03195,1.94458,0.82944,-1.67051,-2.25289,3.70302,0.24495,0.87736,0.37550,0.17101,-5.54991,3.88756,1.26735
0.00896,1.54752,-0.47518,-1.10244,0.94904,-0.08873,1.89850,1.87402,0.80165,-1.18018,-2.34054,3.66824,0.24652,0.87662,0.38240,0.15664,-10.50035,-3.94802,-1.05369
-0.00731,1.55826,-0.47294,-1.11753,0.90832,-0.03229,1.76163,1.76848,0.73500,-0.81230,-2.86567,3.40118,0.24847,0.87553,0.38839,0.14443,-9.50962,-7.43876,-3.36061
-0.02342,1.56846,-0.47043,-1.12550,0.86663,0.01563,1.71838,1.73317,0.64990,-0.36306,-3.04992,3.23679,0.25212,0.87349,0.39539,0.13080,-5.90528,-3.39599,-5.85428
-0.03933,1.57824,-0.46769,-1.12877,0.82837,0.05578,1.77142,1.70230,0.59243,-0.10192,-3.33844,3.14174,0.25597,0.87019,0.40458,0.11648,-0.53021,0.26368,-6.22363
-0.05496,1.58670,-0.46393,-1.12645,0.77713,0.10319,1.75203,1.82874,0.48162,0.28146,-3.07225,2.78218,0.26285,0.86751,0.41045,0.09938,-4.73254,8.81227,-5.85988
-0.07062,1.59489,-0.46002,-1.12504,0.73178,0.14132,1.77746,1.90982,0.43763,0.05582,-3.40533,2.44474,0.26849,0.86408,0.41782,0.08187,3.41959,5.88208,-2.54174
-0.08627,1.60277,-0.45637,-1.12404,0.69292,0.16640,1.67375,1.94546,0.42730,0.36304,-3.35485,2.06109,0.27272,0.86203,0.42214,0.06572,-4.31538,6.19334,-1.74448
-0.10139,1.60912,-0.45230,-1.11430,0.63735,0.19357,1.27961,1.81201,0.40773,0.83763,-2.98728,1.36711,0.27429,0.86341,0.41966,0.05637,-22.37964,-8.72621,0.88503
-0.11619,1.61568,-0.44828,-1.10137,0.59700,0.21483,1.03315,1.76590,0.38756,0.98517,-2.66814,1.55049,0.27691,0.86397,0.41813,0.04522,-20.83199,-5.07941,-0.05859
-0.13072,1.62173,-0.44375,-1.08720,0.55765,0.23990,0.89796,1.76052,0.38459,1.00001,-2.92990,1.80819,0.27970,0.86386,0.41767,0.03271,-10.35829,-0.85423,1.28696
-0.14511,1.62708,-0.43909,-1.07205,0.51681,0.26561,0.81442,1.77832,0.34489,1.24156,-2.78755,1.80698,0.28368,0.86310,0.41735,0.01997,-7.84355,-0.44354,-1.19542
-0.15913,1.63209,-0.43415,-1.05353,0.48010,0.29118,0.90717,1.93608,0.27219,1.11553,-2.28668,1.48730,0.29062,0.85998,0.41949,0.00301,0.95515,6.74657,-5.32709
-0.17294,1.63680,-0.42891,-1.03624,0.44700,0.31450,1.09850,2.28713,0.22673,1.40610,-2.36934,1.75611,0.30007,0.85496,0.42256,-0.02106,13.10576,24.59418,-3.97191
-0.18596,1.64096,-0.42340,-1.01416,0.41435,0.33878,1.19811,2.48911,0.16966,1.86461,-2.56029,2.16338,0.30912,0.84978,0.42483,-0.04298,10.27661,20.02702,-3.51095
-0.19868,1.64462,-0.41742,-0.99184,0.38059,0.36495,1.13407,2.43969,0.13572,1.81616,-2.50348,2.22823,0.31537,0.84629,0.42531,-0.05868,-3.00092,0.84358,-2.83727
-0.21096,1.64800,-0.41073,-0.96622,0.34901,0.39495,1.03426,2.28704,0.08892,1.99478,-1.98264,2.28430,0.32071,0.84329,0.42545,-0.07069,-8.81921,-9.76111,-2.19580
-0.22300,1.65146,-0.40382,-0.94338,0.32516,0.42107,0.98071,2.18202,0.07621,1.80593,-2.02183,2.10515,0.32552,0.84000,0.42601,-0.08334,-4.41363,-10.71544,-2.54753
-0.23409,1.65416,-0.39629,-0.90961,0.29425,0.45211,0.92261,2.14124,0.03194,2.25962,-1.91561,1.82384,0.33163,0.83639,0.42566,-0.09639,-4.45157,-2.84138,-2.25045
-0.24507,1.65691,-0.38887,-0.88158,0.27148,0.47235,0.88801,2.12575,-0.01771,2.31564,-1.88285,1.61209,0.33825,0.83224,0.42535,-0.10973,-3.56853,-1.20696,-3.22057
-0.25540,1.65922,-0.38107,-0.84968,0.24619,0.49287,0.85963,2.12722,-0.04689,2.48178,-1.77576,1.41848,0.34478,0.82792,0.42477,-0.12349,-1.52839,1.02202,-2.41138
-0.26529,1.66132,-0.37338,-0.81806,0.22336,0.50676,0.80017,2.10710,-0.05625,2.15848,-1.49948,0.86244,0.35075,0.82408,0.42338,-0.13647,-2.87654,-0.80909,-1.58004
-0.27503,1.66325,-0.36554,-0.79097,0.20334,0.51970,0.74633,2.11473,-0.00793,1.97693,-1.16797,0.97386,0.35549,0.82070,0.42121,-0.15054,-5.68883,-1.03071,3.85208
-0.28387,1.66490,-0.35735,-0.75468,0.18260,0.53394,0.80402,2.27040,0.00749,2.44400,-1.39726,0.47860,0.36219,0.81483,0.41987,-0.16905,4.79357,9.40540,1.02668
-0.29226,1.66629,-0.34962,-0.71881,0.16200,0.53771,0.87264,2.29102,-0.11971,2.64427,-2.40850,0.07582,0.37070,0.80752,0.42038,-0.18379,2.20948,7.74557,1.33329
-0.30033,1.66758,-0.34240,-0.68652,0.14526,0.53193,0.65341,2.38894,0.05544,2.56521,-0.41858,-0.75083,0.37514,0.80553,0.41249,-0.20060,-12.09988,3.66287,-6.14721
-0.30780,1.66916,-0.33532,-0.65275,0.13537,0.52333,0.42056,2.32849,0.27859,2.47138,-1.30768,-0.48098,0.37564,0.80600,0.40381,-0.21493,-13.24305,1.16665,23.71332
-0.31525,1.67020,-0.32808,-0.62684,0.11946,0.52027,0.19619,2.13677,0.43216,2.36397,-1.39278,-0.02245,0.37504,0.80770,0.39555,-0.22474,-16.83111,-13.94214,15.44785
-0.32156,1.67054,-0.32041,-0.58790,0.09611,0.52516,-0.00775,1.81730,0.60853,2.53249,-1.54797,0.46849,0.37110,0.81150,0.38803,-0.23062,-11.85317,-20.89955,13.56576
-0.32735,1.67051,-0.31236,-0.54916,0.07180,0.53459,-0.05282,1.61828,0.67288,2.73382,-1.66663,0.65395,0.36890,0.81275,0.38305,-0.23796,-5.02987,-17.09985,7.19114
-0.33310,1.67044,-0.30431,-0.51938,0.05355,0.54263,0.01881,1.57054,0.66519,2.76294,-1.68656,0.68955,0.36863,0.81129,0.37984,-0.24826,2.76257,-9.94264,1.34663
-0.33727,1.66939,-0.29596,-0.47172,0.02360,0.55295,0.19003,1.57474,0.62342,3.06742,-1.90490,0.45629,0.36893,0.80756,0.37933,-0.26048,10.88625,1.54317,-3.29998
-0.34080,1.66812,-0.28769,-0.42381,-0.00454,0.55876,0.31445,1.53112,0.58293,3.01581,-1.88145,0.19378,0.36889,0.80412,0.37904,-0.27135,8.33871,-1.25036,-3.63013
-0.34426,1.66667,-0.27969,-0.38468,-0.02908,0.55969,0.33290,1.39009,0.59085,2.89583,-1.83068,-0.08105,0.36717,0.80281,0.37776,-0.27925,3.71000,-7.75211,-0.51683
-0.34734,1.66496,-0.27199,-0.34693,-0.05159,0.55642,0.29629,1.18616,0.61232,2.63095,-1.61277,-0.41833,0.36435,0.80302,0.37619,-0.28441,-1.37954,-14.51255,1.18302
-0.34998,1.66302,-0.26462,-0.31092,-0.07284,0.54816,0.25604,1.02448,0.61218,2.41171,-1.41842,-0.82393,0.36190,0.80327,0.37449,-0.28905,-2.76076,-13.71796,0.98609
-0.35229,1.66095,-0.25762,-0.27794,-0.09105,0.53595,0.26683,0.95922,0.58628,2.04734,-1.15536,-1.01758,0.36041,0.80224,0.37329,-0.29523,-0.36860,-6.54489,-1.66110
-0.35443,1.65878,-0.25099,-0.24969,-0.10638,0.52023,0.28761,0.95439,0.56484,1.93311,-0.97516,-1.31756,0.35934,0.80061,0.37191,-0.30261,1.60786,-0.86974,-1.82104
-0.35626,1.65659,-0.24477,-0.22325,-0.11853,0.50136,0.30591,0.97068,0.53557,1.81277,-0.85530,-1.46144,0.35878,0.79859,0.37043,-0.31035,1.18390,1.20243,-2.30088
-0.35767,1.65413,-0.23925,-0.19504,-0.13254,0.47513,0.29008,0.98720,0.49896,1.83208,-0.88047,-1.90100,0.35880,0.79665,0.36833,-0.31773,-0.55666,1.31645,-1.80664
-0.35563,1.65203,-0.23341,-0.16214,-0.14201,0.44761,0.21056,0.96836,0.47278,1.80359,-0.66529,-2.05439,0.35904,0.79568,0.36490,-0.32378,-5.02883,-1.08099,-1.81743
-0.35392,1.64993,-0.22794,-0.13536,-0.14860,0.42418,0.14009,0.94287,0.44873,1.62812,-0.49303,-1.96607,0.35935,0.79487,0.36137,-0.32935,-6.21090,-2.07751,-1.38273
-0.35239,1.64774,-0.22317,-0.10865,-0.15424,0.39776,0.08236,0.92462,0.40836,1.44101,-0.30230,-1.89948,0.36023,0.79384,0.35792,-0.33459,-4.44489,-2.16281,-2.18752
-0.35236,1.64545,-0.21926,-0.08587,-0.15783,0.36907,0.07380,0.96352,0.34701,1.23305,-0.11561,-1.78484,0.36199,0.79159,0.35503,-0.34102,-1.36404,1.31778,-4.01711
-0.35242,1.64323,-0.21540,-0.06907,-0.15903,0.34672,0.08553,1.03839,0.27251,1.37769,-0.05252,-2.01422,0.36468,0.78831,0.35237,-0.34843,0.98063,5.09827,-4.91246
-0.35202,1.64114,-0.21226,-0.04776,-0.15730,0.31823,0.09415,1.16414,0.16220,1.50574,0.29526,-1.96875,0.36939,0.78367,0.34939,-0.35686,-1.10083,8.56826,-7.32653
-0.35135,1.63922,-0.20940,-0.02517,-0.15275,0.29196,0.14030,1.25901,0.06493,1.53799,0.39162,-1.35867,0.37394,0.77835,0.34745,-0.36555,2.32007,7.89757,-6.79333
-0.35075,1.63741,-0.20609,-0.00928,-0.14739,0.27937,0.19450,1.22457,0.02381,1.40861,0.47658,-0.83373,0.37635,0.77428,0.34680,-0.37227,3.60703,0.47420,-4.59924
-0.34993,1.63574,-0.20270,0.00638,-0.14109,0.27107,0.26282,1.07104,0.02552,1.19759,0.39527,-0.49035,0.37635,0.77165,0.34791,-0.37665,4.82521,-8.46240,-1.65162
-0.34901,1.63415,-0.19937,0.02019,-0.13479,0.26369,0.29051,0.80869,0.05991,1.07880,0.39895,-0.73183,0.37429,0.77129,0.34975,-0.37775,3.31815,-17.27674,1.83828
-0.34788,1.63266,-0.19659,0.03422,-0.12842,0.24873,0.26496,0.54887,0.08774,0.86956,0.38290,-1.41091,0.37204,0.77215,0.35115,-0.37691,-0.64126,-20.75549,2.28091
-0.34654,1.63129,-0.19480,0.04875,-0.12138,0.22038,0.20433,0.37235,0.09556,0.74179,0.49209,-2.04825,0.37082,0.77302,0.35144,-0.37606,-3.65025,-11.98620,0.63052
-0.34533,1.62995,-0.19326,0.05767,-0.11550,0.19474,0.15051,0.31659,0.09001,0.52918,0.53968,-2.16729,0.37081,0.77293,0.35078,-0.37688,-4.06310,-6.84939,-0.14985
-0.34408,1.62886,-0.19273,0.06512,-0.10653,0.15770,0.14159,0.35736,0.06833,0.20452,0.57521,-1.95612,0.37169,0.77141,0.35013,-0.37971,-0.74196,1.63199,-1.35408
-0.34297,1.62777,-0.19200,0.06874,-0.09964,0.13181,0.16558,0.40666,0.05122,0.36464,0.48149,-1.79031,0.37244,0.76932,0.34996,-0.38335,1.50230,5.00393,-0.92233
-0.34179,1.62669,-0.19137,0.07256,-0.09427,0.11102,0.17137,0.39186,0.03065,0.45265,0.38534,-1.74564,0.37296,0.76784,0.35017,-0.38563,1.27488,0.47383,-1.61744
-0.34041,1.62576,-0.19142,0.07895,-0.08766,0.08345,0.16670,0.32876,-0.00414,0.39110,0.42361,-1.70987,0.37349,0.76682,0.35093,-0.38644,-0.60774,-3.74380,-2.37661
-0.33907,1.62492,-0.19163,0.08391,-0.08146,0.06041,0.17050,0.27267,-0.01594,0.34915,0.47895,-1.55991,0.37354,0.76595,0.35177,-0.38734,0.39545,-3.55282,-1.35916
-0.33776,1.62419,-0.19185,0.08705,-0.07500,0.04327,0.18331,0.20080,-0.00785,0.30483,0.61820,-1.29733,0.37280,0.76551,0.35298,-0.38784,0.50157,-5.21631,-0.06327
-0.33631,1.62374,-0.19220,0.09165,-0.06529,0.02822,0.23285,0.14444,-0.02679,0.32848,0.92064,-0.86219,0.37212,0.76444,0.35538,-0.38840,2.12144,-5.45966,-0.61581
-0.33473,1.62378,-0.19254,0.09836,-0.04937,0.01657,0.33913,0.07472,-0.06988,0.61051,1.19738,-0.67805,0.37108,0.76258,0.35989,-0.38890,6.69160,-2.71901,-3.08465
-0.33306,1.62405,-0.19282,0.10456,-0.03322,0.00831,0.38996,-0.04942,-0.09145,0.64683,1.42951,-0.71882,0.36935,0.76196,0.36439,-0.38758,5.19674,-8.65489,-2.08899
-0.33115,1.62491,-0.19334,0.11299,-0.01115,-0.00208,0.44047,-0.17527,-0.12037,0.53473,1.79323,-0.70792,0.36738,0.76146,0.36967,-0.38543,3.12659,-11.00108,-2.34882
-0.32921,1.62655,-0.19394,0.12150,0.01953,-0.01138,0.53831,-0.26950,-0.11413,0.61042,1.96765,-0.45190,0.36419,0.76051,0.37587,-0.38434,6.71001,-4.74515,-0.54209
-0.32721,1.62827,-0.19439,0.12817,0.04414,-0.01609,0.59494,-0.39355,-0.08178,0.75897,2.12972,-0.33911,0.35996,0.76060,0.38191,-0.38217,5.39573,-8.89571,2.00824
-0.32479,1.63066,-0.19479,0.14052,0.07410,-0.01901,0.67333,-0.52952,-0.06570,1.10006,2.14952,-0.08451,0.35498,0.76067,0.38926,-0.37926,4.55590,-10.10298,2.03012
-0.32177,1.63351,-0.19508,0.16208,0.10577,-0.01961,0.77165,-0.67467,-0.09097,1.68641,1.89442,-0.02816,0.34993,0.76023,0.39827,-0.37547,6.95507,-8.37229,-1.57861
-0.31843,1.63624,-0.19538,0.18299,0.12785,-0.02012,0.80658,-0.83842,-0.12458,2.07564,1.78880,-0.08370,0.34502,0.76057,0.40705,-0.36987,4.48437,-10.92463,-2.78742
-0.31397,1.63981,-0.19575,0.21639,0.15858,-0.02156,0.80418,-1.12138,-0.18563,2.21306,2.01092,-0.12420,0.33931,0.76247,0.41711,-0.35991,0.09958,-17.74280,-4.51717
-0.30879,1.64388,-0.19614,0.25482,0.19151,-0.02310,0.83575,-1.26363,-0.32147,2.20981,2.25861,0.02983,0.33587,0.76224,0.42792,-0.35082,0.91711,-12.33093,-8.14610
-0.30355,1.64795,-0.19639,0.28465,0.21627,-0.02182,0.94186,-1.20876,-0.45650,2.38790,2.15698,0.22428,0.33415,0.75891,0.43920,-0.34570,7.47653,1.06494,-10.11789
-0.29752,1.65265,-0.19641,0.32035,0.24539,-0.01688,1.09930,-1.16095,-0.62094,2.79734,2.09600,0.46217,0.33306,0.75368,0.45271,-0.34073,12.31978,6.77449,-10.68657
-0.29110,1.65771,-0.19624,0.35424,0.27386,-0.00983,1.19731,-1.28349,-0.76492,2.48284,1.91468,0.47080,0.33062,0.74983,0.46734,-0.33171,9.48212,-4.92995,-10.41813
-0.28464,1.66306,-0.19613,0.38021,0.30008,-0.00562,1.22811,-1.45009,-0.86589,2.10886,2.41230,0.18996,0.32734,0.74717,0.48154,-0.32048,4.11902,-13.26690,-9.01043
-0.27739,1.66986,-0.19627,0.41374,0.34528,-0.00696,1.27036,-1.53484,-0.98549,1.87604,3.30148,-0.29796,0.32520,0.74324,0.49597,-0.30959,1.95464,-8.11130,-7.81857
-0.26985,1.67753,-0.19666,0.44450,0.39481,-0.01202,1.36380,-1.40154,-1.08066,2.07514,3.90653,-0.33115,0.32513,0.73642,0.50973,-0.30355,6.37621,7.11414,-6.29131
-0.26235,1.68532,-0.19698,0.46632,0.43315,-0.01448,1.46454,-1.25696,-1.10985,2.15629,3.93019,-0.09658,0.32447,0.72889,0.52324,-0.29943,10.46685,12.84702,-2.97078
-0.25351,1.69544,-0.19671,0.50539,0.50112,-0.00605,1.69504,-1.07313,-1.09833,2.35504,3.58707,1.21110,0.32269,0.71847,0.53883,-0.29888,12.54360,11.05336,1.93618
-0.24479,1.70492,-0.19531,0.53446,0.54410,0.01975,1.91692,-1.14194,-1.04326,2.33180,2.71432,2.47429,0.31633,0.70947,0.55660,-0.29458,15.24393,-1.78710,4.48437
-0.23592,1.71416,-0.19300,0.55856,0.57215,0.05447,2.10873,-1.36839,-0.98095,2.25665,1.95257,3.30306,0.30643,0.70137,0.57610,-0.28687,15.18805,-14.95498,3.92346
-0.22629,1.72352,-0.18884,0.58993,0.59529,0.11206,2.26729,-1.88532,-0.91327,2.27007,0.76771,3.85669,0.29026,0.69551,0.59834,-0.27204,9.60595,-31.42872,2.12176
-0.21625,1.73217,-0.18401,0.62146,0.60122,0.16839,2.33496,-2.41648,-0.93036,2.38678,-0.03763,4.30970,0.27348,0.69023,0.62048,-0.25257,3.16208,-38.02032,-5.08131
-0.20597,1.74015,-0.17846,0.64898,0.59448,0.22264,2.40883,-2.86093,-0.98885,2.15990,-1.08047,4.87017,0.25620,0.68358,0.64309,-0.23132,4.12875,-36.18024,-8.53843
-0.19519,1.74622,-0.16983,0.67840,0.55569,0.31783,2.61276,-3.54045,-1.12695,1.13347,-3.18154,5.73535,0.23316,0.67458,0.67054,-0.20237,9.63941,-36.51131,-10.55941
-0.18526,1.75087,-0.16098,0.68683,0.50058,0.39629,2.82164,-4.08380,-1.32144,0.12149,-4.51889,5.46554,0.21053,0.66250,0.69806,-0.17171,14.56750,-39.40131,-15.02422
-0.17562,1.75456,-0.15187,0.68797,0.44338,0.45871,3.05975,-4.35945,-1.50016,-0.53862,-4.92974,4.80425,0.18976,0.64641,0.72503,-0.14310,18.58595,-30.76859,-17.14293
-0.16611,1.75651,-0.14189,0.68681,0.37114,0.51992,3.41749,-4.36682,-1.64773,-0.29438,-5.05833,3.97862,0.17153,0.62427,0.75278,-0.11910,25.91072,-6.54584,-6.32095
-0.15633,1.75709,-0.13123,0.69075,0.29166,0.57901,3.84907,-4.07871,-1.71908,0.16661,-4.94624,3.40339,0.15730,0.59678,0.78017,-0.10224,29.51219,12.40842,4.79102
-0.14654,1.75767,-0.12071,0.69372,0.23117,0.62182,4.21905,-3.78922,-1.69018,0.01330,-5.27728,3.59728,0.14290,0.56753,0.80604,-0.08828,28.90423,18.91740,12.21050
-0.13711,1.75613,-0.10929,0.68960,0.14967,0.66881,4.64109,-3.52050,-1.66312,-0.52479,-6.50177,3.24579,0.12883,0.53359,0.83242,-0.07594,29.73969,15.66704,16.08908
-0.12841,1.75267,-0.09753,0.67409,0.05500,0.71043,5.13148,-3.37158,-1.66114,-1.43753,-7.06310,2.77973,0.11318,0.49430,0.85963,-0.06247,33.32457,7.73655,9.22846
-0.12043,1.74746,-0.08585,0.65002,-0.04676,0.74057,5.64371,-3.26895,-1.60776,-1.96855,-7.48281,1.55721,0.09580,0.45033,0.88629,-0.05016,36.36507,1.60155,11.55880
-0.11315,1.74056,-0.07478,0.61995,-0.15292,0.75315,6.07025,-3.26783,-1.54472,-2.16622,-8.05385,0.16897,0.07605,0.40419,0.91076,-0.03703,30.45349,-4.41793,13.36931
-0.10614,1.73266,-0.06458,0.59282,-0.24954,0.74804,6.39217,-3.29739,-1.58022,-2.43151,-8.51665,-1.54661,0.05674,0.35628,0.93242,-0.02108,26.88008,-6.32596,4.30466
-0.09989,1.72205,-0.05594,0.55998,-0.36655,0.71855,6.76752,-3.23390,-1.48325,-2.49532,-8.31297,-2.72786,0.03750,0.30387,0.95193,-0.00977,22.74448,-0.63572,8.40405
-0.09439,1.70871,-0.04962,0.52150,-0.50394,0.65638,7.29187,-3.11914,-1.15552,-2.73049,-8.57045,-5.16116,0.01632,0.24441,0.96951,-0.00632,28.20428,-5.61014,24.21120
-0.08851,1.69745,-0.04334,0.49927,-0.57239,0.61017,7.55049,-3.08678,-0.93848,-2.95721,-8.61766,-6.45489,-0.00538,0.18763,0.98222,-0.00111,27.80721,-8.52529,31.31087
-0.08557,1.68022,-0.04407,0.43499,-0.71873,0.46229,8.16182,-3.25292,-0.61091,-4.36443,-7.14877,-10.04036,-0.03439,0.11746,0.99248,0.00072,32.51230,-15.35391,17.17991
-0.08425,1.66419,-0.05026,0.35493,-0.81895,0.24723,8.73048,-3.53229,-0.62010,-4.71847,-3.73722,-13.90900,-0.06481,0.04439,0.99685,0.01134,32.12780,-15.51652,-0.33682
-0.08225,1.65181,-0.05539,0.30523,-0.83486,0.10229,8.89248,-3.85205,-0.54792,-5.45573,0.87908,-15.18897,-0.09781,-0.02107,0.99476,0.02080,29.67369,-15.24165,-9.48203
-0.08265,1.64318,-0.06811,0.22825,-0.78349,-0.13194,8.66831,-4.70299,0.05626,-6.84904,6.45757,-13.11471,-0.15041,-0.07660,0.98550,0.01748,-11.53715,-49.05258,-9.10419
-0.08254,1.63829,-0.08043,0.17751,-0.68121,-0.30773,8.41703,-5.87356,0.69058,-1.34195,8.69935,-11.74421,-0.21768,-0.12985,0.96731,0.00878,-31.78388,-118.66850,-3.12650
-0.08174,1.63783,-0.09230,0.14955,-0.52855,-0.43476,7.19603,-6.64342,0.70826,-2.05701,11.94475,-7.96753,-0.27831,-0.15259,0.94825,0.00918,-56.15388,-40.14938,-40.22170
-0.08075,1.64094,-0.10410,0.13135,-0.35202,-0.53080,5.77494,-7.40096,0.41479,-0.04520,13.34378,-6.66559,-0.34327,-0.15935,0.92551,0.01435,-75.60405,-53.26463,-71.88320
-0.07938,1.64788,-0.11625,0.12396,-0.15256,-0.61080,4.51022,-7.61702,-0.50206,0.55530,14.90573,-5.73874,-0.39767,-0.15655,0.90334,0.03653,-61.59264,0.68295,-98.90948
-0.07677,1.65910,-0.12946,0.13929,0.07186,-0.68979,3.49212,-7.40279,-1.67813,2.21617,16.78201,-5.89010,-0.44175,-0.14817,0.88197,0.07091,-25.19412,36.66315,-105.13340
-0.07132,1.67561,-0.14462,0.20043,0.33648,-0.78484,2.47077,-7.20643,-2.69155,5.19128,17.14183,-6.23000,-0.48477,-0.13101,0.85844,0.10450,-27.71239,34.60783,-84.95734
-0.06289,1.69422,-0.16110,0.29901,0.57813,-0.88152,1.67348,-7.19989,-3.37131,8.29273,18.08232,-7.58094,-0.53017,-0.11373,0.82969,0.13265,-28.63114,20.63334,-68.82616
-0.04562,1.72639,-0.19288,0.42285,0.79994,-0.98174,1.06273,-7.45507,-3.91933,11.80317,19.37489,-8.88876,-0.62174,-0.09336,0.75657,0.17982,-20.49832,4.00073,-68.96984
-0.03104,1.74699,-0.20285,0.67650,1.15585,-1.15411,0.35863,-8.46655,-5.23709,18.87400,21.12693,-9.36591,-0.64666,-0.06035,0.73364,0.19990,-15.90617,-35.33292,-95.40068
0.00705,1.79811,-0.24305,0.95039,1.42500,-1.26868,-0.19970,-8.72013,-5.40451,27.89655,26.42479,-9.56404,-0.73811,-0.02174,0.62982,0.24093,-25.39501,-31.05895,-32.99913
0.05550,1.84633,-0.26985,1.45036,1.82551,-1.39677,-1.31413,-9.15542,-6.55563,35.12743,24.40287,-5.88024,-0.78724,0.04448,0.55276,0.26970,-16.65844,-10.35182,-112.17960
0.11790,1.89733,-0.29254,2.06510,2.19626,-1.44198,-1.93659,-9.39967,-8.16361,44.24867,21.84317,1.18407,-0.82104,0.11608,0.46262,0.31368,10.58498,-26.83564,-109.43270
0.18510,1.94598,-0.30914,2.62413,2.45808,-1.39051,-1.77397,-8.71830,-9.66272,51.68936,20.28131,8.32070,-0.82336,0.18173,0.38752,0.37267,70.16171,-8.06844,-88.77274
0.27335,1.99751,-0.31634,3.36444,2.70372,-1.21447,-1.11138,-7.57780,-11.66670,57.07283,14.53648,17.65296,-0.79317,0.25925,0.31242,0.45393,148.31970,-24.22842,-93.10071
0.39459,2.04497,-0.30319,4.45781,2.84015,-0.76652,-0.43249,-5.80710,-14.58700,67.12101,0.01760,32.39529,-0.71807,0.36989,0.23151,0.54218,144.37290,-22.44300,-120.70380
0.51875,2.07427,-0.27930,5.39980,2.68171,-0.24185,-0.34856,-3.97197,-16.98825,69.25604,-22.60603,43.34165,-0.62220,0.48789,0.14861,0.59393,140.62220,7.05044,-159.73010
0.65600,2.07943,-0.23918,6.33817,2.18999,0.41728,1.10351,-2.19543,-18.65196,65.04556,-51.18680,52.89344,-0.49079,0.57521,0.08013,0.64950,171.15250,-22.23678,-114.14630
0.80208,2.05072,-0.18259,7.20903,1.28932,1.18506,3.74451,-0.95022,-19.22432,57.00078,-79.17080,57.03632,-0.33776,0.61627,0.03263,0.71068,140.16190,-151.64400,-43.14894
0.94742,1.98363,-0.11298,7.87893,0.00029,1.98518,6.39653,-0.35027,-20.00501,39.85488,-107.64540,56.68474,-0.15807,0.63505,-0.02405,0.75574,89.64140,-157.87260,-66.67552
1.08033,1.87032,-0.03611,8.22146,-1.71443,2.72510,8.55997,0.61707,-21.62851,9.40613,-141.74220,48.80046,0.05673,0.64976,-0.09254,0.75235,92.11585,-101.92580,-144.04230
1.17160,1.67976,0.04249,7.84492,-4.27133,3.33773,12.43085,3.58940,-22.85138,-58.33911,-176.05750,22.82213,0.32668,0.65160,-0.09869,0.67746,197.78580,-142.35660,-166.32880
1.16776,1.47250,0.08735,6.47689,-6.73990,3.45818,18.79843,6.89798,-20.86677,-130.69680,-175.34920,-9.77667,0.58889,0.60047,0.01447,0.54077,255.48240,-326.60010,-203.36250
1.11810,1.21660,0.12186,4.23032,-8.94418,3.09028,28.53436,6.47973,-17.70080,-186.61040,-142.62300,-51.87475,0.83426,0.38355,0.20331,0.33996,229.78340,-291.50250,-582.06770
0.95068,0.98785,0.08685,0.91706,-10.40362,1.70980,40.64806,-0.27947,-10.66309,-202.13730,-28.40023,-115.91170,0.87814,-0.02838,0.47485,0.05088,548.75850,103.68690,-841.49440
0.79349,0.86443,-0.00077,-1.54677,-10.01585,-0.14666,39.02214,-9.59226,-8.25907,-147.29240,68.77804,-110.94890,0.75393,-0.32713,0.56919,-0.02462,237.05600,333.03190,-701.99210
0.68279,0.82968,-0.09245,-2.81501,-8.32947,-1.60715,27.99805,-8.71564,-11.61625,-31.37757,119.84290,-50.12276,0.76504,-0.40896,0.48953,0.08844,-273.19360,729.05960,182.60000
0.63183,0.81050,-0.12585,-2.93818,-6.77607,-1.79342,20.92995,-6.20228,-9.53157,17.34387,98.68673,18.86342,0.77731,-0.40408,0.46950,0.10987,-374.47060,361.54610,311.36360
0.59622,0.77588,-0.12023,-2.82268,-5.85223,-1.32537,14.40280,-8.29507,-5.17192,10.20280,58.83205,53.08654,0.71442,-0.37116,0.57904,0.12871,-611.22340,-24.78297,28.41689
0.55475,0.75328,-0.08242,-2.95279,-5.10229,-0.48460,6.62257,-9.17157,-4.57051,-27.03545,37.18772,52.41787,0.62991,-0.34221,0.65351,0.24297,-420.16050,29.38492,-188.96020
0.49080,0.71477,-0.04809,-3.33318,-4.57205,0.17304,-0.37720,-4.15562,-5.70900,-36.74577,39.19665,36.20556,0.62825,-0.27006,0.59671,0.41990,-381.59890,410.55910,-219.38280
0.42185,0.68720,-0.01864,-3.72409,-3.98753,0.60819,-4.38870,3.02824,-7.69194,-20.52842,48.70271,26.74723,0.66081,-0.19729,0.42778,0.58430,-82.14232,592.13290,-292.73120
0.35855,0.67798,0.00674,-3.93952,-3.22432,0.87676,-5.27069,8.04537,-9.37160,4.49962,53.67669,9.19017,0.67301,-0.15664,0.24304,0.68077,4.98270,356.25060,-239.59500
0.30753,0.66548,0.02253,-3.88841,-2.68846,0.93486,-4.61333,7.14969,-9.03704,15.77792,39.27821,2.20170,0.65565,-0.17000,0.18894,0.71100,82.55475,-2.51093,-66.70583
0.27126,0.65881,0.03477,-3.67718,-2.21483,0.90540,-4.11638,3.84929,-7.27255,16.94257,28.18186,-5.51714,0.62671,-0.19726,0.22345,0.72000,-20.78746,-192.85490,163.93810
0.24031,0.64886,0.04111,-3.42617,-1.88315,0.80265,-3.67007,1.58345,-5.32263,13.11434,21.22122,-9.51092,0.60524,-0.21061,0.26275,0.72131,-26.51206,-162.76870,193.43620
0.20912,0.63924,0.04421,-3.20436,-1.61199,0.67353,-2.69223,1.52345,-4.25661,11.72030,20.43548,-9.19662,0.60995,-0.20926,0.25410,0.72083,59.30135,-43.27086,101.07830
0.17924,0.63378,0.04668,-3.00262,-1.33556,0.55838,-1.58547,2.62079,-3.99148,12.51021,19.03125,-7.28441,0.62793,-0.19921,0.20715,0.72326,99.88654,50.25591,5.80852
0.15003,0.63058,0.04930,-2.83269,-1.08141,0.47356,-0.85771,3.32476,-3.80333,11.17034,16.65212,-5.10446,0.64049,-0.18960,0.16241,0.72626,81.92693,48.57841,-8.37264
0.11976,0.62937,0.05112,-2.70925,-0.85460,0.39511,-0.60061,3.21534,-3.52426,7.36973,15.34568,-7.18711,0.64173,-0.18741,0.13583,0.73117,24.25206,6.38678,15.42300
0.08920,0.63015,0.05003,-2.63108,-0.64572,0.28758,-0.31998,2.20216,-3.33335,5.05161,15.20790,-8.87797,0.63870,-0.20623,0.12714,0.73032,12.47499,-57.20346,11.10459
0.05878,0.63425,0.04623,-2.56433,-0.42724,0.16352,-0.31134,0.42146,-2.99298,4.65567,15.45430,-9.14098,0.62661,-0.24173,0.14402,0.72676,-17.50042,-116.66090,23.90781
0.02936,0.64231,0.04060,-2.47846,-0.19323,0.03702,-0.27048,-1.40139,-2.78551,5.51331,14.41963,-6.15522,0.61114,-0.28768,0.16792,0.71802,-23.66623,-122.60980,20.61693
0.00535,0.65142,0.03699,-2.32499,0.01337,-0.02654,-0.22263,-2.19688,-2.84412,11.14547,11.82828,-1.19703,0.59758,-0.32431,0.17391,0.71238,-4.81425,-61.21217,-4.11796
-0.01783,0.65758,0.03676,-2.18617,0.11796,-0.02133,-0.35413,-2.20963,-2.70682,14.05379,8.31770,3.42042,0.58551,-0.34412,0.17355,0.71319,-4.08601,-28.15659,-4.45125
-0.03149,0.66642,0.04019,-1.92591,0.23786,0.04456,-0.67159,-1.76072,-2.30959,17.16833,6.79684,4.67965,0.57417,-0.34723,0.17293,0.72101,-20.85071,33.23706,20.38188
-0.04068,0.67364,0.04632,-1.64956,0.30523,0.14485,-0.81967,-0.77106,-1.94300,14.83959,2.48344,7.66360,0.56881,-0.33737,0.16190,0.73240,-12.25289,53.22596,20.51075
-0.05038,0.67816,0.05349,-1.43619,0.31236,0.23639,-0.54532,0.25814,-1.74000,15.45788,0.07148,5.12153,0.57228,-0.32439,0.14075,0.73990,24.86666,86.73264,10.54897
-0.05623,0.68176,0.06204,-1.19943,0.29616,0.33046,-0.35939,1.27053,-1.35521,27.59756,-3.91460,13.28804,0.57774,-0.30281,0.12140,0.74819,14.00366,30.35918,17.76673
-0.05212,0.68194,0.07722,-0.86575,0.22839,0.50860,-0.00071,2.67558,-0.97354,18.15431,-4.62999,8.77324,0.59149,-0.26445,0.08907,0.75649,66.62321,145.94280,16.84726
-0.05381,0.68476,0.08878,-0.70166,0.22189,0.58438,-0.65042,2.43861,-0.58699,10.43807,1.45990,1.63422,0.57995,-0.24981,0.09094,0.77005,-26.96698,9.88516,28.28671
-0.05590,0.69123,0.09599,-0.57824,0.27384,0.57052,-1.37490,1.73710,-0.49946,5.71637,4.04347,-2.68959,0.55901,-0.24977,0.10000,0.78430,-56.89747,-44.58321,24.80764
-0.05957,0.69673,0.10168,-0.50870,0.29739,0.53526,-1.45554,1.41353,-0.69477,5.30729,1.11253,-3.20624,0.54718,-0.25169,0.09475,0.79263,-16.99265,-32.55669,-12.10892
-0.06190,0.70107,0.10585,-0.43297,0.29702,0.48264,-1.44247,1.03552,-0.77733,5.79726,-0.88877,-4.78281,0.53728,-0.25581,0.09248,0.79834,0.06046,-24.12092,-6.17266
-0.06328,0.70377,0.10885,-0.35679,0.26816,0.42149,-1.47075,0.53616,-0.54682,5.40955,-3.48028,-4.10928,0.52817,-0.25985,0.10095,0.80207,-4.80793,-36.42927,14.92025
-0.06358,0.70412,0.11128,-0.28038,0.20772,0.36500,-1.36414,0.13116,-0.11886,5.63059,-5.25496,-3.93640,0.52412,-0.26061,0.11453,0.80266,7.72517,-25.45740,29.26443
-0.06222,0.70243,0.11270,-0.19275,0.12725,0.30398,-1.28209,-0.32330,0.46209,5.63881,-5.07521,-3.49944,0.52135,-0.26057,0.13620,0.80109,6.58921,-25.78148,38.95613
-0.05924,0.70120,0.11352,-0.09793,0.06420,0.24720,-1.37896,-0.75996,1.05374,5.89428,-2.99844,-3.28541,0.51506,-0.25968,0.16326,0.80039,-7.67647,-27.51558,41.80964
-0.05616,0.70085,0.11475,-0.02314,0.03454,0.21067,-1.40098,-0.91978,1.28881,5.98969,-1.63749,-2.71522,0.50881,-0.25838,0.18234,0.80069,-3.74324,-16.06857,28.42712
-0.05101,0.70082,0.11541,0.06897,0.01961,0.17347,-1.34842,-0.94156,1.33055,6.63971,-0.16434,-2.58297,0.50346,-0.25718,0.19635,0.80114,0.98465,-3.93399,8.47159
-0.04388,0.70145,0.11570,0.17355,0.01872,0.13920,-1.07354,-0.67074,1.07679,7.43833,0.39932,-2.05337,0.50294,-0.25493,0.19762,0.80188,14.25104,12.05669,-12.59687
-0.03460,0.70202,0.11622,0.29023,0.01699,0.11712,-0.58771,-0.09237,0.65540,8.54974,-0.23529,-0.95211,0.50921,-0.24891,0.18572,0.80265,30.29005,36.13578,-29.20486
-0.02298,0.70185,0.11741,0.41916,0.00626,0.11117,-0.07799,0.70838,0.24940,9.72075,-1.42101,0.24446,0.51988,-0.23634,0.16510,0.80412,35.91068,55.04995,-34.12915
-0.00790,0.70084,0.11920,0.57921,-0.02061,0.11829,0.30774,1.63365,0.08398,10.57876,-2.47575,0.83329,0.53247,-0.21415,0.14307,0.80632,25.27982,59.72081,-16.56320
0.00622,0.69960,0.12117,0.68211,-0.04137,0.12523,0.42632,2.16725,0.11253,10.53096,-2.28444,0.77982,0.54100,-0.19224,0.12847,0.80862,16.43136,55.38763,-0.85002
0.02571,0.69757,0.12334,0.84903,-0.06937,0.13320,0.46174,2.92681,0.21182,10.83350,-1.59346,0.27361,0.54966,-0.15990,0.11015,0.81251,5.01585,48.19035,5.28651
0.04643,0.69606,0.12489,1.00034,-0.08281,0.12874,0.48791,3.59251,0.24358,10.75099,-0.16046,-0.93807,0.55721,-0.12619,0.08968,0.81581,-0.85976,45.44885,9.75863
0.06715,0.69491,0.12584,1.11184,-0.08558,0.11552,0.63430,4.17858,0.02614,10.97109,0.34615,-1.66410,0.56574,-0.09443,0.06067,0.81691,5.75474,52.33253,-8.30051
0.09397,0.69414,0.12522,1.29410,-0.08394,0.08014,0.79111,5.15499,-0.41491,11.82902,-0.34630,-2.68741,0.57355,-0.05366,0.01486,0.81728,5.11148,64.99972,-32.42352
0.12158,0.69356,0.12353,1.44988,-0.08156,0.03506,0.66960,5.75254,-0.40132,11.32222,-0.23666,-3.88673,0.57515,-0.01031,-0.01805,0.81779,-5.28811,49.10065,-3.30858
0.14842,0.69304,0.12133,1.55449,-0.07665,-0.00677,0.48513,6.02883,-0.21156,10.51510,0.43446,-4.78198,0.57350,0.03190,-0.04279,0.81747,-7.94764,34.09589,18.16101
0.18251,0.69457,0.11328,1.75309,-0.04362,-0.13698,0.10876,6.28484,0.41422,7.89291,2.56644,-7.20013,0.56550,0.08349,-0.05608,0.81859,-5.29200,11.26527,33.56846
0.21201,0.69701,0.10609,1.83705,-0.00185,-0.22625,-0.06187,6.24634,0.78401,6.33007,4.35141,-8.00899,0.55916,0.12617,-0.06876,0.81651,-0.94738,0.50018,33.79325
0.24222,0.70222,0.09605,1.91190,0.07492,-0.34055,-0.26008,6.07226,1.21783,4.46328,6.66597,-8.58935,0.55010,0.16770,-0.07521,0.81463,0.55145,-8.99472,34.83418
0.27212,0.71030,0.08417,1.96328,0.18353,-0.45896,-0.48510,5.82824,1.59059,2.94935,8.84365,-8.30187,0.53819,0.20671,-0.07891,0.81326,-2.51523,-18.26367,31.51780
0.30168,0.72153,0.07070,1.99716,0.31767,-0.57561,-0.75005,5.66833,1.93301,1.68019,10.34224,-8.15675,0.52245,0.24672,-0.08198,0.81207,-6.99358,-14.02666,30.01571
0.33041,0.73538,0.05565,2.01074,0.46820,-0.69195,-1.02940,5.58506,2.22377,-0.02208,11.33503,-8.40384,0.50328,0.28744,-0.08535,0.81044,-9.80055,-7.79405,28.18884
0.35769,0.75321,0.03785,1.99422,0.64952,-0.82967,-1.33618,5.57529,2.39191,-2.54604,11.64505,-8.61650,0.48082,0.32769,-0.09144,0.80813,-12.87063,-2.80625,18.92896
0.38314,0.77075,0.02012,1.95218,0.78440,-0.93300,-1.58553,5.58372,2.33321,-4.86384,11.32400,-8.54217,0.45808,0.36471,-0.10259,0.80413,-18.38792,-0.52401,7.28421
0.40628,0.79005,0.00105,1.88437,0.91491,-1.03127,-1.81520,5.46772,2.31113,-6.47579,10.41380,-8.29038,0.43366,0.39829,-0.11181,0.80050,-22.47245,-7.56062,1.26952
0.42549,0.81369,-0.02064,1.76416,1.07714,-1.15019,-1.95009,5.11791,2.52007,-8.51195,9.45659,-7.17121,0.40863,0.42844,-0.11129,0.79817,-2.47616,-19.99151,16.89567
0.44366,0.83596,-0.04160,1.65718,1.18414,-1.22942,-1.97904,4.83227,2.65441,-9.52478,8.44939,-6.17740,0.38515,0.45732,-0.11045,0.79392,6.35828,-21.93666,16.81802
0.45839,0.85952,-0.06371,1.52170,1.29058,-1.30849,-1.94710,4.49340,2.77761,-10.07445,6.85744,-5.32876,0.36270,0.48304,-0.10687,0.78974,6.38184,-22.67095,10.15380
0.46969,0.88512,-0.08690,1.35653,1.39226,-1.38397,-1.80380,4.11139,2.97314,-10.69900,5.62412,-4.09804,0.34185,0.50716,-0.09814,0.78505,14.46788,-19.80132,10.50107
0.48063,0.90944,-0.10896,1.22699,1.45743,-1.42602,-1.62921,3.81421,3.18233,-10.95125,4.94636,-2.92213,0.32137,0.53130,-0.08703,0.77902,22.47761,-19.80922,14.24310
0.48809,0.93422,-0.13120,1.07259,1.51860,-1.46112,-1.44088,3.52532,3.37941,-11.37869,3.77705,-1.94924,0.30138,0.55392,-0.07330,0.77264,22.47804,-16.44849,13.74682
0.49085,0.95897,-0.15339,0.86943,1.56597,-1.48889,-1.30243,3.26127,3.38482,-11.51748,1.71820,-0.75073,0.28292,0.57356,-0.06283,0.76618,12.11564,-12.67105,1.43694
0.49506,0.98185,-0.17459,0.73657,1.57642,-1.49483,-1.29540,3.12231,3.25028,-11.00472,0.20914,-0.05385,0.26358,0.59252,-0.05798,0.75900,2.77201,-12.78637,-8.01026
0.49537,1.00375,-0.19527,0.56782,1.56728,-1.49093,-1.16935,2.96244,3.07418,-10.28017,-1.48003,0.40701,0.24812,0.60951,-0.05264,0.75111,3.76410,-10.29678,-12.09322
0.49520,1.02482,-0.21538,0.42779,1.54392,-1.47789,-0.89770,2.86772,3.00665,-9.75273,-2.21954,1.39104,0.23535,0.62775,-0.04307,0.74074,18.97752,-4.29197,-8.73433
0.49347,1.04486,-0.23472,0.29569,1.50915,-1.45432,-0.67226,2.80389,2.90119,-9.38940,-2.78882,2.16202,0.22370,0.64535,-0.03429,0.72959,16.75514,-2.33434,-9.44990
0.49100,1.06422,-0.25340,0.18553,1.47527,-1.42537,-0.47541,2.74638,2.81334,-9.14135,-3.02381,2.75567,0.21267,0.66228,-0.02510,0.71800,13.87525,-1.90915,-11.02525
0.48485,1.08252,-0.27056,0.04112,1.42574,-1.37508,-0.20588,2.65083,2.72507,-8.91756,-3.42312,3.67082,0.20463,0.67778,-0.01369,0.70608,17.29221,-2.69888,-7.27593
0.47830,1.09986,-0.28676,-0.07781,1.37447,-1.32156,-0.03670,2.55454,2.60065,-8.27414,-3.98267,4.22634,0.19661,0.69200,-0.00392,0.69460,13.61146,-5.11823,-9.53522
0.47118,1.11698,-0.30252,-0.17307,1.32420,-1.27214,0.00545,2.46936,2.42023,-7.64070,-4.47790,4.51214,0.18833,0.70501,0.00253,0.68373,6.70445,-5.95219,-13.86097
0.46214,1.13277,-0.31702,-0.27277,1.25907,-1.21336,-0.11985,2.36546,2.13888,-6.71880,-4.95677,4.49964,0.17956,0.71601,0.00305,0.67460,-6.47546,-8.27893,-17.52992
0.45178,1.14647,-0.33004,-0.37375,1.17793,-1.14407,-0.29812,2.26586,1.81455,-5.78308,-5.31658,4.46541,0.17118,0.72581,-0.00028,0.66625,-13.63523,-9.08038,-19.08267
0.44074,1.16073,-0.34241,-0.45393,1.10776,-1.08076,-0.46154,2.20219,1.59589,-5.13047,-5.21832,4.76375,0.16169,0.73594,-0.00341,0.65745,-12.76305,-6.00346,-14.97435
0.42977,1.17423,-0.35416,-0.51493,1.04844,-1.02401,-0.62213,2.15930,1.44193,-4.52625,-5.18401,4.87804,0.15122,0.74599,-0.00716,0.64852,-14.35098,-6.10342,-11.58691
0.41801,1.18595,-0.36413,-0.57724,0.98130,-0.95274,-0.86548,2.05420,1.31096,-4.13465,-4.75713,5.60174,0.13868,0.75432,-0.01344,0.64156,-15.15960,-5.99544,-8.68978
0.40574,1.19673,-0.37268,-0.63322,0.91576,-0.87576,-1.16707,1.85440,1.20877,-3.61277,-4.86347,5.60842,0.12382,0.75996,-0.02170,0.63769,-22.17174,-16.17400,-3.41322
0.39267,1.20628,-0.37937,-0.68870,0.84221,-0.78490,-1.36893,1.63296,1.13335,-2.89287,-4.80158,5.55080,0.10956,0.76421,-0.02902,0.63493,-15.17678,-15.57045,-2.69654
0.38040,1.21505,-0.38556,-0.72701,0.78370,-0.70532,-1.20499,1.57049,1.15282,-2.16775,-4.10161,5.28622,0.09987,0.77097,-0.02842,0.62835,5.48549,-8.46114,-0.51195
0.36756,1.22371,-0.39079,-0.76194,0.73209,-0.62960,-0.94313,1.57656,1.24143,-2.35838,-3.76780,5.44591,0.09121,0.77906,-0.02338,0.61984,21.41407,3.31104,4.12689
0.35458,1.23148,-0.39519,-0.79101,0.67794,-0.55776,-0.89443,1.53307,1.26468,-1.65421,-3.83695,5.43017,0.08064,0.78581,-0.02225,0.61279,9.77768,-0.15208,2.82354
0.34222,1.23813,-0.39873,-0.80664,0.62276,-0.48770,-1.12242,1.35944,1.25503,-0.75902,-3.90440,5.23912,0.06576,0.78945,-0.02723,0.60968,-11.29296,-10.72600,0.46698
0.32993,1.24413,-0.40132,-0.81501,0.56647,-0.41881,-1.36074,1.13609,1.25803,-0.19144,-4.43977,4.68540,0.04938,0.79112,-0.03341,0.60875,-19.31244,-18.12618,3.30240
0.31801,1.24921,-0.40307,-0.81524,0.50873,-0.35178,-1.26889,1.04036,1.23784,0.59391,-4.52962,4.29306,0.03850,0.79428,-0.03408,0.60537,-1.43710,-10.88243,0.19713
0.30692,1.25319,-0.40412,-0.80683,0.45185,-0.28759,-0.85020,1.10148,1.20239,0.86261,-4.35066,4.30449,0.03449,0.80024,-0.02732,0.59806,25.80506,3.79300,-3.65151
0.29608,1.25653,-0.40459,-0.79440,0.39540,-0.22865,-0.32325,1.22211,1.13823,1.22226,-4.04728,3.97728,0.03508,0.80753,-0.01642,0.58856,36.04749,9.92219,-7.10199
0.28564,1.25930,-0.40466,-0.77817,0.34293,-0.17688,0.15824,1.37612,1.06052,1.23286,-3.59159,3.61896,0.03773,0.81566,-0.00417,0.57729,35.42039,13.58973,-8.73096
0.27559,1.26138,-0.40451,-0.76156,0.29366,-0.13248,0.51757,1.52663,0.97779,1.30293,-3.42102,3.02935,0.04066,0.82398,0.00748,0.56511,26.75476,12.00829,-7.36562
0.26584,1.26291,-0.40420,-0.74345,0.24658,-0.09541,0.67733,1.63239,0.88619,1.32316,-3.16029,2.89831,0.04226,0.83186,0.01603,0.55314,15.65544,11.84142,-8.02113
0.25653,1.26378,-0.40358,-0.72255,0.19988,-0.06209,0.53947,1.55520,0.79919,1.60023,-3.20805,2.61252,0.03973,0.83700,0.01828,0.54546,-4.94349,-1.76242,-5.07567
0.24789,1.26401,-0.40280,-0.69664,0.15591,-0.03311,0.21652,1.36269,0.72401,1.95996,-2.83487,2.13684,0.03367,0.83995,0.01519,0.54141,-20.34855,-12.64234,-5.15209
0.23988,1.26374,-0.40181,-0.66624,0.11263,-0.00630,-0.25620,1.06713,0.71005,1.94089,-2.52025,1.45813,0.02286,0.84051,0.00754,0.54126,-29.52170,-20.20184,0.75230
0.23196,1.26366,-0.40090,-0.64182,0.08346,0.01189,-0.53027,0.90104,0.75989,1.84927,-1.87913,0.85523,0.01211,0.84197,0.00286,0.53938,-23.05167,-15.65625,3.51143
0.22417,1.26362,-0.40025,-0.62332,0.06342,0.02268,-0.61096,0.87800,0.83088,1.55642,-1.83505,0.60325,0.00262,0.84498,0.00170,0.53479,-10.58579,-6.10369,7.44486
0.21699,1.26279,-0.39957,-0.59780,0.03483,0.03281,-0.51753,0.96916,0.86229,1.94970,-2.12624,0.24205,-0.00391,0.84961,0.00384,0.52738,3.06028,3.76271,3.04372
0.21047,1.26167,-0.39902,-0.56650,0.00744,0.03660,-0.30102,1.19844,0.76492,2.59283,-2.17169,0.21412,-0.00509,0.85659,0.00759,0.51592,13.88202,15.29809,-6.27708
0.20461,1.26019,-0.39840,-0.53256,-0.01824,0.04206,-0.13239,1.29632,0.64392,2.78994,-2.26647,1.15480,-0.00494,0.86239,0.01085,0.50611,14.03309,16.56292,-10.52226
0.20004,1.25754,-0.39725,-0.48510,-0.05737,0.05606,-0.09028,1.13370,0.35641,3.20439,-1.98399,0.85956,-0.00140,0.86461,0.00922,0.50236,4.84929,-5.63271,-13.51851
0.19607,1.25545,-0.39638,-0.43742,-0.07842,0.06006,-0.28952,1.07045,0.25856,3.59247,-1.08193,0.46025,-0.00434,0.86769,0.00352,0.49708,-12.43101,-3.15586,-9.15126
0.19235,1.25331,-0.39568,-0.39819,-0.09456,0.06158,-0.46324,0.88467,0.21166,2.87672,-1.51735,0.06175,-0.00841,0.86863,-0.00238,0.49538,-14.37267,-14.70145,-1.09476
0.18927,1.25062,-0.39518,-0.35761,-0.11555,0.06030,-0.57696,0.72964,0.14061,2.43144,-1.28835,-0.36404,-0.01129,0.86928,-0.00852,0.49411,-10.08245,-12.16732,-3.89208
0.18616,1.24812,-0.39466,-0.32599,-0.12948,0.05725,-0.49715,0.73613,0.05058,2.27182,-0.94040,-0.41240,-0.01079,0.87182,-0.01086,0.48958,2.60377,-2.10972,-5.12634
0.18336,1.24582,-0.39426,-0.29720,-0.13617,0.05353,-0.29133,0.82255,-0.04246,1.92252,-0.22860,-0.35057,-0.00747,0.87555,-0.00990,0.48297,11.67659,4.61867,-8.73395
0.18042,1.24378,-0.39388,-0.27777,-0.13697,0.04990,-0.11122,0.91042,-0.09317,1.45319,0.14000,-0.21497,-0.00425,0.87957,-0.00788,0.47568,16.19390,7.37876,-5.63814
0.17781,1.24201,-0.39356,-0.25714,-0.13321,0.04579,0.01018,0.93708,-0.08439,1.24807,0.55899,0.03892,-0.00241,0.88299,-0.00552,0.46935,9.34279,3.33630,-1.69193
