posX, posY, posZ, velX, velY, velZ, angVelX, angVelY, angVelZ, accX, accY, accZ, rotX, rotY, rotZ, rotW, angAccX, angAccY, angAccZ
0.39308,1.16821,-0.38463,-0.17267,0.32595,-0.21988,0.80747,0.39685,0.27530,-1.41344,1.74319,-1.29850,0.11025,0.75200,-0.07113,0.64598,10.95553,3.02717,2.24301
0.38968,1.17418,-0.38863,-0.19135,0.35215,-0.23589,1.01894,0.43380,0.28267,-1.41386,2.03321,-1.07140,0.11602,0.75553,-0.06130,0.64184,15.48651,3.68463,0.36283
0.38598,1.18072,-0.39278,-0.21088,0.38210,-0.25061,1.20120,0.44602,0.27863,-1.57136,2.35931,-1.02095,0.12246,0.75864,-0.05110,0.63786,14.20110,1.43957,-0.52412
0.38197,1.18768,-0.39704,-0.23012,0.41072,-0.26346,1.31762,0.43288,0.27149,-1.77111,2.58428,-1.08902,0.12861,0.76114,-0.04137,0.63436,10.05294,-0.24039,-1.03313
0.37732,1.19556,-0.40168,-0.25656,0.44879,-0.27946,1.47724,0.41473,0.28367,-2.27455,2.73914,-1.19469,0.13573,0.76351,-0.02959,0.63068,11.46142,-0.49959,0.71500
0.37094,1.20391,-0.40659,-0.30774,0.48674,-0.29599,1.67399,0.09985,0.32160,-3.39282,2.34921,-1.84539,0.14430,0.76032,-0.01503,0.63314,9.06596,-9.82601,-9.04728
0.36517,1.21295,-0.41224,-0.33351,0.52640,-0.32137,1.69793,0.42448,0.37413,-0.45227,4.38248,-2.22928,0.14879,0.76751,-0.00464,0.62351,6.39433,1.90290,5.49889
0.35982,1.22329,-0.41832,-0.34746,0.57737,-0.34741,1.90332,0.58502,0.47946,-2.15859,2.84188,-2.08080,0.15523,0.77321,0.01187,0.61475,11.51036,13.36185,15.54274
0.35291,1.23398,-0.42519,-0.38429,0.62354,-0.38100,2.24674,0.77280,0.50217,-2.52799,2.97278,-2.07078,0.16656,0.77932,0.03106,0.60329,21.37848,12.91659,2.17547
0.34566,1.24526,-0.43210,-0.41747,0.66873,-0.40789,2.52043,0.91040,0.54501,-2.41168,3.54347,-1.73249,0.17739,0.78484,0.05088,0.59158,20.70238,10.90509,2.35018
0.33811,1.25695,-0.43906,-0.44825,0.70963,-0.42894,2.64583,0.97459,0.59683,-2.88937,3.55611,-1.55701,0.18620,0.78937,0.06937,0.58087,14.80090,7.23850,4.46918
0.32948,1.26970,-0.44661,-0.48916,0.75793,-0.45422,2.65843,1.04396,0.65682,-3.04483,3.62783,-1.72415,0.19293,0.79412,0.08619,0.56985,4.19830,3.93713,4.93153
0.32020,1.28310,-0.45461,-0.53041,0.80523,-0.48139,2.45663,1.08186,0.69749,-2.98484,3.37589,-1.74237,0.19589,0.79882,0.09795,0.56028,-9.29433,2.75753,5.38880
0.31084,1.29659,-0.46275,-0.56338,0.84304,-0.50403,2.20445,1.11996,0.69731,-2.69389,3.07149,-1.90657,0.19777,0.80364,0.10649,0.55110,-22.13195,0.32530,2.35632
0.30105,1.31066,-0.47100,-0.59503,0.88026,-0.52262,2.10084,1.22478,0.68699,-2.64761,3.03194,-1.66859,0.20163,0.80931,0.11646,0.53926,-15.20632,5.61372,0.61981
0.28991,1.32606,-0.47936,-0.64079,0.93020,-0.53871,2.19227,1.43927,0.72745,-3.02408,3.08560,-0.85221,0.20761,0.81662,0.13077,0.52242,2.88289,12.76952,3.37005
0.27791,1.34202,-0.48707,-0.69163,0.97903,-0.54167,2.45072,1.68319,0.82340,-3.36356,2.95731,0.29351,0.21532,0.82411,0.15032,0.50189,16.01097,15.82014,6.54608
0.26582,1.35770,-0.49419,-0.73205,1.01215,-0.53467,2.59390,1.81016,0.90137,-3.53595,2.64985,1.09022,0.22167,0.83016,0.16884,0.48289,15.83479,12.72682,6.88602
0.25258,1.37381,-0.50065,-0.78036,1.04364,-0.51870,2.60806,1.87265,0.97930,-3.50563,1.97327,1.60900,0.22571,0.83571,0.18537,0.46506,3.91307,5.12332,6.30976
0.23869,1.38984,-0.50617,-0.83079,1.06866,-0.49120,2.54743,1.90485,1.01548,-3.02264,1.18740,2.01097,0.22900,0.84076,0.19954,0.44819,-4.00641,1.01397,4.02171
0.22539,1.40538,-0.51163,-0.85855,1.07900,-0.46903,2.52791,1.92889,1.01387,-2.76830,0.82061,2.39908,0.23343,0.84502,0.21387,0.43094,-2.80975,1.73980,1.45583
0.21087,1.42098,-0.51542,-0.89923,1.08839,-0.42649,2.49782,1.94960,0.98514,-2.44866,0.36872,2.90909,0.23825,0.84879,0.22717,0.41374,-2.79428,1.36926,-1.20122
0.19601,1.43634,-0.51824,-0.93706,1.09179,-0.37696,2.53501,1.99804,0.96338,-2.34824,0.03415,3.19153,0.24400,0.85206,0.24174,0.39498,2.15449,2.79465,-1.59995
0.18129,1.45143,-0.52103,-0.96402,1.09016,-0.33793,2.50492,2.02441,0.95508,-2.15950,-0.27136,3.57930,0.24854,0.85522,0.25489,0.37665,0.48433,4.18942,-0.01086
0.16592,1.46621,-0.52222,-0.99519,1.08395,-0.28213,2.41536,2.00809,0.94475,-1.84137,-0.54586,3.52863,0.25194,0.85800,0.26637,0.35972,-6.42315,-1.61305,-0.13520
0.15063,1.48062,-0.52295,-1.01892,1.07332,-0.23057,2.44359,2.03907,0.93574,-1.59134,-0.99027,3.63905,0.25674,0.86004,0.27988,0.34069,-1.17026,0.86698,0.08806
0.13534,1.49456,-0.52278,-1.03728,1.05758,-0.17600,2.61838,2.12811,0.88658,-1.17166,-1.29665,3.75662,0.26477,0.86059,0.29613,0.31874,8.65256,6.41005,-2.92564
0.12011,1.50790,-0.52192,-1.05055,1.03669,-0.12214,2.85907,2.25972,0.82016,-0.80147,-1.69333,3.88381,0.27499,0.85977,0.31413,0.29410,16.68697,11.01167,-5.30136
0.10500,1.52034,-0.52018,-1.05968,1.00678,-0.06441,3.00733,2.37804,0.70826,-0.39638,-1.94110,3.73914,0.28621,0.85815,0.33013,0.26959,10.28620,10.10661,-6.96971
0.09002,1.53281,-0.51865,-1.06453,0.98353,-0.02361,2.98866,2.40118,0.64887,-0.40962,-1.97055,3.58308,0.29458,0.85675,0.34330,0.24770,1.27890,5.68301,-5.39496
0.07485,1.54490,-0.51660,-1.07040,0.95962,0.01495,2.84524,2.36558,0.61221,-0.46534,-2.06155,3.41445,0.30087,0.85585,0.35344,0.22823,-7.73065,-0.73223,-2.45056
0.05952,1.55604,-0.51344,-1.07766,0.92690,0.06294,2.57823,2.26154,0.56825,-0.41900,-2.01445,2.75729,0.30536,0.85564,0.35984,0.21248,-17.63084,-7.72145,-1.47977
0.04433,1.56715,-0.51021,-1.08089,0.89945,0.10168,2.46107,2.28048,0.55054,-0.14655,-1.79275,2.50462,0.31102,0.85489,0.36771,0.19291,-11.72771,-2.05414,-0.18669
0.02925,1.57801,-0.50634,-1.08137,0.87307,0.14116,2.50012,2.40334,0.53772,-0.06209,-1.92911,2.79376,0.31858,0.85281,0.37770,0.16901,-0.21149,7.88830,0.41084
0.01416,1.58830,-0.50181,-1.08176,0.84345,0.18234,2.58858,2.54089,0.53089,0.09972,-2.26600,3.10659,0.32671,0.84957,0.38859,0.14318,6.25424,10.47920,0.05298
-0.00060,1.59801,-0.49658,-1.07686,0.81117,0.22557,2.62818,2.59810,0.51447,0.60953,-2.48842,3.29141,0.33420,0.84562,0.39886,0.11893,4.48766,6.84351,-0.53192
-0.01505,1.60710,-0.49072,-1.06741,0.77567,0.26720,2.54066,2.54219,0.49406,0.89988,-2.80049,2.96599,0.33995,0.84214,0.40683,0.09863,-4.01828,-1.81777,-0.96595
-0.02895,1.61515,-0.48436,-1.05128,0.73074,0.30790,2.33446,2.42042,0.45370,1.16029,-2.92707,2.22951,0.34468,0.83958,0.41179,0.08207,-12.89283,-8.41086,-1.29282
-0.04257,1.62284,-0.47840,-1.03364,0.69047,0.33575,2.15085,2.32476,0.42001,1.39490,-2.89113,1.88727,0.34931,0.83700,0.41604,0.06574,-13.52467,-6.21682,-1.72861
-0.05594,1.62988,-0.47265,-1.01472,0.65030,0.35745,1.93954,2.26441,0.36258,1.32065,-2.73164,1.31941,0.35459,0.83478,0.41819,0.05025,-14.92724,-7.54348,-3.85696
-0.06914,1.63686,-0.46687,-0.99790,0.61846,0.37365,1.84193,2.31811,0.34292,1.38370,-2.44224,1.19725,0.36049,0.83191,0.42071,0.03117,-12.92226,1.61484,1.14297
-0.08194,1.64282,-0.46066,-0.97653,0.57793,0.39584,1.84823,2.45577,0.31983,1.39480,-2.44375,1.50950,0.36786,0.82755,0.42399,0.00878,-0.88548,8.76103,-0.23485
-0.09490,1.64857,-0.45447,-0.95875,0.54366,0.41742,1.88487,2.55495,0.31056,1.49230,-2.49510,1.80708,0.37483,0.82231,0.42792,-0.01388,2.76535,8.82155,-0.21049
-0.10745,1.65354,-0.44777,-0.93710,0.50361,0.44273,1.87007,2.60593,0.30680,1.73963,-2.63724,1.67239,0.38114,0.81720,0.43089,-0.03546,0.30136,3.67099,0.72911
-0.11917,1.65874,-0.44049,-0.91501,0.47347,0.46125,1.81149,2.61536,0.29858,1.99578,-2.62053,1.58235,0.38696,0.81225,0.43290,-0.05568,-3.41544,2.24130,-0.41789
-0.13028,1.66317,-0.43291,-0.88850,0.43815,0.48021,1.64308,2.55305,0.30276,2.08142,-2.63180,1.30199,0.39157,0.80888,0.43252,-0.07288,-9.43368,-3.35475,1.40208
-0.14058,1.66691,-0.42512,-0.85386,0.39899,0.49837,1.41139,2.44827,0.31940,2.27884,-2.37778,1.13385,0.39514,0.80691,0.43021,-0.08765,-14.43218,-6.77609,2.26767
-0.15087,1.67078,-0.41753,-0.82766,0.37071,0.51138,1.27220,2.36601,0.33140,2.16128,-2.27371,1.04287,0.39863,0.80418,0.42876,-0.10276,-12.37521,-7.77752,2.32606
-0.16036,1.67415,-0.40972,-0.79446,0.34125,0.52510,1.18037,2.33836,0.33317,2.46485,-1.84152,0.93339,0.40260,0.80089,0.42707,-0.11873,-8.02174,-4.00165,1.80474
-0.16919,1.67735,-0.40157,-0.75822,0.31579,0.54038,1.20231,2.40715,0.31663,2.54381,-1.88431,1.18776,0.40784,0.79553,0.42640,-0.13774,-0.70528,3.40938,-0.59068
-0.17735,1.68012,-0.39337,-0.71523,0.28547,0.55679,1.13383,2.38228,0.27728,3.14895,-2.05067,1.05475,0.41298,0.79080,0.42498,-0.15323,-2.33191,0.29014,-1.79218
-0.18527,1.68289,-0.38516,-0.67908,0.26322,0.56799,1.03544,2.29603,0.24888,3.12957,-1.92995,0.99566,0.41727,0.78688,0.42306,-0.16650,-8.87587,-5.92261,-1.53798
-0.19196,1.68482,-0.37645,-0.63198,0.23302,0.58322,0.97590,2.22051,0.20790,2.87732,-1.77323,0.82276,0.42176,0.78246,0.42152,-0.17947,-5.41936,-6.22518,-2.28083
-0.19831,1.68651,-0.36735,-0.59035,0.20741,0.59486,0.96164,2.20350,0.18812,3.08889,-1.89399,0.68157,0.42620,0.77735,0.41995,-0.19420,-1.04937,-0.28489,-1.95135
-0.20405,1.68776,-0.35832,-0.54873,0.18058,0.60290,0.89575,2.12571,0.16743,3.03633,-2.01424,0.32738,0.43015,0.77306,0.41792,-0.20664,-3.18706,-4.87564,-1.32892
-0.20923,1.68871,-0.34970,-0.50776,0.15472,0.60364,0.79508,2.04508,0.15543,2.90341,-1.80588,-0.28273,0.43392,0.76947,0.41488,-0.21795,-6.84730,-6.17501,-0.03872
-0.21361,1.68935,-0.34150,-0.46296,0.12863,0.59557,0.63646,1.95363,0.16830,2.70835,-1.53008,-0.79527,0.43724,0.76722,0.41020,-0.22785,-9.00290,-5.91206,1.40737
-0.21818,1.69023,-0.33363,-0.43192,0.11297,0.58513,0.49441,1.88219,0.21208,2.66167,-1.21847,-1.06492,0.43987,0.76555,0.40483,-0.23784,-10.49607,-5.69156,2.94294
-0.22213,1.69089,-0.32603,-0.39878,0.09741,0.57341,0.27167,1.67441,0.32507,2.28204,-1.20542,-0.78297,0.43948,0.76732,0.39829,-0.24380,-13.84025,-12.24226,8.59905
-0.22564,1.69128,-0.31842,-0.36657,0.08096,0.56352,0.13367,1.52663,0.40839,2.30130,-0.98554,-0.79874,0.43901,0.76862,0.39227,-0.25024,-12.09875,-14.33538,9.32196
-0.22881,1.69145,-0.31079,-0.33653,0.06496,0.55734,0.10440,1.46493,0.42388,2.37257,-1.46793,-0.45453,0.43981,0.76786,0.38762,-0.25827,-3.78171,-5.86360,2.75590
-0.23109,1.69079,-0.30322,-0.29826,0.03949,0.55251,0.15360,1.44889,0.36422,2.20446,-1.46246,-0.35301,0.44212,0.76502,0.38468,-0.26703,1.39697,-2.64766,-2.61566
-0.23334,1.69007,-0.29560,-0.26765,0.01875,0.54939,0.32153,1.56977,0.25539,1.81662,-1.15494,-0.26022,0.44642,0.75862,0.38333,-0.27975,8.28723,6.25234,-7.75663
-0.23568,1.68948,-0.28804,-0.24592,0.00519,0.54617,0.51207,1.73262,0.17954,1.72335,-1.01729,-0.40763,0.45081,0.75064,0.38238,-0.29512,15.25239,13.68446,-9.50763
-0.23525,1.68885,-0.28044,-0.21454,-0.00763,0.53933,0.64570,1.80210,0.17382,1.69378,-0.96096,-0.43559,0.45332,0.74371,0.38136,-0.30977,10.00587,7.60600,-2.17567
-0.23396,1.68827,-0.27282,-0.18732,-0.01731,0.53394,0.64073,1.68805,0.25207,1.37601,-0.74874,-0.44106,0.45280,0.74070,0.37940,-0.31999,1.64118,-6.39140,3.84382
-0.23279,1.68748,-0.26546,-0.15874,-0.02808,0.52867,0.63336,1.53891,0.35051,1.38521,-0.73958,-0.27453,0.45074,0.73875,0.37780,-0.32916,-0.11649,-9.20281,5.70474
-0.23414,1.68652,-0.25829,-0.14288,-0.03768,0.52570,0.63176,1.41686,0.40341,1.29409,-0.90123,-0.24076,0.44901,0.73649,0.37659,-0.33786,0.68144,-10.25330,4.43552
-0.23515,1.68523,-0.25121,-0.12409,-0.05038,0.52188,0.59640,1.21456,0.49341,1.19226,-0.75953,-0.22977,0.44526,0.73630,0.37562,-0.34428,-1.15357,-12.95016,5.55058
-0.23606,1.68390,-0.24410,-0.10906,-0.06093,0.51935,0.60801,1.09504,0.55614,0.93630,-0.64374,-0.17816,0.44167,0.73520,0.37499,-0.35184,0.19338,-10.44485,3.85818
-0.23681,1.68261,-0.23702,-0.09607,-0.06836,0.51671,0.63864,1.02643,0.58639,1.09988,-0.60008,-0.20049,0.43842,0.73336,0.37468,-0.35998,2.83626,-6.67246,3.49711
-0.23711,1.68093,-0.23003,-0.07878,-0.08063,0.51341,0.67966,0.94281,0.59666,1.08687,-0.90993,-0.30137,0.43495,0.73138,0.37527,-0.36754,3.73328,-4.60839,-0.34134
-0.23747,1.67921,-0.22321,-0.06618,-0.09078,0.50768,0.64716,0.79701,0.64231,0.87737,-0.72119,-0.48730,0.43040,0.73143,0.37511,-0.37291,-1.29842,-9.65707,2.25411
-0.23783,1.67740,-0.21654,-0.05669,-0.10016,0.50087,0.61887,0.65710,0.71234,0.45396,-0.70349,-0.52738,0.42476,0.73228,0.37482,-0.37796,-2.12868,-11.06510,4.77467
-0.23823,1.67546,-0.21012,-0.05014,-0.10941,0.49142,0.59207,0.55619,0.77274,0.37062,-0.63719,-0.79975,0.41905,0.73318,0.37427,-0.38310,-0.92975,-8.81045,4.18240
-0.23852,1.67342,-0.20397,-0.04317,-0.11806,0.47975,0.58656,0.51265,0.79671,0.51910,-0.56848,-0.86888,0.41399,0.73326,0.37376,-0.38891,-1.11561,-4.29372,2.86639
-0.23864,1.67121,-0.19800,-0.03505,-0.12780,0.46767,0.57539,0.49530,0.78296,0.58919,-0.71853,-0.83245,0.40987,0.73279,0.37322,-0.39462,-0.68631,-1.34227,-0.31728
-0.23864,1.66888,-0.19219,-0.02683,-0.13711,0.45575,0.58297,0.48827,0.73619,0.48019,-0.59481,-0.87899,0.40642,0.73160,0.37337,-0.40023,0.29811,-1.29664,-2.83886
-0.23866,1.66648,-0.18659,-0.02088,-0.14538,0.44315,0.59975,0.53461,0.67092,0.27156,-0.55027,-0.94933,0.40403,0.72929,0.37344,-0.40675,0.97648,2.94012,-4.48776
-0.23880,1.66405,-0.18126,-0.01832,-0.15222,0.42885,0.60148,0.58742,0.62861,0.13075,-0.46017,-1.06950,0.40179,0.72693,0.37295,-0.41357,-0.14081,3.96290,-3.66351
-0.23898,1.66163,-0.17602,-0.01700,-0.15706,0.41652,0.59537,0.62504,0.58774,0.08852,-0.34968,-1.03834,0.39976,0.72455,0.37240,-0.42016,-0.61312,3.28931,-1.85086
-0.23918,1.65922,-0.17131,-0.01653,-0.16080,0.39837,0.61909,0.70362,0.52069,-0.00533,-0.00207,-0.97638,0.39871,0.72080,0.37225,-0.42767,0.68236,4.67022,-3.67920
-0.23945,1.65701,-0.16637,-0.01716,-0.16032,0.38811,0.65649,0.76981,0.46946,-0.17936,0.17644,-0.76736,0.39742,0.71671,0.37243,-0.43552,1.89958,5.34851,-3.71421
-0.23987,1.65498,-0.16164,-0.02024,-0.15686,0.37679,0.72206,0.85403,0.42999,-0.24088,0.30817,-0.87384,0.39602,0.71165,0.37300,-0.44451,4.66631,6.50130,-3.25300
-0.24035,1.65307,-0.15707,-0.02353,-0.15229,0.36527,0.75695,0.86901,0.41977,-0.03515,0.22036,-0.84593,0.39383,0.70753,0.37356,-0.45251,3.27497,4.11001,-1.36143
-0.24075,1.65124,-0.15262,-0.02472,-0.14740,0.35462,0.75741,0.77275,0.41686,0.06687,0.40040,-0.78479,0.39065,0.70516,0.37477,-0.45792,0.57067,-5.46792,-0.31048
-0.24113,1.64948,-0.14822,-0.02541,-0.14249,0.34575,0.76189,0.65774,0.41244,-0.13281,0.42552,-0.73824,0.38695,0.70330,0.37661,-0.46239,-0.07053,-9.47062,-0.31953
-0.24157,1.64793,-0.14413,-0.02679,-0.13534,0.33392,0.79751,0.56728,0.40580,-0.04585,0.51765,-0.73257,0.38285,0.70105,0.37915,-0.46711,1.73028,-5.86776,-0.82589
-0.24196,1.64641,-0.14004,-0.02710,-0.12924,0.32451,0.82916,0.44396,0.39117,0.08012,0.33870,-0.69345,0.37830,0.69929,0.38251,-0.47071,2.89105,-6.65846,-1.43232
-0.24233,1.64498,-0.13613,-0.02696,-0.12305,0.31433,0.85168,0.27370,0.37710,-0.00017,0.60821,-0.82612,0.37292,0.69858,0.38673,-0.47260,1.52763,-12.37212,-0.99945
-0.24259,1.64375,-0.13247,-0.02502,-0.11503,0.30233,0.90409,0.20439,0.32546,0.09836,0.64389,-0.82941,0.36858,0.69615,0.39150,-0.47567,2.75261,-6.89466,-3.19733
-0.24267,1.64277,-0.12917,-0.02036,-0.10442,0.28681,0.97406,0.18899,0.23917,0.30733,0.67859,-1.04467,0.36522,0.69224,0.39706,-0.47933,4.80084,-0.61422,-6.45151
-0.24266,1.64185,-0.12587,-0.01532,-0.09535,0.27511,1.00366,0.14826,0.19224,0.63526,0.71456,-0.93183,0.36143,0.68918,0.40217,-0.48235,3.40588,-1.12391,-4.08270
-0.24239,1.64112,-0.12274,-0.00723,-0.08522,0.26342,1.00694,0.02141,0.13526,0.70022,0.73038,-0.88420,0.35722,0.68742,0.40826,-0.48288,1.32267,-7.33159,-4.29503
-0.24193,1.64083,-0.11997,0.00222,-0.07002,0.24810,0.96454,-0.15913,0.08613,0.48824,1.07042,-1.04548,0.35274,0.68729,0.41438,-0.48113,-2.28808,-11.71493,-4.00831
-0.24149,1.64090,-0.11745,0.00926,-0.05179,0.23197,0.91927,-0.25213,0.04500,0.34724,1.52082,-1.22381,0.34899,0.68664,0.41977,-0.48013,-3.02574,-8.37977,-3.64874
-0.24091,1.64144,-0.11527,0.01709,-0.03010,0.21379,0.90638,-0.21078,0.01993,0.59158,1.65983,-1.22591,0.34611,0.68427,0.42428,-0.48163,-2.12896,-0.08246,-1.75824
-0.23976,1.64232,-0.11328,0.03292,-0.00783,0.19692,0.91431,-0.09035,-0.05247,1.55329,1.61625,-1.13776,0.34512,0.67983,0.42892,-0.48452,0.28605,8.92049,-3.49110
-0.23783,1.64346,-0.11141,0.05841,0.01367,0.18202,0.90960,-0.02395,-0.17749,2.20848,1.54274,-1.09119,0.34536,0.67509,0.43457,-0.48593,0.43650,6.43165,-7.26826
-0.23512,1.64494,-0.10974,0.09104,0.03583,0.16722,0.88855,-0.01044,-0.33031,2.63598,1.60536,-1.10336,0.34653,0.67047,0.44106,-0.48566,-1.50338,2.37218,-10.33879
-0.23162,1.64669,-0.10833,0.12942,0.05719,0.15132,0.84230,-0.02759,-0.50100,2.98109,1.45888,-1.23636,0.34884,0.66600,0.44796,-0.48382,-2.67041,0.52149,-11.99032
-0.22729,1.64871,-0.10715,0.17289,0.07819,0.13564,0.78502,-0.06261,-0.67644,3.35830,1.56413,-0.90145,0.35204,0.66166,0.45526,-0.48064,-5.21495,-2.84398,-12.05995
-0.22197,1.65086,-0.10580,0.22287,0.09624,0.12648,0.78748,-0.10338,-0.89196,3.90841,1.23445,-0.51534,0.35598,0.65592,0.46468,-0.47657,-0.00031,0.40141,-15.19193
-0.21615,1.65312,-0.10423,0.26849,0.11166,0.12340,0.78947,-0.23230,-1.09930,3.98041,1.45109,-0.06849,0.35945,0.65098,0.47572,-0.46980,-0.68208,-7.52840,-16.82647
-0.20880,1.65603,-0.10227,0.32920,0.13461,0.12771,0.89009,-0.34275,-1.37273,3.61958,1.64355,0.58231,0.36346,0.64349,0.49029,-0.46198,4.18843,-7.57293,-18.02075
-0.20171,1.65911,-0.10003,0.37105,0.15477,0.13538,0.99705,-0.44888,-1.55126,3.46130,1.73293,0.64913,0.36601,0.63591,0.50512,-0.45444,9.39205,-5.74161,-16.17940
-0.19402,1.66278,-0.09750,0.41253,0.17991,0.14613,1.09315,-0.64522,-1.69964,2.68261,1.82846,0.82718,0.36677,0.62935,0.52151,-0.44432,6.27370,-13.68106,-12.97300
-0.18599,1.66707,-0.09463,0.45064,0.20971,0.16012,1.20432,-0.88226,-1.82688,2.17621,1.88241,0.92542,0.36582,0.62294,0.53939,-0.43264,6.20910,-14.36242,-9.24394
-0.17834,1.67135,-0.09176,0.47362,0.23246,0.17087,1.27134,-1.07111,-1.89740,1.70128,1.87790,0.88546,0.36428,0.61693,0.55640,-0.42085,4.06568,-16.12556,-7.47782
-0.17045,1.67626,-0.08853,0.49511,0.26033,0.18513,1.35761,-1.33990,-1.93887,1.02269,1.62392,0.89024,0.35991,0.61178,0.57492,-0.40702,3.42823,-16.62656,-4.54569
-0.16299,1.68094,-0.08535,0.50455,0.27801,0.19520,1.41582,-1.58602,-1.94131,0.71773,1.23968,0.74636,0.35418,0.60719,0.59303,-0.39268,3.76110,-18.80545,-1.87411
-0.15552,1.68583,-0.08195,0.51199,0.29506,0.20659,1.43476,-2.03697,-1.95658,0.39641,0.68783,0.47393,0.34442,0.60551,0.61301,-0.37276,-1.41840,-25.31816,-2.46688
-0.14799,1.69035,-0.07869,0.51911,0.30216,0.21325,1.47253,-2.30154,-2.01606,0.39629,0.40512,0.54219,0.33630,0.60144,0.63256,-0.35361,-1.33530,-21.89003,-5.88269
-0.14024,1.69454,-0.07549,0.52803,0.30165,0.21720,1.59097,-2.36121,-2.08030,0.65970,-0.22932,0.28670,0.32950,0.59359,0.65214,-0.33732,6.82279,-10.76263,-4.76367
-0.13199,1.69800,-0.07243,0.54359,0.28869,0.21769,1.77480,-2.36372,-2.20749,1.14236,-1.32427,-0.16772,0.32350,0.58222,0.67323,-0.32114,13.32724,-0.68003,-5.42896
-0.12362,1.70073,-0.06955,0.55762,0.26598,0.21509,1.87419,-2.42759,-2.34375,0.96792,-2.07840,-0.30057,0.31731,0.57128,0.69390,-0.30242,9.04284,-3.51438,-8.90286
-0.11534,1.70281,-0.06676,0.56637,0.23797,0.21143,1.90238,-2.57189,-2.47843,0.79973,-2.82580,-0.39317,0.31002,0.56121,0.71428,-0.28060,5.32540,-8.18419,-10.04354
-0.10719,1.70373,-0.06408,0.57074,0.19741,0.20710,1.82882,-2.86984,-2.69266,0.15490,-3.10620,-0.33922,0.30145,0.55287,0.73485,-0.25189,-3.97804,-16.81468,-17.26243
-0.09934,1.70405,-0.06148,0.56909,0.15649,0.20220,1.75936,-3.10632,-2.89569,-0.50542,-2.70788,-0.37367,0.29292,0.54378,0.75458,-0.22161,-6.72002,-17.14777,-19.53858
-0.09158,1.70407,-0.05902,0.56633,0.12030,0.19621,1.77307,-3.16449,-3.00627,-0.27636,-2.32967,-0.45358,0.28510,0.53209,0.77308,-0.19479,0.95428,-6.27917,-9.84192
-0.08366,1.70390,-0.05668,0.56703,0.08933,0.18971,1.85508,-3.07665,-3.06564,-0.08891,-2.00554,-0.49625,0.27880,0.51758,0.79062,-0.17115,6.03752,2.66896,-5.00539
-0.07560,1.70343,-0.05442,0.56986,0.06061,0.18341,1.98114,-2.87792,-3.04542,0.12596,-2.08546,-0.36139,0.27371,0.50098,0.80692,-0.15158,10.92489,11.00700,3.83517
-0.06766,1.70269,-0.05200,0.56987,0.03446,0.18121,2.06818,-2.74571,-3.02077,-0.04829,-2.40759,-0.02004,0.26800,0.48427,0.82238,-0.13174,10.33668,11.44500,6.45481
-0.06001,1.70079,-0.04926,0.56508,-0.00503,0.18489,2.16710,-2.64061,-2.99540,-0.34314,-2.62514,0.55045,0.26189,0.46644,0.83741,-0.11218,6.30099,5.25678,3.50319
-0.05255,1.69835,-0.04611,0.55830,-0.04474,0.19475,2.28483,-2.57340,-2.97321,-0.62931,-3.06010,0.86138,0.25500,0.44726,0.85227,-0.09260,8.23534,3.28941,3.45485
-0.04529,1.69508,-0.04257,0.54965,-0.08926,0.20867,2.43448,-2.50446,-2.97551,-0.58277,-3.26043,1.23318,0.24830,0.42587,0.86697,-0.07315,10.45063,2.51609,2.54585
-0.03818,1.69100,-0.03857,0.54052,-0.13668,0.22700,2.66421,-2.40382,-2.95022,-0.97328,-3.45686,1.35911,0.24170,0.40117,0.88177,-0.05578,15.20168,3.15918,3.29598
-0.03158,1.68601,-0.03439,0.52489,-0.18829,0.24395,2.95877,-2.29758,-2.86248,-1.37933,-3.72058,1.18272,0.23430,0.37345,0.89662,-0.04136,19.78242,2.44872,9.39645
-0.02589,1.67981,-0.02997,0.49707,-0.24911,0.26142,3.35726,-2.23479,-2.67549,-2.27059,-3.92650,1.04353,0.22430,0.34179,0.91210,-0.03083,24.24718,-0.71460,15.78223
-0.02096,1.67372,-0.02568,0.46313,-0.29364,0.27244,3.53700,-2.30068,-2.59437,-3.10573,-3.84750,0.85985,0.21238,0.31255,0.92571,-0.01637,17.35390,-8.02978,11.84627
-0.01752,1.66666,-0.02117,0.41284,-0.34301,0.28431,3.69279,-2.46311,-2.52823,-3.98897,-3.47606,0.83480,0.19714,0.28247,0.93880,-0.00078,8.28465,-12.73176,2.37011
-0.01583,1.65854,-0.01668,0.34411,-0.39981,0.29308,3.87752,-2.71580,-2.48196,-4.51737,-3.74523,0.22161,0.17815,0.25019,0.95154,0.01574,8.88004,-18.15646,2.46676
-0.01505,1.65005,-0.01287,0.27475,-0.45005,0.28805,4.00332,-2.94520,-2.52576,-5.30777,-3.62593,-1.04097,0.15879,0.21726,0.96249,0.03468,7.75492,-16.69021,-4.09214
-0.01496,1.64144,-0.00989,0.21171,-0.48960,0.27050,4.06401,-3.10990,-2.66210,-5.23051,-3.27008,-2.01646,0.14024,0.18413,0.97121,0.05646,6.01489,-14.68830,-10.97103
-0.01641,1.63214,-0.00809,0.13873,-0.53067,0.23771,4.18691,-3.25702,-2.76981,-5.38548,-2.43862,-2.77026,0.12072,0.14836,0.97843,0.07806,7.72017,-9.36149,-11.94276
-0.01945,1.62267,-0.00772,0.05484,-0.56513,0.18774,4.43996,-3.48073,-2.59990,-5.48874,-1.40465,-3.21270,0.09610,0.10896,0.98506,0.09249,11.55709,-15.52184,5.00523
-0.02300,1.61359,-0.00811,-0.01907,-0.58567,0.13625,4.68611,-3.81961,-2.24059,-5.40599,-1.22796,-4.08117,0.06538,0.06859,0.99038,0.10081,8.89514,-30.72559,20.26569
-0.02724,1.60477,-0.00963,-0.08610,-0.59684,0.07844,4.83753,-4.18095,-1.98302,-5.76325,-0.74074,-5.69706,0.03166,0.02849,0.99306,0.10966,4.88956,-36.42365,17.29424
-0.03345,1.59632,-0.01413,-0.16909,-0.59923,-0.01459,4.98420,-4.65544,-1.76323,-6.08521,0.31713,-7.54360,-0.00791,-0.01317,0.99290,0.11798,3.26187,-36.40426,6.73119
-0.04089,1.58874,-0.02144,-0.25309,-0.58634,-0.13251,5.11471,-5.26499,-1.51244,-6.03336,1.76950,-9.15413,-0.05477,-0.05612,0.98919,0.12392,2.00505,-44.28656,4.76572
-0.04918,1.58262,-0.03170,-0.33169,-0.55203,-0.27178,5.16637,-6.02188,-1.21690,-5.44310,3.41211,-10.54133,-0.11011,-0.09835,0.98092,0.12647,-3.80113,-55.63824,3.18511
-0.05888,1.57985,-0.04709,-0.41782,-0.46707,-0.47001,5.03813,-7.18969,-0.92621,-4.14662,6.19436,-11.27904,-0.18126,-0.13735,0.96557,0.12631,-11.24338,-65.35664,-6.36353
-0.06710,1.57820,-0.06144,-0.45921,-0.38256,-0.60539,4.74329,-8.08037,-0.80137,-2.99884,8.24918,-11.45530,-0.25125,-0.17036,0.94430,0.12708,-18.91120,-68.32159,-19.40468
-0.07518,1.58133,-0.08068,-0.48749,-0.23521,-0.79275,4.08430,-9.41004,-0.78361,-0.41827,10.31890,-12.11589,-0.33884,-0.19203,0.91243,0.12563,-33.12677,-77.71924,-36.22639
-0.08146,1.58591,-0.10024,-0.47824,-0.09902,-0.94029,3.44587,-10.32851,-0.98075,2.22893,12.52267,-12.87203,-0.42196,-0.20756,0.87333,0.12708,-31.65688,-70.21346,-54.89124
-0.08488,1.59567,-0.12392,-0.42211,0.09089,-1.12027,2.58768,-11.20141,-1.48991,6.54992,15.05949,-13.50032,-0.50893,-0.20923,0.82435,0.13291,-27.44241,-55.72964,-72.60764
-0.08353,1.61041,-0.15054,-0.29793,0.32046,-1.30745,1.68594,-11.72957,-2.27572,12.40292,17.99741,-13.91334,-0.59025,-0.19856,0.76889,0.14487,-17.65920,-31.63710,-88.16638
-0.07536,1.63056,-0.17973,-0.08724,0.58700,-1.49368,1.06531,-11.81566,-3.26503,19.80921,20.40921,-12.99141,-0.66037,-0.18241,0.70931,0.16589,6.32809,-6.51377,-87.05396
-0.05898,1.65601,-0.21040,0.21209,0.87971,-1.66090,0.92073,-11.68305,-4.49473,23.33009,20.11147,-10.93577,-0.72034,-0.16477,0.64329,0.20035,29.43494,36.85218,-75.11237
-0.03467,1.68466,-0.23975,0.56956,1.15348,-1.76363,0.78457,-10.98067,-4.80241,34.98291,25.63935,-6.62472,-0.76228,-0.15200,0.58900,0.22114,57.65016,11.88770,-36.82398
-0.02355,1.71415,-0.26474,1.13302,1.53225,-1.82060,0.36391,-10.39245,-5.60441,35.72394,23.23067,-0.76439,-0.80184,-0.12056,0.53039,0.24738,27.57918,48.81609,-44.82475
-0.00874,1.74395,-0.28885,1.58366,1.79287,-1.79690,-0.32322,-10.38247,-6.44559,39.18990,22.23626,4.46026,-0.84586,-0.07715,0.45648,0.26495,6.98825,13.59714,-74.20004
0.01252,1.77732,-0.30822,2.15720,2.07766,-1.68786,-1.35213,-10.37255,-7.83984,43.47586,19.67075,11.37322,-0.88441,-0.00660,0.37199,0.28177,1.99213,5.35843,-115.50550
0.04756,1.81165,-0.32120,2.77588,2.31656,-1.48290,-2.07485,-9.95174,-9.69135,47.64614,14.64761,19.45599,-0.90414,0.08280,0.28392,0.30834,42.40228,6.50812,-140.72630
0.09713,1.84538,-0.32401,3.46204,2.49437,-1.14887,-2.17603,-8.49601,-11.24846,51.19661,8.96710,28.92004,-0.89617,0.17565,0.21923,0.34346,86.66872,42.79948,-105.58650
0.15334,1.87587,-0.31580,4.16252,2.57547,-0.70343,-1.42643,-6.69565,-12.48691,50.52834,1.48672,36.19952,-0.86487,0.26280,0.16957,0.39267,147.73180,30.42143,-60.03949
0.21263,1.89933,-0.29230,4.95906,2.53348,-0.07128,-0.10174,-4.48347,-13.73691,50.56475,-6.74568,43.69009,-0.80655,0.35480,0.13717,0.45252,168.32110,22.93846,-33.38436
0.27689,1.92111,-0.26546,5.54938,2.40236,0.47468,1.09187,-2.96868,-14.95809,50.04136,-14.95152,48.25255,-0.73132,0.44698,0.09496,0.50632,182.16020,-9.55684,-60.60483
0.34714,1.93627,-0.22725,6.15079,2.15683,1.09623,2.46111,-1.32179,-16.29185,52.07985,-26.31325,55.75351,-0.62477,0.54376,0.06023,0.55711,181.53840,-23.95125,-85.45080
0.41925,1.92854,-0.16045,7.10518,1.50288,2.19196,6.37527,0.28641,-18.37147,54.38989,-50.92204,69.00738,-0.43564,0.62680,0.03703,0.64495,194.37790,-107.99350,-128.30700
0.50020,1.90277,-0.08571,7.86688,0.56255,3.21946,10.79843,0.49307,-20.51759,54.15594,-91.58564,78.58554,-0.19572,0.66356,-0.00415,0.72205,157.11310,-200.53530,-209.81640
0.58530,1.83769,-0.00208,8.39181,-0.85936,4.14065,14.26415,0.63071,-22.98150,31.04161,-150.20920,73.02866,0.08073,0.66690,-0.05697,0.73857,151.89830,-150.53340,-323.73290
0.62403,1.66698,0.08550,8.27977,-3.89995,5.06213,18.97345,0.46564,-24.97574,-58.01532,-224.86550,31.83223,0.39402,0.59298,-0.08116,0.69752,125.70850,-128.09160,-269.27520
0.61046,1.47439,0.13439,6.99621,-6.63299,5.07418,21.67077,-0.41565,-24.09060,-156.79600,-217.91870,-33.38643,0.61367,0.47708,-0.07155,0.62505,25.95268,-139.35240,-245.19800
0.48239,1.27507,0.11820,4.16506,-9.16879,4.10932,25.55351,-0.49925,-18.49204,-225.80130,-138.47050,-102.10450,0.76201,0.36634,0.07330,0.52892,-131.35500,-296.23880,-150.62320
0.68588,1.02714,0.16229,0.95148,-10.40755,2.58731,33.91301,-2.89487,-9.87270,-218.68830,-53.61045,-124.63660,0.86045,0.15448,0.36918,0.31539,156.57510,-531.57870,-569.64490
0.66535,0.85242,0.11403,-1.86591,-10.59624,0.57045,40.32586,-11.31433,-3.93278,-167.87830,36.61583,-149.94900,0.78346,-0.20935,0.58315,0.04790,653.21450,-37.38179,-718.45340
0.58193,0.77385,0.01293,-3.56978,-9.41774,-1.52608,34.04668,-17.57076,-6.09023,-80.14962,116.81120,-115.94330,0.66224,-0.45819,0.59186,0.03449,319.20980,460.82870,-435.05830
0.53001,0.73891,-0.06174,-3.91163,-7.90613,-2.50677,25.96593,-12.21016,-8.67029,-1.30564,118.37710,-37.60734,0.70305,-0.49622,0.50267,0.08250,-259.75900,691.53550,333.30480
0.49988,0.73203,-0.09166,-3.72998,-6.31075,-2.52020,16.39739,-5.36754,-7.43247,26.13837,82.88270,27.44625,0.77862,-0.40317,0.43793,0.19855,-382.26640,546.23300,416.23220
0.46263,0.71562,-0.08819,-3.59185,-5.17886,-1.95414,10.33019,-6.10290,-4.06642,5.30773,62.33820,43.08532,0.74146,-0.35858,0.51654,0.23420,-442.61330,34.56418,58.64697
0.40830,0.68666,-0.08131,-3.70664,-4.50264,-1.43743,6.16579,-8.22489,-4.42472,-21.61979,53.56823,40.18122,0.65166,-0.39948,0.58191,0.27772,-387.68510,-99.54598,-153.31100
0.33905,0.67270,-0.06223,-4.03090,-3.75030,-0.85337,1.93888,-5.10590,-6.41364,-25.83580,45.54514,30.59501,0.62129,-0.40840,0.53808,0.39710,-157.25690,246.82450,-170.48610
0.27128,0.65526,-0.04970,-4.24131,-3.21592,-0.49220,0.01189,-0.38543,-7.78783,-14.93319,47.11030,28.14289,0.63494,-0.40171,0.43346,0.49758,8.42197,400.56260,-139.24650
0.21147,0.65099,-0.03074,-4.29554,-2.59756,-0.10545,-0.81658,4.96098,-8.66204,6.04275,44.00683,27.38083,0.66543,-0.36789,0.27771,0.58714,130.94830,410.27560,-109.29680
0.16675,0.65204,-0.00798,-4.12127,-2.02867,0.25228,-1.06339,7.22865,-9.06992,22.73939,37.75315,24.86320,0.66206,-0.35248,0.16063,0.64158,84.83315,203.77740,-73.83678
0.13981,0.65525,0.01821,-3.71000,-1.54087,0.59072,-1.95280,6.58791,-7.82789,31.97122,23.56713,18.71943,0.64074,-0.33647,0.13174,0.67741,-7.99759,16.68721,80.81635
0.12099,0.65083,0.04135,-3.25816,-1.26505,0.81779,-3.37193,5.07574,-6.09331,31.33548,17.00107,13.90383,0.60633,-0.31762,0.14799,0.71385,-83.85918,-52.37355,165.37530
0.10466,0.64324,0.06152,-2.86743,-1.09369,0.95219,-4.30604,4.48385,-4.52085,29.25799,14.26200,8.49315,0.57823,-0.28580,0.15565,0.74816,-62.22273,-7.01076,166.81270
0.09507,0.63865,0.07915,-2.46352,-0.90990,1.01750,-4.57423,4.65228,-2.88375,24.63636,15.30671,0.38081,0.56542,-0.23735,0.15509,0.77454,2.67736,37.60156,127.31310
0.08484,0.63842,0.09056,-2.14398,-0.70582,0.97103,-3.75066,5.27016,-2.04249,18.02292,16.54715,-7.02235,0.57133,-0.19526,0.12685,0.78699,70.08940,50.03462,48.39608
0.07068,0.64039,0.09730,-1.94834,-0.51809,0.86627,-2.60931,5.76432,-2.10116,12.80984,16.63574,-10.79611,0.58059,-0.16932,0.07862,0.79251,91.93100,34.29521,-25.83679
0.05786,0.64927,0.09724,-1.79071,-0.26661,0.68139,-1.29552,5.68283,-2.79848,7.35974,14.46055,-12.25000,0.59119,-0.16783,0.02136,0.78859,68.04070,-10.07140,-74.08018
0.04540,0.65794,0.09508,-1.71384,-0.07411,0.52117,-0.83186,4.61021,-3.18872,4.46283,11.59453,-11.22089,0.58688,-0.18318,-0.00793,0.78864,20.36088,-68.33256,-46.12659
0.02666,0.66743,0.09220,-1.65975,0.10025,0.36258,-0.96785,2.62540,-2.94027,3.09169,8.87386,-9.11192,0.57374,-0.21338,0.00090,0.79075,-25.10924,-117.93670,18.25420
0.00853,0.67575,0.09038,-1.60724,0.21223,0.24972,-1.27441,0.88026,-2.32635,3.22845,6.90067,-6.82353,0.55861,-0.24003,0.02417,0.79357,-37.67524,-121.02040,52.22776
-0.00754,0.68452,0.08808,-1.53306,0.30993,0.15503,-1.67368,-0.71247,-1.59403,4.15843,5.55600,-4.71386,0.54056,-0.26731,0.05818,0.79558,-37.33215,-97.78321,56.95223
-0.02439,0.69221,0.08720,-1.46803,0.36672,0.10506,-1.85466,-1.47567,-1.21960,5.00866,4.77797,-3.26810,0.52443,-0.28738,0.07863,0.79763,-32.02534,-71.01151,45.52694
-0.03785,0.70040,0.08622,-1.37470,0.41557,0.06739,-1.78906,-1.87583,-1.06090,6.15238,3.17760,-1.41688,0.51237,-0.30611,0.09131,0.79715,-4.39262,-39.65633,17.33327
-0.04856,0.70885,0.08631,-1.25727,0.45900,0.05480,-1.69948,-2.02275,-0.97330,7.00928,2.59176,0.40997,0.50143,-0.32142,0.09952,0.79709,7.54066,-9.58937,7.40087
-0.05923,0.71771,0.08773,-1.15005,0.50024,0.06671,-1.73410,-2.03198,-1.00931,7.88058,3.21955,1.40951,0.48715,-0.33552,0.10461,0.79948,-3.11149,-3.63867,1.57898
-0.06855,0.72692,0.08958,-1.04525,0.53545,0.08510,-1.79576,-1.93012,-1.10802,9.00110,2.52277,2.02599,0.47147,-0.34796,0.10640,0.80332,-1.10947,4.68211,-9.67278
-0.07451,0.73640,0.09237,-0.91193,0.56639,0.11428,-2.01917,-1.78176,-1.14794,9.92323,1.63032,2.41046,0.45180,-0.35737,0.10949,0.81005,-9.26501,10.76737,-5.62044
-0.07678,0.74530,0.09553,-0.74272,0.58041,0.14249,-2.27568,-1.72400,-1.03013,9.97668,-0.80957,2.73667,0.43078,-0.36588,0.11769,0.81653,-15.33244,-4.90165,-5.54167
-0.07921,0.75235,0.10007,-0.60985,0.55890,0.18819,-2.49109,-1.34069,-0.75602,9.54358,-2.43025,3.14816,0.41236,-0.36316,0.12602,0.82595,-22.00034,31.17401,16.84976
-0.08051,0.75810,0.10436,-0.49097,0.52240,0.21762,-2.57878,-1.14147,-0.53030,10.76626,-3.80354,1.85204,0.39573,-0.36242,0.13533,0.83290,-4.94779,24.42593,13.42459
-0.07836,0.76199,0.10847,-0.34412,0.46320,0.23721,-2.61580,-0.88811,-0.12110,10.16238,-4.55727,1.05527,0.38251,-0.35586,0.14910,0.83954,-10.39748,21.64682,25.36483
-0.07514,0.76450,0.11244,-0.21064,0.38981,0.25239,-2.24892,-0.56112,0.04691,8.97585,-5.19467,0.80608,0.37851,-0.34961,0.15348,0.84318,17.30664,25.16051,15.76487
-0.07080,0.76552,0.11621,-0.08925,0.30963,0.26113,-1.75904,-0.26866,0.09557,8.64470,-6.19801,0.52175,0.37938,-0.34446,0.15290,0.84501,37.02450,23.14768,-0.27797
-0.06533,0.76507,0.11967,0.02323,0.22645,0.26099,-1.42146,-0.04854,0.23157,7.97487,-6.25016,-0.38561,0.38026,-0.33798,0.15543,0.84676,27.55974,18.75792,6.88416
-0.05775,0.76241,0.12221,0.15107,0.12004,0.24679,-1.05030,0.16129,0.44014,6.59940,-5.70838,-1.07930,0.38475,-0.32982,0.15930,0.84724,17.51741,12.68776,13.30813
-0.05077,0.75972,0.12456,0.23869,0.04008,0.23029,-0.64244,0.31848,0.45966,6.20040,-5.66919,-1.39736,0.39059,-0.32419,0.15858,0.84687,27.35609,12.77327,1.14550
-0.04354,0.75661,0.12653,0.31042,-0.02596,0.21134,-0.29167,0.46767,0.48919,6.12447,-5.57476,-1.65449,0.39787,-0.31782,0.15740,0.84612,29.79756,12.32322,0.13669
-0.03429,0.75165,0.12751,0.40229,-0.10955,0.18126,0.21117,0.69853,0.50818,5.72253,-5.06261,-2.00811,0.41143,-0.30953,0.15254,0.84359,30.62562,15.04348,1.08948
-0.02452,0.74634,0.12819,0.47881,-0.17773,0.15136,0.68951,0.90350,0.47848,5.49783,-4.82294,-2.25452,0.42671,-0.30149,0.14538,0.84017,33.53720,15.60124,-3.50513
-0.01458,0.74065,0.12860,0.54053,-0.23020,0.12407,1.01921,1.05564,0.53342,5.38306,-4.25384,-2.12621,0.44196,-0.29234,0.14039,0.83636,31.71027,14.89883,-0.23369
-0.00345,0.73450,0.12837,0.60732,-0.27650,0.09314,1.17886,1.19694,0.68470,4.67756,-2.97776,-2.02649,0.45606,-0.28061,0.13866,0.83309,16.38449,11.11839,9.65357
0.00827,0.72864,0.12780,0.66530,-0.30791,0.06305,1.18412,1.29153,0.83312,4.00131,-1.87480,-2.12775,0.46728,-0.26820,0.13900,0.83090,2.20479,7.12362,11.32947
0.02004,0.72303,0.12665,0.71538,-0.32700,0.03121,1.13951,1.36159,0.94783,3.49398,-0.93497,-2.30685,0.47708,-0.25556,0.13987,0.82917,-2.44718,4.39041,10.48543
0.03240,0.71761,0.12492,0.76505,-0.33808,-0.00311,1.10461,1.45471,0.93816,3.02714,-0.39311,-1.95633,0.48605,-0.24321,0.13775,0.82803,-3.36631,5.09402,1.01960
0.04486,0.71258,0.12351,0.80025,-0.34221,-0.02532,1.09521,1.57089,0.88188,2.87995,-0.22759,-1.75996,0.49507,-0.23052,0.13351,0.82701,-1.88941,8.07884,-2.87085
0.05786,0.70743,0.12171,0.83778,-0.34600,-0.04803,1.12864,1.74874,0.75650,2.60476,-0.24080,-1.46600,0.50469,-0.21677,0.12554,0.82616,0.10101,12.67845,-6.87133
