posX, posY, posZ, velX, velY, velZ, angVelX, angVelY, angVelZ, accX, accY, accZ, rotX, rotY, rotZ, rotW, angAccX, angAccY, angAccZ
0.30560,1.01580,-0.35902,-0.02306,0.21226,-0.21047,1.43934,0.04486,-0.08854,-0.43525,0.80055,-1.43089,0.22777,0.72809,-0.17804,0.62153,12.13855,-9.83930,-2.03530
0.30473,1.01972,-0.36333,-0.03248,0.23351,-0.23202,2.09194,0.05727,-0.11693,-0.61239,1.76686,-1.36040,0.24810,0.73336,-0.15628,0.61335,43.60316,0.55622,-1.56335
0.30388,1.02384,-0.36753,-0.03912,0.25039,-0.24648,2.30063,0.04728,-0.13089,-0.78908,2.35801,-0.99864,0.26223,0.73630,-0.14124,0.60758,34.94862,1.27550,-1.78015
0.30260,1.02944,-0.37233,-0.05092,0.28689,-0.26704,2.25185,-0.02397,-0.15942,-0.72313,3.05903,-1.08329,0.27278,0.73656,-0.13124,0.60486,-0.73729,-3.78233,-2.66542
0.30123,1.03628,-0.37717,-0.06239,0.33675,-0.28440,2.16480,-0.09269,-0.12584,-1.01060,4.28483,-1.43584,0.28098,0.73661,-0.12122,0.60312,-7.11074,-5.29554,-0.14295
0.29905,1.04473,-0.38253,-0.08367,0.40018,-0.30556,2.03403,-0.14991,-0.13676,-1.24242,5.53240,-1.71466,0.28885,0.73593,-0.11345,0.60175,-8.07133,-4.99426,-4.53328
0.29623,1.05572,-0.38846,-0.11024,0.49065,-0.33201,1.84501,-0.19342,0.19908,-2.00222,5.63663,-1.73319,0.28658,0.73789,-0.10070,0.60270,-11.40699,-4.40478,24.91756
0.29337,1.06620,-0.39444,-0.13173,0.55463,-0.35307,1.84791,-0.21883,0.34068,-1.78990,5.00811,-2.21911,0.29013,0.73937,-0.08691,0.60134,-8.18644,-5.97063,12.06579
0.29016,1.07738,-0.40086,-0.15348,0.61383,-0.37548,2.04382,-0.22150,0.47100,-1.80345,4.65466,-2.18370,0.29683,0.74180,-0.06796,0.59749,10.16930,-1.83308,11.64567
0.28646,1.08998,-0.40808,-0.17736,0.67835,-0.40525,2.41008,-0.18413,0.60125,-1.68700,4.51757,-2.45437,0.30682,0.74544,-0.04334,0.59018,24.94785,0.50788,10.22151
0.28222,1.10327,-0.41644,-0.20549,0.74617,-0.44626,2.72907,-0.04960,0.71489,-1.82704,4.30515,-2.47551,0.31659,0.75074,-0.01870,0.57949,22.44113,7.26151,9.13966
0.27804,1.11629,-0.42476,-0.22673,0.79347,-0.47746,2.76540,0.05021,0.74978,-1.92239,4.14306,-2.23234,0.32339,0.75471,-0.00070,0.57082,10.12056,8.91920,6.04956
0.27305,1.13030,-0.43376,-0.25535,0.84436,-0.51242,2.49026,0.10765,0.74535,-2.66657,3.62267,-2.21470,0.32505,0.75762,0.00904,0.56593,-14.46896,5.32044,2.09297
0.26725,1.14485,-0.44363,-0.29105,0.89889,-0.55326,2.18906,0.23857,0.68532,-1.28906,3.70065,-3.12405,0.32645,0.76137,0.01458,0.55994,-23.80745,3.78446,-6.06939
0.26216,1.15931,-0.45312,-0.30808,0.93537,-0.57904,2.18638,0.37946,0.73633,-1.92101,3.50653,-2.91995,0.32970,0.76685,0.02776,0.54997,-9.46739,14.88377,6.34043
0.25524,1.17585,-0.46423,-0.34984,1.00038,-0.62425,2.48081,0.66251,0.83372,-2.71258,3.71178,-2.55240,0.33680,0.77553,0.04769,0.53183,15.32261,15.27396,7.20597
0.24796,1.19207,-0.47493,-0.38904,1.04940,-0.65381,2.66523,0.89089,0.92759,-2.88428,3.63345,-1.49209,0.34251,0.78375,0.06679,0.51377,18.05527,17.09877,9.10721
0.24012,1.20885,-0.48547,-0.42832,1.09368,-0.67417,2.56487,1.04899,0.98714,-2.99647,3.12691,-0.90880,0.34405,0.79141,0.07946,0.49898,-2.70627,11.18592,7.12289
0.23214,1.22486,-0.49553,-0.46300,1.12572,-0.68373,2.38696,1.16110,1.00079,-3.05168,2.68612,-0.44322,0.34458,0.79846,0.08884,0.48562,-14.45358,8.44413,4.95881
0.22294,1.24096,-0.50535,-0.51136,1.16221,-0.68412,2.13232,1.26529,1.01193,-3.17597,2.31833,0.29172,0.34312,0.80591,0.09504,0.47302,-17.19880,5.34077,3.56289
0.21289,1.25812,-0.51428,-0.56073,1.19498,-0.67172,2.03359,1.34691,1.04251,-3.11112,2.00025,0.91688,0.34284,0.81292,0.10425,0.45909,-9.29870,4.49879,3.10143
0.20290,1.27491,-0.52259,-0.59799,1.21539,-0.65492,2.08361,1.41630,1.07204,-3.14987,1.68694,1.51437,0.34446,0.81929,0.11682,0.44325,1.48916,5.43554,2.94612
0.19199,1.29177,-0.53012,-0.64077,1.23336,-0.62819,2.18136,1.48628,1.10314,-3.06084,1.16965,2.17113,0.34670,0.82538,0.13091,0.42592,6.66785,5.60880,2.46950
0.18055,1.30886,-0.53682,-0.68159,1.24464,-0.59523,2.30409,1.54433,1.11264,-2.92357,0.64111,2.50717,0.34986,0.83066,0.14587,0.40783,8.11191,4.47526,0.94075
0.16848,1.32509,-0.54246,-0.72477,1.24779,-0.55304,2.38257,1.62495,1.07942,-2.57435,0.09920,2.94893,0.35373,0.83559,0.15924,0.38898,6.23913,5.66554,-1.39049
0.15667,1.34145,-0.54802,-0.75338,1.24566,-0.51753,2.34251,1.66841,1.03635,-2.34519,-0.15663,3.34045,0.35640,0.84020,0.16982,0.37176,-0.98199,5.19973,-2.75449
0.14396,1.35767,-0.55182,-0.78908,1.23985,-0.46385,2.17093,1.66907,1.00220,-2.15778,-0.33463,3.58223,0.35693,0.84484,0.17692,0.35713,-10.96479,-0.17303,-1.35757
0.13113,1.37378,-0.55488,-0.81880,1.23287,-0.41165,2.04997,1.66039,1.00125,-2.04220,-0.40086,3.86751,0.35684,0.84929,0.18480,0.34239,-9.46480,-1.20675,0.31977
0.11814,1.38999,-0.55748,-0.84347,1.22607,-0.36344,1.94973,1.63773,1.03675,-2.05344,-0.55853,4.17646,0.35553,0.85373,0.19317,0.32778,-7.89291,-2.12946,2.25669
0.10449,1.40586,-0.55854,-0.87199,1.21378,-0.30406,1.87915,1.59141,1.06432,-2.00427,-1.03068,4.11680,0.35403,0.85754,0.20195,0.31386,-6.63889,-4.19485,3.05814
0.09068,1.42116,-0.55867,-0.89675,1.19574,-0.24424,1.98418,1.61347,1.05496,-1.59953,-1.40186,4.04205,0.35550,0.86022,0.21404,0.29637,3.99396,-0.24807,-0.39539
0.07701,1.43620,-0.55858,-0.91351,1.17569,-0.19366,2.09005,1.64918,1.00975,-1.28374,-1.86525,4.35354,0.35835,0.86208,0.22616,0.27795,10.75393,5.33312,-3.65896
0.06314,1.45023,-0.55661,-0.92980,1.14411,-0.12636,2.03113,1.65769,0.92918,-0.73357,-1.95672,4.48282,0.36071,0.86400,0.23386,0.26212,-2.26412,2.02066,-4.82948
0.04930,1.46382,-0.55373,-0.94309,1.11327,-0.05838,1.84176,1.57646,0.91134,-0.87242,-1.82697,4.15037,0.35964,0.86651,0.23906,0.25036,-11.62588,-5.76156,-1.71470
0.03539,1.47771,-0.55114,-0.95394,1.09123,-0.00837,1.76216,1.54268,0.92408,-0.78667,-1.64552,3.99495,0.35854,0.86888,0.24606,0.23655,-10.42726,-4.72056,1.94485
0.02130,1.49091,-0.54663,-0.96510,1.06225,0.05934,1.77571,1.50757,0.93923,-0.67231,-2.04528,4.21462,0.35785,0.87035,0.25533,0.22191,1.28262,-1.76167,1.24658
0.00737,1.50356,-0.54183,-0.97152,1.03138,0.11726,1.78908,1.48123,0.91576,-0.21822,-2.30568,4.05502,0.35810,0.87115,0.26423,0.20746,0.65021,-2.18120,-1.14028
-0.00630,1.51625,-0.53733,-0.97236,1.00712,0.15778,1.81439,1.45925,0.86723,-0.06331,-2.53822,3.91782,0.35927,0.87121,0.27328,0.19298,1.44875,-1.20429,-3.56657
-0.01973,1.52692,-0.53046,-0.96934,0.95861,0.22407,1.91245,1.47778,0.73662,0.43973,-2.77308,3.42843,0.36391,0.86942,0.28332,0.17724,4.74254,2.35201,-7.24073
-0.03282,1.53796,-0.52451,-0.96268,0.92545,0.26443,1.95567,1.51120,0.63634,0.61667,-2.78913,3.32695,0.36818,0.86783,0.29204,0.16130,3.40188,5.00176,-8.40059
-0.04570,1.54769,-0.51719,-0.95343,0.87884,0.31644,2.00092,1.52029,0.51204,0.70835,-2.97060,3.30553,0.37354,0.86519,0.30096,0.14605,1.32009,1.80328,-7.27917
-0.05839,1.55697,-0.50958,-0.94379,0.83495,0.36325,2.03947,1.49148,0.39402,0.76598,-3.29334,3.38022,0.37905,0.86178,0.31022,0.13198,3.08397,0.12396,-9.51248
-0.07088,1.56581,-0.50187,-0.93375,0.79490,0.40132,1.96327,1.41942,0.31902,1.15996,-3.50762,3.33681,0.38289,0.85923,0.31714,0.12056,-2.34652,-2.82261,-7.35368
-0.08286,1.57360,-0.49348,-0.91761,0.74724,0.44068,1.71244,1.25987,0.23731,1.25921,-3.37813,2.51016,0.38539,0.85792,0.31975,0.11489,-16.62464,-11.32828,-6.15866
-0.09430,1.58088,-0.48486,-0.89706,0.70082,0.47392,1.57142,1.24526,0.11670,1.37359,-3.20178,1.82880,0.39076,0.85577,0.32214,0.10582,-15.27235,-4.32194,-5.61388
-0.10537,1.58776,-0.47612,-0.87579,0.65855,0.50187,1.81330,1.44631,-0.13084,1.13702,-2.57207,1.21121,0.40413,0.84819,0.33107,0.08748,7.35413,9.92946,-14.34126
-0.11636,1.59506,-0.46760,-0.85779,0.63109,0.52151,2.22448,1.91664,-0.28327,1.57204,-1.85154,1.34644,0.42006,0.83860,0.34226,0.05609,28.86212,32.89159,-17.57807
-0.12665,1.60159,-0.45814,-0.83351,0.59696,0.54707,2.66732,2.34921,-0.48119,1.78995,-2.55335,1.87440,0.43863,0.82519,0.35524,0.02180,32.64079,32.87371,-13.29916
-0.13704,1.60801,-0.44911,-0.81642,0.56900,0.56317,2.66665,2.43764,-0.57396,1.71668,-2.71779,1.53519,0.45111,0.81594,0.36159,-0.00033,9.65289,15.89490,-8.63728
-0.14678,1.61326,-0.44012,-0.79278,0.52995,0.57658,2.35469,2.40088,-0.63199,1.58404,-2.59543,0.65869,0.46124,0.81055,0.36062,-0.01501,-17.78719,-0.47552,-0.73718
-0.15612,1.61823,-0.43147,-0.76807,0.49384,0.58261,1.97236,2.36759,-0.65146,1.46036,-2.04533,0.18725,0.47032,0.80699,0.35609,-0.02781,-24.79827,-1.73915,1.95592
-0.16551,1.62339,-0.42294,-0.74952,0.46818,0.58676,1.72959,2.39462,-0.63781,1.07775,-1.46325,0.17142,0.47914,0.80270,0.35246,-0.04323,-19.24387,1.24070,3.67267
-0.17521,1.62881,-0.41441,-0.73868,0.45156,0.59058,1.57797,2.43574,-0.58604,0.87720,-1.16876,0.33325,0.48698,0.79816,0.34952,-0.06032,-12.21201,3.38046,5.71498
-0.18463,1.63426,-0.40549,-0.72667,0.43870,0.59832,1.43678,2.46154,-0.48849,0.88239,-0.66557,0.64761,0.49303,0.79454,0.34588,-0.07746,-9.99742,2.03126,8.40112
-0.19396,1.63981,-0.39625,-0.71621,0.43008,0.60961,1.35871,2.48377,-0.35978,0.68814,-0.52487,0.77987,0.49749,0.79101,0.34301,-0.09567,-4.83601,0.46759,10.02010
-0.20359,1.64507,-0.38709,-0.70558,0.42083,0.62156,1.20770,2.45340,-0.17309,0.98883,-0.70446,0.78617,0.49927,0.78969,0.33838,-0.11229,-4.34314,-0.71639,11.89027
-0.21374,1.65027,-0.37839,-0.69957,0.41476,0.62862,1.03471,2.37517,0.00773,0.74583,-0.49201,0.52121,0.49954,0.78968,0.33290,-0.12662,-13.19674,-7.32878,15.83576
-0.22391,1.65537,-0.36966,-0.69495,0.40824,0.63365,0.87520,2.30714,0.19128,0.65906,-0.58164,0.28843,0.49850,0.79057,0.32661,-0.14081,-10.36606,-7.71990,17.16986
-0.23323,1.66018,-0.36059,-0.68640,0.39668,0.63846,0.68189,2.21409,0.44923,0.63169,-0.97843,0.39186,0.49407,0.79408,0.31869,-0.15420,-9.14461,-6.07030,17.45477
-0.24203,1.66459,-0.35116,-0.67849,0.38031,0.64537,0.47715,2.04055,0.71444,0.56502,-1.41321,0.65840,0.48721,0.79931,0.31083,-0.16469,-10.22731,-11.57197,19.25160
-0.25078,1.66847,-0.34122,-0.67141,0.35959,0.65874,0.31191,1.81479,0.99921,0.46641,-1.53802,1.28945,0.47731,0.80606,0.30392,-0.17341,-10.11349,-16.80959,21.97676
-0.25983,1.67186,-0.33033,-0.66706,0.33571,0.68202,0.40875,1.66983,1.13265,-0.51999,-0.90291,1.46984,0.46925,0.80847,0.30287,-0.18562,-0.04653,-18.04510,14.32037
-0.26896,1.67520,-0.31893,-0.66492,0.31594,0.70781,0.93156,1.90457,1.08810,0.31070,-1.48317,1.86590,0.46679,0.80079,0.30880,-0.21327,32.79290,16.02768,-5.22430
-0.27731,1.67763,-0.30668,-0.65198,0.28683,0.74197,1.26491,1.89536,1.10907,1.76447,-2.64915,2.60889,0.46099,0.79553,0.31532,-0.23495,26.38884,9.44885,-5.25068
-0.28534,1.67957,-0.29391,-0.63633,0.25438,0.77622,1.19362,1.46509,1.34815,1.42904,-2.78361,2.37955,0.44653,0.80050,0.31820,-0.24198,2.97816,-26.66624,12.15777
-0.29278,1.68056,-0.28106,-0.61536,0.21352,0.80434,1.07809,1.00511,1.58185,1.08602,-2.45273,1.08705,0.42981,0.80764,0.32076,-0.24514,-4.94168,-34.85557,15.57046
-0.30011,1.68151,-0.26924,-0.59726,0.18178,0.81268,1.09412,0.87795,1.61481,1.17277,-2.69677,0.21018,0.41891,0.80943,0.32326,-0.25464,1.73558,-17.14313,5.52365
-0.30683,1.68142,-0.25810,-0.57474,0.14210,0.80798,1.12471,0.88237,1.56148,1.72775,-3.01623,-0.91522,0.41106,0.80890,0.32517,-0.26642,3.03477,-0.43287,-2.85623
-0.31260,1.68047,-0.24814,-0.54260,0.09709,0.78632,1.02216,0.88721,1.46075,2.08159,-2.74976,-1.69075,0.40574,0.80889,0.32407,-0.27577,-5.73424,0.23672,-5.40979
-0.31800,1.67961,-0.23874,-0.51161,0.06272,0.76155,1.02255,1.06773,1.24365,1.70167,-1.97200,-1.96405,0.40516,0.80465,0.32360,-0.28926,-5.77415,6.21441,-11.22061
-0.32291,1.67865,-0.22961,-0.48038,0.03404,0.73676,1.12702,1.41991,0.97411,2.51972,-2.02235,-1.81316,0.40844,0.79562,0.32368,-0.30888,4.78823,28.39531,-18.40508
-0.32699,1.67753,-0.22089,-0.44345,0.00895,0.71180,1.10845,1.59944,0.77746,3.16125,-1.82390,-1.80785,0.41110,0.78848,0.32242,-0.32457,-1.40786,18.10275,-14.96812
-0.33011,1.67620,-0.21244,-0.39824,-0.01328,0.68846,1.01066,1.62910,0.62054,3.65028,-1.61061,-1.56634,0.41333,0.78319,0.32059,-0.33614,-7.24273,5.61500,-10.57967
-0.33269,1.67494,-0.20387,-0.35648,-0.02957,0.67178,0.89144,1.52941,0.53440,3.62004,-1.22728,-1.39383,0.41372,0.78011,0.31908,-0.34416,-9.96619,-4.57188,-8.11098
-0.33465,1.67373,-0.19555,-0.31538,-0.04137,0.65586,0.78593,1.42632,0.46903,3.24217,-0.70158,-1.37148,0.41391,0.77751,0.31757,-0.35115,-10.49393,-10.74576,-4.86882
-0.33486,1.67254,-0.18765,-0.25590,-0.05018,0.63662,0.77377,1.45929,0.28089,3.01685,-0.10870,-0.86674,0.41809,0.77085,0.31765,-0.36068,-3.29178,1.40975,-9.83198
-0.33588,1.67168,-0.17931,-0.21877,-0.05249,0.62845,0.84957,1.55589,0.12171,3.02739,-0.02956,-0.61293,0.42217,0.76202,0.31911,-0.37319,3.60406,7.52939,-12.18375
-0.33592,1.67096,-0.17100,-0.17547,-0.05213,0.62178,0.96011,1.66688,-0.06801,3.16634,0.13865,-0.41477,0.42766,0.75099,0.32206,-0.38653,5.64919,9.90777,-14.40759
-0.33492,1.67055,-0.16271,-0.12430,-0.04708,0.61569,1.05989,1.66719,-0.21211,2.93076,0.34514,-0.34939,0.43181,0.74072,0.32646,-0.39787,5.33750,2.68737,-10.15792
-0.33440,1.67042,-0.15435,-0.09009,-0.03891,0.61211,1.07557,1.47605,-0.18438,2.36605,0.64227,-0.24288,0.43105,0.73557,0.33026,-0.40505,1.58739,-11.46059,-1.48811
-0.33373,1.67054,-0.14602,-0.06096,-0.02860,0.60920,1.10555,1.28871,-0.12588,1.91928,0.80851,-0.21734,0.42868,0.73124,0.33453,-0.41183,1.49407,-14.97845,3.14126
-0.33354,1.67073,-0.13747,-0.03847,-0.01952,0.60726,1.14795,1.15658,-0.07442,2.00374,0.76989,-0.26095,0.42597,0.72654,0.33896,-0.41928,3.43061,-12.02167,3.42084
-0.33253,1.67121,-0.12890,-0.00500,-0.00798,0.60400,1.19709,0.98337,-0.04799,2.44865,0.66598,-0.32085,0.42260,0.72233,0.34486,-0.42510,3.12242,-11.05745,1.48851
-0.33059,1.67153,-0.12049,0.03186,-0.00126,0.60129,1.24735,0.84320,-0.09339,2.97897,0.35286,-0.12466,0.42057,0.71708,0.35183,-0.43026,2.89086,-10.67853,-2.54007
-0.32759,1.67167,-0.11210,0.07083,0.00112,0.60198,1.33673,0.77488,-0.22784,3.30392,0.32055,0.25674,0.42062,0.70921,0.36067,-0.43590,4.65069,-6.59876,-9.24770
-0.32309,1.67180,-0.10331,0.12420,0.00271,0.60790,1.49039,0.64455,-0.41341,3.44151,-0.02358,0.30410,0.42053,0.69999,0.37361,-0.43998,9.60684,-4.63301,-13.80103
-0.31897,1.67183,-0.09468,0.16053,0.00261,0.61041,1.54874,0.43721,-0.48836,2.99515,-0.16905,0.01118,0.41827,0.69397,0.38552,-0.44140,5.86099,-13.82339,-9.94244
-0.31430,1.67170,-0.08644,0.19693,0.00018,0.60664,1.57197,0.18683,-0.54773,2.37649,-0.21106,-0.61599,0.41515,0.68943,0.39813,-0.44027,1.50160,-18.06426,-6.36145
-0.30950,1.67150,-0.07889,0.22749,-0.00297,0.59288,1.55383,0.00418,-0.59912,1.91622,-0.28378,-1.24794,0.41270,0.68496,0.40971,-0.43891,-1.32320,-14.09126,-5.24354
-0.30473,1.67112,-0.07203,0.25132,-0.00802,0.57196,1.50557,-0.12750,-0.65384,1.38939,-0.45255,-1.72954,0.41114,0.68050,0.42042,-0.43718,-3.59260,-9.75709,-4.69127
-0.30012,1.67069,-0.06568,0.26768,-0.01270,0.54845,1.44390,-0.15333,-0.71792,1.20120,-0.30145,-2.04474,0.41133,0.67494,0.42971,-0.43660,-5.49638,-5.57550,-4.39175
-0.29509,1.67005,-0.06008,0.28644,-0.01951,0.51873,1.42868,0.01373,-0.84677,1.00624,-0.50203,-2.01314,0.41535,0.66487,0.43823,-0.43975,-2.91288,7.84769,-7.68110
-0.28981,1.66896,-0.05509,0.30534,-0.03148,0.48591,1.51810,0.36732,-1.04757,1.15103,-0.79214,-2.10169,0.42298,0.64841,0.44721,-0.44794,6.46022,22.82930,-10.64315
-0.28460,1.66777,-0.05018,0.31977,-0.04285,0.45849,1.54051,0.47986,-1.14921,1.42868,-1.12189,-2.04326,0.42762,0.63576,0.45649,-0.45230,5.27423,16.67654,-7.43603
-0.27944,1.66634,-0.04538,0.33006,-0.05517,0.43483,1.41870,0.21717,-1.13597,0.84514,-0.95445,-1.73088,0.42729,0.63178,0.46638,-0.44808,-7.49969,-13.41532,-1.78762
-0.27434,1.66469,-0.04101,0.33770,-0.06846,0.40956,1.30594,-0.07377,-1.12035,0.15532,-0.68200,-1.49363,0.42574,0.62938,0.47693,-0.44177,-10.02964,-19.92165,-0.36636
-0.26945,1.66317,-0.03659,0.34065,-0.07696,0.39033,1.27845,-0.18288,-1.11376,0.13646,-0.60743,-1.61111,0.42503,0.62405,0.48712,-0.43888,-4.38699,-11.56388,-1.00318
-0.26442,1.66154,-0.03263,0.34474,-0.08517,0.36828,1.26268,-0.27483,-1.13220,0.34209,-0.57484,-1.47205,0.42455,0.61825,0.49783,-0.43554,-2.05150,-5.99412,-1.17996
-0.25930,1.65982,-0.02874,0.34957,-0.09313,0.35005,1.26204,-0.36939,-1.16023,0.35237,-0.44077,-1.14531,0.42373,0.61233,0.50917,-0.43157,-1.84843,-7.32716,-2.47196
-0.25391,1.65794,-0.02498,0.35759,-0.10196,0.33363,1.35258,-0.37379,-1.22416,0.49310,-0.53466,-0.87100,0.42342,0.60319,0.52184,-0.42961,4.63077,-0.72312,-3.62329
-0.24858,1.65610,-0.02089,0.36262,-0.10816,0.32515,1.41095,-0.40335,-1.25781,0.65528,-0.74281,-0.90714,0.42244,0.59461,0.53435,-0.42715,7.68184,-0.23066,-4.40051
-0.24290,1.65390,-0.01720,0.37173,-0.11812,0.31325,1.44338,-0.51223,-1.31976,0.84010,-0.81863,-0.94744,0.42082,0.58684,0.54820,-0.42191,2.50360,-6.27635,-4.16841
-0.23692,1.65140,-0.01404,0.38367,-0.13070,0.29561,1.36043,-0.73661,-1.38565,0.89475,-0.98474,-1.53213,0.41867,0.58254,0.56185,-0.41193,-3.15449,-11.39152,-5.80952
-0.23088,1.64908,-0.01124,0.39360,-0.13784,0.27633,1.18237,-0.95304,-1.43346,0.83279,-0.48029,-1.73593,0.41721,0.58085,0.57358,-0.39944,-14.60508,-17.46807,-6.42389
-0.22443,1.64671,-0.00914,0.40759,-0.14435,0.25123,1.05555,-1.02415,-1.50860,0.78319,-0.24989,-1.62980,0.41796,0.57690,0.58452,-0.38837,-12.88984,-8.86879,-6.43846
-0.21735,1.64412,-0.00742,0.42828,-0.15293,0.22576,1.13519,-0.80527,-1.62806,1.34259,-0.56826,-1.35215,0.42229,0.56470,0.59581,-0.38446,4.59304,12.36344,-6.06346
-0.20988,1.64113,-0.00546,0.45033,-0.16564,0.20831,1.22963,-0.62180,-1.76523,1.90690,-1.20748,-1.16733,0.42705,0.55082,0.60797,-0.38026,10.57938,15.36344,-7.25488
-0.20196,1.63750,-0.00344,0.47465,-0.18521,0.19542,1.31744,-0.50335,-1.94865,1.71951,-1.60554,-0.76972,0.43241,0.53576,0.62141,-0.37394,7.11795,8.95854,-11.47827
-0.19390,1.63336,-0.00127,0.49609,-0.20829,0.18745,1.37999,-0.47295,-2.13297,1.65048,-1.76127,-0.44807,0.43715,0.52082,0.63575,-0.36533,7.83194,5.43083,-12.41923
-0.18568,1.62877,0.00129,0.51528,-0.23323,0.18685,1.33711,-0.66523,-2.34793,1.15800,-1.63292,0.10903,0.43985,0.50912,0.65192,-0.34975,-1.14549,-6.57962,-14.22348
-0.17793,1.62441,0.00428,0.52391,-0.24993,0.19278,1.19114,-1.01237,-2.52085,0.35827,-0.90227,0.63965,0.43967,0.50190,0.66839,-0.32869,-13.61082,-21.07921,-15.97745
-0.17055,1.62032,0.00754,0.52533,-0.25907,0.20151,1.14156,-1.26095,-2.63018,-0.29413,-0.50285,0.89241,0.43818,0.49313,0.68496,-0.30928,-10.15125,-20.60026,-13.60805
-0.16383,1.61616,0.01141,0.51598,-0.26729,0.21757,1.13821,-1.57834,-2.73157,-0.87286,-0.21911,1.00046,0.43347,0.48425,0.70346,-0.28766,-4.12161,-18.03073,-7.75652
-0.15731,1.61219,0.01520,0.50577,-0.27110,0.22920,1.25147,-1.67595,-2.76967,-1.20798,-0.03274,1.15689,0.42969,0.47146,0.72078,-0.27124,2.44690,-12.70647,-4.69255
-0.15117,1.60836,0.01934,0.49245,-0.27184,0.24358,1.55153,-1.66910,-2.75265,-0.94067,0.26045,1.05984,0.42432,0.45337,0.73941,-0.26014,18.33088,-5.28819,1.38093
-0.14491,1.60479,0.02360,0.48328,-0.26852,0.25645,1.82082,-1.67108,-2.71587,-0.43805,0.11602,0.81445,0.41782,0.43434,0.75789,-0.24976,21.85289,-3.18747,5.16809
-0.13867,1.60124,0.02806,0.47592,-0.26570,0.26992,1.95608,-1.77555,-2.70647,-0.42201,-0.02495,0.93577,0.40981,0.41737,0.77598,-0.23603,11.20614,-6.88275,2.83609
-0.13265,1.59761,0.03261,0.46720,-0.26492,0.28184,1.96052,-1.94657,-2.73270,-0.77451,-0.14496,0.94632,0.40081,0.40285,0.79333,-0.21839,1.00023,-13.04255,-3.22526
-0.12718,1.59356,0.03767,0.45154,-0.27018,0.29846,1.96270,-2.19463,-2.77941,-1.07733,-0.55226,1.15316,0.38889,0.38848,0.81156,-0.19804,-3.16714,-14.54243,-5.31437
-0.12182,1.58924,0.04273,0.43778,-0.27852,0.31184,2.00808,-2.36809,-2.82143,-1.02099,-0.76104,1.13448,0.37673,0.37226,0.82926,-0.17840,-0.27926,-14.93731,-5.62062
-0.11660,1.58448,0.04788,0.42551,-0.29141,0.32356,2.12092,-2.48768,-2.85315,-1.10798,-1.20190,1.06175,0.36381,0.35340,0.84685,-0.15999,5.05020,-11.87475,-4.42016
-0.11168,1.57835,0.05318,0.41116,-0.32149,0.33486,2.45536,-2.57330,-2.84026,-0.82233,-2.38592,0.47044,0.34803,0.32770,0.86616,-0.14578,16.80330,-10.77603,2.12831
-0.10648,1.57082,0.05786,0.40351,-0.36602,0.33469,2.83369,-2.57699,-2.83752,-0.39618,-3.90729,-0.39213,0.33295,0.29770,0.88471,-0.13349,24.66783,-6.82338,5.30863
-0.10128,1.56139,0.06184,0.39750,-0.42942,0.32489,3.16074,-2.56732,-2.94542,-0.46109,-5.36964,-1.11018,0.31908,0.26477,0.90226,-0.11838,25.87803,-3.94697,-0.50714
-0.09678,1.54843,0.06460,0.38178,-0.53422,0.29821,3.51489,-2.58013,-3.19845,-1.23438,-6.48597,-2.01943,0.30529,0.22669,0.91957,-0.09895,22.21114,-2.36001,-9.89952
-0.09313,1.53506,0.06656,0.35575,-0.62531,0.26414,3.70701,-2.60347,-3.48214,-2.37859,-6.75728,-2.95273,0.29187,0.18996,0.93435,-0.07560,17.63114,-1.19611,-16.64785
-0.09005,1.52188,0.06811,0.32780,-0.69196,0.23232,3.87092,-2.61674,-3.65231,-3.40006,-6.57726,-3.40889,0.27746,0.15296,0.94697,-0.05355,17.48277,0.45190,-18.52331
-0.09025,1.50424,0.06657,0.25637,-0.81168,0.16089,4.34420,-2.67719,-3.81863,-4.61831,-6.46835,-4.22469,0.25939,0.10505,0.95946,-0.03344,24.94789,-6.60080,-7.12564
-0.09054,1.48775,0.06508,0.19786,-0.88973,0.10440,4.82169,-2.78257,-3.79718,-5.36936,-6.23168,-4.87568,0.23730,0.05541,0.96968,-0.01828,32.75544,-15.66239,0.50853
-0.09308,1.46966,0.06150,0.11893,-0.97438,0.02940,5.39377,-3.01321,-3.75796,-5.85729,-5.83293,-5.88180,0.20896,-0.00026,0.97791,-0.00477,36.33202,-27.58607,5.09598
-0.09796,1.45090,0.05527,0.02016,-1.05274,-0.07110,5.80570,-3.27880,-3.86232,-6.38570,-4.23604,-7.10955,0.17832,-0.05578,0.98230,0.01369,24.83052,-22.86475,-6.20506
-0.10282,1.43366,0.04853,-0.05732,-1.09075,-0.15794,5.94175,-3.42408,-4.02445,-6.56651,-2.39315,-7.98078,0.14992,-0.10612,0.98232,0.03612,14.94594,-13.14853,-14.39578
-0.10975,1.41737,0.03864,-0.14832,-1.10670,-0.27229,5.97767,-3.51430,-4.21467,-6.57610,0.05295,-8.74563,0.12197,-0.15426,0.97858,0.06094,7.13455,-2.87191,-16.14411
-0.11849,1.40325,0.02558,-0.24879,-1.08710,-0.41206,5.95284,-3.57400,-4.33819,-6.23232,2.48986,-8.94586,0.09397,-0.19972,0.97164,0.08485,-0.10782,-0.26065,-9.48597
-0.12677,1.39058,0.01266,-0.32085,-1.04866,-0.51959,5.97004,-3.66975,-4.34740,-6.04551,4.25454,-8.83462,0.06391,-0.24537,0.96156,0.10543,-0.38765,-1.55447,-6.44440
-0.13643,1.38087,-0.00295,-0.39762,-0.97626,-0.64364,6.10581,-4.06410,-4.15538,-5.24771,6.73951,-8.00779,0.02395,-0.29291,0.94860,0.11744,0.14021,-22.71206,0.24396
-0.14636,1.37536,-0.02011,-0.46319,-0.85463,-0.76662,6.16379,-5.11467,-3.59424,-3.54859,9.22607,-6.39160,-0.03778,-0.33709,0.93393,0.11274,-15.30449,-64.53976,2.94959
-0.15466,1.36980,-0.03513,-0.49029,-0.76041,-0.83035,6.03690,-6.08223,-3.16086,-2.37797,10.40757,-5.78088,-0.10419,-0.37517,0.91493,0.10629,-32.55288,-88.73146,-6.23734
-0.16289,1.37256,-0.05350,-0.51009,-0.56267,-0.93058,5.34532,-7.77267,-2.63504,0.46045,11.88249,-6.23970,-0.19959,-0.39370,0.89314,0.08636,-55.49504,-93.70278,-30.07263
-0.16916,1.37651,-0.07165,-0.49733,-0.38342,-1.01017,4.59454,-8.31580,-2.66819,2.45979,13.59785,-6.82161,-0.27066,-0.40451,0.86942,0.08492,-51.55026,-39.78500,-42.11438
-0.17352,1.38452,-0.09127,-0.45761,-0.18017,-1.09411,3.94393,-8.11676,-2.91633,4.36367,15.28832,-6.41466,-0.32389,-0.41147,0.84665,0.09467,-32.29101,19.55947,-37.32195
-0.17516,1.39666,-0.11181,-0.38521,0.04236,-1.17451,3.41931,-7.73692,-3.09342,6.11960,16.93486,-5.18397,-0.36927,-0.41663,0.82401,0.10521,-18.79213,42.50560,-24.13347
-0.17463,1.41088,-0.13209,-0.29713,0.24611,-1.23358,2.94885,-7.77080,-3.09427,7.70718,17.90681,-3.89409,-0.42177,-0.41946,0.79677,0.10640,-25.71417,23.08177,-18.08530
-0.16984,1.43134,-0.15268,-0.16514,0.49667,-1.28283,2.22789,-8.31061,-2.98011,10.07725,18.86553,-2.31081,-0.48725,-0.41157,0.76443,0.09405,-46.69857,-18.87785,-26.69484
-0.16003,1.45858,-0.17191,0.01581,0.80006,-1.30232,1.13340,-9.17102,-2.93205,12.16498,20.01085,0.23558,-0.56288,-0.38703,0.72688,0.07085,-62.23810,-38.03888,-41.06102
-0.14966,1.48604,-0.18909,0.16712,1.04282,-1.28721,0.11059,-9.81853,-3.05299,13.07279,21.30568,2.38218,-0.63528,-0.35418,0.68456,0.04850,-67.05399,-37.85176,-58.98357
-0.13653,1.51836,-0.20417,0.32341,1.30091,-1.24635,-1.03826,-10.37976,-3.40267,13.26453,22.53704,4.52944,-0.70686,-0.30510,0.63765,0.02579,-62.55947,-35.10075,-79.17744
-0.11797,1.56185,-0.21521,0.52612,1.66799,-1.15451,-2.68936,-10.76857,-4.32296,12.83845,24.01956,6.88270,-0.77693,-0.22241,0.58896,0.00677,-46.90578,-22.74360,-107.54260
-0.09917,1.60830,-0.22428,0.69454,2.00946,-1.05230,-4.06413,-10.58410,-5.54721,12.85232,25.64684,7.72077,-0.83047,-0.12779,0.54220,0.00119,-15.32077,-5.29632,-128.08860
-0.07868,1.65790,-0.23304,0.85053,2.32058,-0.96710,-4.98370,-10.23023,-6.66364,14.23975,26.62224,6.95724,-0.87026,-0.03200,0.49154,0.00143,15.73268,4.03136,-134.47510
-0.04958,1.72193,-0.23958,1.10119,2.77871,-0.86773,-6.05317,-9.36077,-9.20592,20.23235,30.81643,5.89660,-0.88994,0.11131,0.44100,0.03374,70.85744,-27.70935,-172.72950
-0.01085,1.79115,-0.24624,1.44575,3.22715,-0.78921,-6.72251,-8.17979,-11.22623,30.14065,32.91008,5.38096,-0.88213,0.24904,0.39460,0.06407,54.48351,8.56207,-145.51910
0.04855,1.87062,-0.25173,2.03136,3.73659,-0.70676,-6.41151,-6.59709,-13.56943,45.88530,30.96901,7.13435,-0.84374,0.38600,0.35165,0.12432,105.68740,-45.61766,-127.95850
0.12600,1.94990,-0.25387,2.77367,4.14484,-0.59012,-5.15840,-4.91608,-15.67071,62.55662,25.91029,11.85860,-0.77685,0.50589,0.31473,0.20379,151.95210,-69.82584,-116.96190
0.22944,2.02658,-0.24920,3.75207,4.42856,-0.39559,-3.11230,-3.41342,-17.50725,77.88422,12.75438,17.26154,-0.68163,0.60483,0.28056,0.30142,168.32880,-124.99900,-99.21652
0.36166,2.09233,-0.23465,4.95287,4.48295,-0.09291,-0.59266,-2.57402,-19.21170,94.01344,-7.09056,26.56014,-0.55863,0.68071,0.23463,0.41172,125.84150,-167.55680,-90.26326
0.52186,2.13487,-0.20711,6.32185,4.17785,0.34151,1.97504,-2.51856,-20.93174,103.28870,-38.46389,35.94428,-0.40582,0.72992,0.16856,0.52356,57.25713,-186.62330,-104.53370
0.70530,2.13749,-0.16300,7.75347,3.33777,0.93354,3.57726,-2.49065,-22.67706,102.26170,-82.98486,46.05782,-0.22633,0.76257,0.08608,0.59987,14.92907,-131.51340,-135.10830
0.89862,2.08313,-0.10223,9.02009,1.81611,1.64902,4.21729,-1.53170,-24.82856,76.67742,-135.67940,52.55041,-0.01207,0.78624,-0.00358,0.61779,62.59941,-48.64707,-141.68430
1.07046,1.96050,-0.02842,9.69795,-0.40383,2.40864,5.74071,0.69847,-25.72972,16.06754,-178.37900,54.35622,0.20857,0.77931,-0.04022,0.58953,167.67050,-82.13940,-92.12031
1.19550,1.80444,0.04426,9.54504,-2.62007,2.98399,8.36830,0.85754,-25.05751,-47.28395,-188.60180,42.15826,0.39464,0.70784,-0.04720,0.58394,24.39340,-212.01700,-51.40390
1.24719,1.59024,0.11581,8.34658,-5.19033,3.41200,11.68198,0.68038,-22.45664,-120.36340,-175.75110,18.16458,0.54206,0.61401,0.01166,0.57361,-84.16083,-255.47310,-29.92076
1.20193,1.34226,0.16658,5.95928,-7.76188,3.44883,17.37811,1.16912,-18.73909,-173.30100,-146.63650,-20.58489,0.69314,0.48874,0.16711,0.50276,-17.81932,-380.97680,-106.40000
1.13256,1.12931,0.18962,3.72180,-9.30034,3.07902,23.75060,0.95409,-15.99208,-200.43590,-115.74270,-47.42027,0.82821,0.28797,0.32667,0.35275,104.33650,-410.50980,-309.37580
0.98513,0.90863,0.17016,0.83463,-10.60433,2.16381,31.41092,-4.27548,-15.53689,-227.39130,-69.13850,-96.45320,0.86812,-0.11344,0.45167,0.17174,266.23950,-110.10830,-623.84420
0.77148,0.76767,0.05956,-2.44821,-10.45566,0.09319,34.15878,-11.53954,-15.17873,-158.14760,82.26392,-123.55920,0.73149,-0.47291,0.49044,0.02741,368.41620,117.77750,-312.88290
0.64187,0.71887,-0.02964,-3.83211,-9.03581,-1.22310,28.72099,-14.37786,-14.57707,-78.05795,129.40690,-78.67207,0.61576,-0.61847,0.48720,0.03124,-14.30981,445.04400,-298.60220
0.58530,0.82623,-0.06491,-4.21909,-6.79312,-1.90951,18.95562,-11.59709,-13.48131,14.34672,112.76480,-3.43195,0.61305,-0.61196,0.47341,0.15987,-256.86420,490.19870,201.90330
0.55737,0.85948,-0.06409,-3.96217,-5.61903,-1.77930,14.32239,-10.31710,-11.17593,31.42079,89.08382,23.70760,0.58083,-0.62572,0.48827,0.18085,-340.26660,354.95250,119.75980
0.55034,0.90439,-0.03351,-3.54259,-4.64953,-1.30852,9.59883,-9.90529,-8.33169,29.30797,52.95493,41.50267,0.53753,-0.60643,0.54776,0.20800,-345.57560,175.64830,24.24385
0.51421,0.84641,-0.01979,-3.21960,-4.11571,-0.71620,4.53972,-7.90771,-5.67357,14.16126,26.53869,40.26303,0.52417,-0.53905,0.60098,0.27110,-364.59370,195.05960,11.43797
0.43884,0.71994,-0.02606,-3.09451,-3.84973,-0.18919,-0.24431,-2.91388,-3.87382,3.72736,20.62565,30.79225,0.56778,-0.42142,0.58947,0.39060,-297.83120,415.67340,92.09158
0.36403,0.64903,-0.01886,-3.09472,-3.43255,0.21347,-2.44872,2.34741,-3.02107,0.68402,34.66930,20.89705,0.62964,-0.31919,0.51170,0.48974,-74.84415,389.10820,29.90529
0.30545,0.61708,-0.00937,-3.10949,-2.96880,0.40469,-2.60484,4.98088,-3.89036,1.46299,42.56306,13.46917,0.65137,-0.29205,0.42242,0.55856,-6.74425,260.01820,-64.66776
0.25599,0.60361,0.00179,-3.06932,-2.43224,0.53738,-2.36775,6.08149,-4.84132,9.23928,35.42698,8.06667,0.65329,-0.28821,0.34264,0.61053,19.66174,105.37180,-119.09010
0.21850,0.59629,0.01269,-2.93137,-1.98778,0.60981,-2.36132,4.94879,-4.93292,15.47393,28.99475,5.15687,0.63150,-0.30031,0.32389,0.63727,-16.92167,-51.31821,-25.51221
0.19079,0.59156,0.02449,-2.70579,-1.62234,0.66934,-2.97297,3.33171,-4.28088,17.73524,23.73962,3.55210,0.59785,-0.30099,0.34208,0.65952,-65.84372,-105.24430,71.31422
0.17593,0.58985,0.03591,-2.43370,-1.34938,0.71668,-3.50998,3.08193,-3.20193,18.19818,15.88270,1.72093,0.58251,-0.27040,0.34702,0.68348,-29.62495,-13.59813,91.88290
0.15937,0.58321,0.04586,-2.17990,-1.17141,0.71041,-3.58356,3.30068,-2.02111,16.93009,12.34271,-3.91952,0.58186,-0.22996,0.34552,0.69941,-2.52742,34.20505,77.35480
0.14519,0.57937,0.05005,-1.93803,-0.98343,0.61506,-2.60340,3.72484,-1.08684,13.52588,13.77220,-8.36733,0.60522,-0.19904,0.32975,0.69667,71.93935,35.15576,46.41279
0.12796,0.57769,0.05209,-1.79077,-0.80265,0.51074,-1.79307,3.70105,-0.84846,12.10929,16.54806,-9.25327,0.61963,-0.18603,0.31096,0.69624,80.82543,11.70033,7.27385
0.11246,0.58312,0.05049,-1.65223,-0.55870,0.37827,-1.02905,3.29979,-0.98706,8.16704,16.97119,-9.16857,0.62959,-0.18965,0.29300,0.69411,52.90696,-31.21844,-9.80900
0.09709,0.59141,0.04794,-1.53752,-0.32105,0.25671,-0.31260,2.87178,-1.50063,6.97370,12.90450,-6.16223,0.63707,-0.20499,0.26742,0.69326,37.85918,-31.25982,-41.38945
0.08247,0.59808,0.04754,-1.43254,-0.15351,0.19185,0.00886,2.53137,-1.80346,8.42907,10.58909,-3.15828,0.63983,-0.21478,0.24584,0.69573,20.63514,-30.89219,-30.59523
0.06986,0.60381,0.04857,-1.32318,-0.03717,0.16669,0.08404,2.40947,-1.92107,9.64959,8.42668,-1.09923,0.64087,-0.21669,0.22516,0.70116,6.23195,-17.42397,-14.97015
0.06119,0.61009,0.05095,-1.17801,0.06083,0.16434,0.08445,2.44945,-1.93719,10.96201,5.17998,0.84807,0.64222,-0.21324,0.20356,0.70756,2.77254,-2.75703,-7.73987
0.05678,0.61527,0.05472,-0.99691,0.12342,0.18216,0.04976,2.63103,-1.81120,11.81121,2.79706,1.24004,0.64476,-0.20267,0.18208,0.71418,-0.75245,10.33504,7.87912
0.05247,0.61881,0.05853,-0.85380,0.14980,0.19929,0.02616,2.77522,-1.67716,12.39848,1.55390,1.66543,0.64727,-0.19127,0.16123,0.72005,3.70373,13.96818,8.77798
0.05218,0.62235,0.06308,-0.68206,0.16991,0.22288,-0.19835,2.76823,-1.38102,12.84019,0.68311,1.68668,0.64532,-0.17685,0.14905,0.72806,-7.46429,5.43894,18.97219
0.05404,0.62577,0.06779,-0.51394,0.18422,0.24341,-0.63217,2.61104,-0.98528,12.34319,2.64782,-1.00383,0.63724,-0.16053,0.14607,0.73947,-19.11973,-6.36068,39.22797
0.05966,0.62832,0.07172,-0.32412,0.18321,0.25053,-0.88233,2.54571,-0.49480,11.68042,-0.58530,0.46235,0.63260,-0.14026,0.14479,0.74778,-13.53682,-0.63766,30.55594
0.06550,0.62991,0.07502,-0.16848,0.16849,0.24774,-1.05900,2.45711,-0.10385,10.60377,-1.14591,-0.55057,0.62765,-0.12095,0.14442,0.75536,-12.67796,-6.14927,34.14563
0.07134,0.63087,0.07760,-0.04737,0.14791,0.23471,-1.02066,2.52088,0.03266,9.26213,-1.35542,-1.73036,0.62637,-0.10300,0.13582,0.76066,0.48480,2.85192,18.94201
0.07970,0.63115,0.07837,0.08817,0.12042,0.19686,-0.78374,2.63239,0.00985,7.76682,-1.60128,-3.12873,0.62964,-0.08752,0.12145,0.76232,14.16890,8.62888,-3.96713
0.08627,0.63161,0.07867,0.17146,0.10050,0.16000,-0.62199,2.61053,-0.01722,6.81947,-1.88325,-3.28299,0.63157,-0.07490,0.10941,0.76390,14.27861,1.46205,-6.44998
0.09278,0.63178,0.07871,0.23290,0.08150,0.12804,-0.50969,2.51489,0.01511,6.19056,-2.17608,-3.32756,0.63297,-0.06303,0.10062,0.76502,11.56234,-5.82944,-1.81125
0.10381,0.63011,0.07567,0.35163,0.03852,0.05742,-0.39447,1.99377,0.36370,5.55222,-2.10031,-3.17528,0.63478,-0.05575,0.10926,0.76289,8.25514,-22.80634,13.60713
0.11223,0.62955,0.07404,0.40965,0.02024,0.02016,-0.41109,1.58933,0.73070,4.60981,-1.27834,-3.13055,0.63367,-0.04562,0.12031,0.76283,3.75048,-33.51601,31.36203
0.12169,0.62889,0.07135,0.46926,0.00480,-0.02457,-0.35494,1.27258,0.98821,3.70417,-0.62145,-3.14547,0.63394,-0.03638,0.13063,0.76140,5.53321,-26.65469,23.82360
0.13172,0.62844,0.06770,0.52662,-0.00408,-0.07480,-0.22264,1.10235,1.06378,3.31231,-0.25105,-3.08974,0.63631,-0.02819,0.13558,0.75891,9.29946,-10.30453,4.63243
0.14087,0.62842,0.06461,0.55773,-0.00437,-0.10564,-0.13783,1.02802,1.07614,3.01672,0.25083,-3.09888,0.63826,-0.01948,0.13809,0.75708,9.61299,-8.14255,2.04154
0.15107,0.62897,0.06017,0.59718,0.00348,-0.14879,-0.02159,0.99366,1.02458,2.62967,0.86592,-2.92266,0.64149,-0.01170,0.13847,0.75444,8.31213,-3.83980,-2.52964
0.16167,0.63017,0.05520,0.63546,0.01988,-0.19104,0.10844,1.05869,0.85650,2.14157,1.21618,-2.22519,0.64583,-0.00446,0.13356,0.75169,7.56603,3.40955,-10.22626
0.17205,0.63171,0.05074,0.66348,0.03830,-0.21759,0.17032,1.15114,0.68174,2.06749,1.34728,-1.47906,0.64919,0.00310,0.12672,0.74999,4.99924,7.30451,-13.87730
0.18273,0.63357,0.04670,0.68663,0.05752,-0.23228,0.16865,1.22299,0.57595,2.07887,1.64754,-0.84652,0.65125,0.01160,0.12075,0.74911,0.58996,6.42637,-10.12842
0.19405,0.63630,0.04286,0.71718,0.08714,-0.24096,0.07267,1.30341,0.52382,2.08044,1.86305,-0.28344,0.65090,0.02179,0.11512,0.75007,-6.08183,5.22922,-3.35160
0.20534,0.63898,0.03940,0.73995,0.10974,-0.24271,-0.02754,1.34836,0.54225,2.04608,1.80652,-0.02041,0.64978,0.03290,0.11147,0.75118,-7.90087,4.04162,0.76329
0.21739,0.64214,0.03609,0.76681,0.13374,-0.24169,-0.12985,1.40104,0.61937,1.92535,1.62899,0.13285,0.64798,0.04600,0.10901,0.75241,-7.77472,3.16047,5.27466
0.22953,0.64532,0.03304,0.79033,0.15594,-0.23680,-0.21988,1.44487,0.70834,1.56246,1.64291,0.59317,0.64582,0.05975,0.10723,0.75356,-5.72072,3.11450,7.60792
0.24176,0.64902,0.03047,0.80956,0.18092,-0.22584,-0.34241,1.47673,0.79782,1.36111,2.00660,0.97063,0.64217,0.07408,0.10588,0.75559,-7.32372,2.40556,6.33177
0.25415,0.65369,0.02825,0.82640,0.21369,-0.21236,-0.50292,1.48807,0.91396,1.13373,2.60636,1.00936,0.63658,0.08923,0.10591,0.75868,-9.73100,-0.03358,8.99433
0.26639,0.65910,0.02621,0.83963,0.25144,-0.19913,-0.67241,1.55626,1.00453,0.72553,2.85185,1.02821,0.62986,0.10593,0.10449,0.76232,-11.40593,2.54343,9.18213
0.27867,0.66543,0.02436,0.84970,0.29537,-0.18549,-0.83272,1.74448,1.00449,0.36682,2.90051,0.78136,0.62281,0.12458,0.09813,0.76613,-11.07491,9.10664,2.75514
0.29082,0.67213,0.02242,0.85467,0.33403,-0.17596,-0.94782,2.01086,0.92107,0.15422,2.84348,0.76712,0.61644,0.14423,0.08698,0.76917,-10.33776,17.07664,-5.08718
0.30273,0.67953,0.02059,0.85528,0.37472,-0.16696,-1.08656,2.28023,0.81930,-0.11384,3.08674,0.49704,0.60879,0.16467,0.07345,0.77257,-11.67982,18.28182,-6.58619
0.31448,0.68745,0.01858,0.85254,0.41369,-0.16239,-1.21807,2.47631,0.75528,-0.21872,3.40627,0.18328,0.60005,0.18513,0.06043,0.77589,-12.94377,17.43461,-6.52806
0.32573,0.69731,0.01638,0.84346,0.47323,-0.16161,-1.39875,2.62194,0.75440,-0.75816,3.98965,-0.31863,0.58866,0.20648,0.04854,0.78006,-11.65797,10.14790,0.57634
0.33648,0.70774,0.01361,0.82921,0.52978,-0.16943,-1.54597,2.69792,0.73343,-1.22926,4.09541,-0.85533,0.57690,0.22610,0.03702,0.78402,-11.46768,4.87075,0.78668
0.34697,0.71831,0.01050,0.81354,0.57570,-0.18017,-1.65026,2.75438,0.70463,-1.42577,3.63144,-0.93440,0.56513,0.24526,0.02518,0.78730,-9.62868,4.06162,-1.08050
0.35663,0.72986,0.00711,0.78941,0.62636,-0.19285,-1.74576,2.81824,0.66925,-1.61730,2.83981,-0.72009,0.55279,0.26446,0.01253,0.79015,-6.55087,3.06839,-1.30748
0.36607,0.74104,0.00376,0.76713,0.66262,-0.20268,-1.81241,2.88726,0.62933,-1.65933,2.44891,-0.68169,0.54050,0.28363,-0.00073,0.79209,-5.56165,4.47075,-2.63436
0.37511,0.75245,0.00032,0.74263,0.69421,-0.21162,-1.88585,2.95074,0.59681,-1.83453,2.10656,-0.61803,0.52723,0.30296,-0.01444,0.79375,-6.07681,5.30796,-2.04028
0.38350,0.76405,-0.00316,0.71416,0.72236,-0.21941,-1.94597,2.95363,0.64178,-2.22140,1.94869,-0.65047,0.51301,0.32216,-0.02530,0.79523,-4.45017,1.27632,3.19031
0.39140,0.77571,-0.00664,0.68500,0.74580,-0.22566,-1.98848,2.90222,0.70711,-2.62205,1.93294,-0.51254,0.49841,0.34023,-0.03423,0.79666,-2.52549,-1.70035,5.28148
0.39815,0.78796,-0.01021,0.64513,0.77186,-0.23152,-2.04848,2.79733,0.78330,-3.06539,1.76888,-0.44173,0.48248,0.35688,-0.04154,0.79883,-2.55149,-5.59660,7.01065
0.40398,0.80029,-0.01382,0.60043,0.79431,-0.23700,-2.09588,2.65550,0.85397,-3.40306,1.49426,-0.47102,0.46630,0.37183,-0.04747,0.80128,-2.01776,-9.21881,7.34984
0.40852,0.81274,-0.01763,0.54590,0.81442,-0.24453,-2.14574,2.49662,0.90321,-3.49101,1.07480,-0.45471,0.44975,0.38515,-0.05297,0.80410,-1.40961,-9.40519,4.97058
0.41238,0.82492,-0.02156,0.49062,0.82676,-0.25232,-2.17123,2.33592,0.96920,-3.45241,0.46225,-0.59326,0.43311,0.39793,-0.05724,0.80672,-0.72797,-9.31495,5.81190
0.41602,0.83661,-0.02570,0.44271,0.82881,-0.26160,-2.15794,2.21999,1.04383,-3.49392,-0.18626,-0.82435,0.41686,0.41124,-0.06079,0.80834,1.86456,-8.33980,6.86560
0.41895,0.84765,-0.03023,0.39439,0.82119,-0.27499,-2.12832,2.15658,1.05038,-3.57090,-0.80732,-0.93024,0.40156,0.42426,-0.06591,0.80896,3.42095,-5.43245,2.68415
0.42126,0.85789,-0.03492,0.34697,0.80361,-0.28789,-2.13689,2.12898,0.96521,-3.42685,-1.55700,-0.80838,0.38635,0.43621,-0.07419,0.80929,-0.30778,-2.87437,-3.95893
0.42344,0.86757,-0.03959,0.30784,0.78100,-0.29747,-2.15054,2.11961,0.85028,-3.29955,-2.14270,-0.81155,0.37132,0.44765,-0.08414,0.80910,-2.64996,-2.42372,-8.06652
0.42423,0.87584,-0.04436,0.25675,0.74291,-0.30679,-2.09769,2.07857,0.69387,-3.05160,-2.56781,-0.43050,0.35901,0.45721,-0.09457,0.80816,0.83817,-3.44039,-10.58168
0.42537,0.88427,-0.04876,0.22079,0.71456,-0.30840,-2.00729,2.00251,0.66886,-2.89685,-2.38607,-0.10682,0.34669,0.46710,-0.10097,0.80711,5.78780,-5.30385,-5.91415
0.42554,0.89206,-0.05316,0.17881,0.68331,-0.31008,-1.89295,1.88849,0.68848,-3.06817,-2.28825,-0.23090,0.33514,0.47604,-0.10482,0.80628,8.48933,-7.66291,1.06664
0.42515,0.89934,-0.05766,0.13728,0.65114,-0.31269,-1.74437,1.78216,0.71104,-2.84089,-2.36111,-0.13874,0.32508,0.48473,-0.10740,0.80487,10.62669,-6.98186,1.31168
