posX, posY, posZ, velX, velY, velZ, angVelX, angVelY, angVelZ, accX, accY, accZ, rotX, rotY, rotZ, rotW, angAccX, angAccY, angAccZ
0.29839,1.09478,-0.30149,-0.02412,0.30885,-0.31650,1.03811,0.24266,0.31562,-0.15509,0.51382,0.05457,0.11478,0.74608,-0.18709,0.62864,4.49118,-2.48628,-5.17377
0.29798,1.09938,-0.30599,-0.02652,0.31546,-0.31698,1.09369,0.22824,0.28255,-0.28555,0.82482,-0.14897,0.11954,0.74865,-0.17977,0.62684,4.65174,-1.81741,-4.23853
0.29709,1.10504,-0.31078,-0.03558,0.33659,-0.32182,1.28287,0.23441,0.26169,-0.63252,1.52109,-0.51625,0.12712,0.75238,-0.16876,0.62393,8.65499,-0.03350,-1.72822
0.29598,1.11117,-0.31575,-0.04581,0.36017,-0.32781,1.53583,0.26485,0.31066,-0.94152,2.22120,-0.67445,0.13501,0.75733,-0.15369,0.62016,17.72328,2.20832,1.69589
0.29463,1.11784,-0.32082,-0.05676,0.38550,-0.33415,1.80419,0.31013,0.37407,-1.13939,2.73322,-0.73829,0.14369,0.76301,-0.13603,0.61536,24.51129,3.25407,4.91309
0.29219,1.12706,-0.32669,-0.08180,0.44399,-0.35086,2.35171,0.41701,0.50562,-1.28773,3.11591,-0.98700,0.15686,0.77157,-0.10796,0.60698,27.73195,5.01297,7.34326
0.29016,1.13561,-0.33255,-0.09601,0.48130,-0.36412,2.59368,0.49531,0.54298,-1.25870,3.45269,-0.98129,0.16746,0.77818,-0.08671,0.59906,25.05121,7.31696,4.50886
0.28759,1.14575,-0.33944,-0.11600,0.53622,-0.39021,2.38389,0.48134,0.48688,-1.10364,3.43604,-1.46640,0.17241,0.78128,-0.07714,0.59491,-9.03407,-0.90855,-2.35121
0.28493,1.15597,-0.34625,-0.13236,0.57858,-0.41050,2.14305,0.41826,0.53359,-2.03851,3.62859,-1.29981,0.17368,0.78342,-0.06782,0.59286,-24.97630,-0.77980,-4.81171
0.28138,1.16844,-0.35392,-0.15886,0.64744,-0.43939,2.11127,0.44621,0.57142,-0.72946,5.12153,-2.55084,0.17765,0.78701,-0.05487,0.58825,-8.41323,-8.34513,-2.93313
0.27809,1.18172,-0.36153,-0.17608,0.71335,-0.46134,2.38427,0.59080,0.75754,-1.94926,5.47747,-1.77982,0.18294,0.79443,-0.03146,0.57829,16.58656,13.88323,17.36139
0.27344,1.19691,-0.36944,-0.20951,0.79306,-0.48280,2.85702,0.73682,0.94907,-2.93614,5.76303,-1.56418,0.19203,0.80229,-0.00029,0.56520,32.73078,8.68963,13.29488
0.26715,1.21363,-0.37787,-0.26116,0.88097,-0.50776,3.22865,0.90853,1.16062,-3.44531,5.49939,-1.30485,0.19915,0.81047,0.03166,0.54998,28.01311,10.54409,14.64576
0.26092,1.22972,-0.38621,-0.30044,0.93991,-0.52665,3.26548,0.99449,1.25569,-3.39235,4.79758,-1.31089,0.20311,0.81661,0.05541,0.53743,9.41696,6.61267,11.39900
0.25343,1.24713,-0.39514,-0.35206,1.00922,-0.54969,3.26217,1.11623,1.29232,-3.36445,4.09402,-1.46102,0.20728,0.82299,0.07719,0.52323,-1.33689,5.39613,4.80207
0.24590,1.26407,-0.40382,-0.39316,1.05630,-0.56438,3.26380,1.23675,1.28874,-3.64706,3.89188,-0.93498,0.21237,0.82903,0.09818,0.50791,0.89515,10.34193,2.29177
0.23692,1.28204,-0.41235,-0.44599,1.10696,-0.57376,3.15696,1.31570,1.30107,-4.01654,3.61548,-0.13364,0.21501,0.83465,0.11649,0.49352,-5.69341,6.92624,2.23625
0.22655,1.30040,-0.42044,-0.51159,1.15838,-0.57440,2.90261,1.30830,1.34587,-4.34176,3.03371,0.16929,0.21365,0.83946,0.13134,0.48210,-14.42077,-2.17389,3.80507
0.21665,1.31806,-0.42835,-0.55461,1.18568,-0.57224,2.76422,1.32249,1.36678,-4.40087,2.57369,0.12469,0.21366,0.84394,0.14726,0.46950,-16.53579,-3.81373,4.23715
0.20489,1.33648,-0.43581,-0.61525,1.21913,-0.56421,2.74523,1.41198,1.38511,-4.40409,2.18506,0.54952,0.21520,0.84894,0.16496,0.45363,-6.49995,3.62036,3.00666
0.19190,1.35487,-0.44246,-0.68404,1.24989,-0.54490,2.93059,1.56680,1.38378,-4.43357,1.67172,1.44773,0.22077,0.85347,0.18744,0.43326,8.37530,10.20338,1.45641
0.17959,1.37279,-0.44881,-0.72714,1.26442,-0.52617,3.12880,1.67896,1.36111,-4.41525,1.31732,2.03772,0.22770,0.85647,0.21097,0.41245,15.14282,12.38299,-0.73349
0.16434,1.39118,-0.45304,-0.80348,1.28248,-0.48009,3.51943,1.89073,1.31388,-4.23571,0.83673,3.06832,0.23952,0.85829,0.23973,0.38536,21.65615,15.33698,-2.57394
0.14963,1.40865,-0.45718,-0.86013,1.28767,-0.44079,3.56622,1.93821,1.28057,-4.09239,0.21423,3.16687,0.24616,0.85933,0.26158,0.36406,8.85426,7.42832,-1.68415
0.13477,1.42585,-0.46127,-0.90647,1.28647,-0.40886,3.44945,1.94095,1.26224,-3.86806,-0.15649,2.69302,0.24985,0.86061,0.27903,0.34506,-8.01183,-0.02360,-1.08271
0.11837,1.44261,-0.46437,-0.96507,1.27887,-0.36850,3.32999,2.03323,1.24473,-3.63423,-0.65814,2.32003,0.25368,0.86266,0.29478,0.32336,-8.86756,2.76807,1.10258
0.10218,1.45863,-0.46748,-1.01152,1.26568,-0.33435,3.26672,2.20038,1.23047,-3.24057,-1.05847,2.59370,0.25852,0.86478,0.31042,0.29827,-5.41116,10.55929,2.65869
0.08585,1.47419,-0.46986,-1.05090,1.24833,-0.29512,3.21576,2.39367,1.18542,-2.69162,-1.26474,3.17600,0.26468,0.86652,0.32469,0.27141,-6.26136,13.86389,1.20975
0.06897,1.48996,-0.47077,-1.08462,1.22764,-0.24733,3.13883,2.50301,1.12830,-2.24441,-1.70711,3.83888,0.27063,0.86718,0.33795,0.24606,-4.59532,10.23200,-0.59098
0.05233,1.50526,-0.47109,-1.10851,1.20576,-0.20187,3.00388,2.53598,1.06183,-1.84704,-1.96388,4.15247,0.27581,0.86736,0.34895,0.22326,-10.20001,4.57257,-2.10154
0.03574,1.52044,-0.47095,-1.12495,1.18571,-0.16042,2.85692,2.51249,1.00395,-1.50536,-2.03398,4.49588,0.28019,0.86703,0.35891,0.20234,-13.83212,0.92680,-3.07759
0.01837,1.53382,-0.46750,-1.15005,1.14642,-0.08138,2.58760,2.38267,0.91793,-1.31190,-2.30963,4.33358,0.28312,0.86706,0.36478,0.18702,-15.81057,-8.51948,-3.58753
0.00147,1.54695,-0.46445,-1.16497,1.11124,-0.02122,2.47517,2.35063,0.87089,-0.95298,-2.56194,4.08451,0.28699,0.86608,0.37327,0.16795,-10.78773,-4.19804,-2.20415
-0.01538,1.55895,-0.46036,-1.17506,1.06497,0.04287,2.40949,2.39994,0.80666,-0.43408,-3.12643,3.80796,0.29258,0.86456,0.38144,0.14638,-5.22143,2.28814,-2.35770
-0.03163,1.57043,-0.45622,-1.17463,1.01996,0.09538,2.38709,2.49703,0.70749,0.32250,-3.23965,3.65454,0.30033,0.86199,0.38933,0.12329,-3.60408,7.06605,-4.57225
-0.04730,1.58156,-0.45205,-1.16673,0.97996,0.13726,2.36386,2.58742,0.60825,0.87826,-3.45063,3.44390,0.30871,0.85875,0.39653,0.10006,-2.88157,9.28856,-6.15076
-0.06212,1.59076,-0.44621,-1.14662,0.91822,0.19558,2.24731,2.68426,0.44682,1.31789,-3.42618,3.38313,0.31918,0.85562,0.39996,0.07795,-7.96666,7.56412,-7.18556
-0.07704,1.60053,-0.44096,-1.13241,0.87727,0.23410,2.11288,2.65971,0.37253,1.27233,-3.43236,3.38566,0.32639,0.85275,0.40351,0.05879,-10.48013,1.75757,-4.98463
-0.09172,1.60923,-0.43479,-1.11665,0.82915,0.27761,1.89320,2.52766,0.33379,1.25006,-3.42930,3.12197,0.33111,0.85111,0.40504,0.04390,-14.68259,-7.50158,-2.08281
-0.10436,1.61439,-0.42604,-1.06796,0.72824,0.35634,1.47654,2.27325,0.23500,2.01208,-3.36045,2.15102,0.33516,0.85140,0.40188,0.03578,-13.09608,-7.58198,-2.55922
-0.13233,1.63190,-0.41446,-1.04224,0.68883,0.37979,1.32533,2.20770,0.19322,2.27810,-3.15524,1.76390,0.34562,0.84651,0.40491,0.00484,-12.85854,-6.28427,-2.61308
-0.14445,1.63805,-0.40733,-1.00633,0.63906,0.40566,1.19653,2.16250,0.14807,2.14528,-2.94622,1.35740,0.35119,0.84459,0.40405,-0.00847,-9.92336,-4.16250,-1.76751
-0.15645,1.64409,-0.40030,-0.97635,0.59728,0.42565,1.21550,2.22932,0.12896,2.06195,-2.84925,1.23579,0.35768,0.84086,0.40538,-0.02633,-1.50056,2.76128,-1.20094
-0.16824,1.64993,-0.39336,-0.95033,0.56180,0.44015,1.28884,2.34549,0.11359,2.22165,-2.97130,1.00317,0.36490,0.83584,0.40748,-0.04675,5.12630,8.78906,-1.20500
-0.17913,1.65485,-0.38629,-0.91664,0.52051,0.45234,1.35124,2.51694,0.06229,2.57721,-2.97938,0.75836,0.37416,0.82970,0.40844,-0.06915,4.24768,12.78498,-2.33801
-0.18881,1.65887,-0.37916,-0.87317,0.47446,0.46210,1.31285,2.63184,-0.01125,2.93403,-2.94621,0.62133,0.38389,0.82400,0.40703,-0.08935,-0.95551,9.18405,-3.84101
-0.19818,1.66281,-0.37212,-0.83374,0.43615,0.46950,1.15355,2.61724,-0.05352,2.90915,-2.71716,0.64436,0.39171,0.82034,0.40320,-0.10500,-10.71159,0.60947,-1.20275
-0.20755,1.66667,-0.36512,-0.80078,0.40441,0.47764,1.02184,2.55034,-0.07033,2.83205,-2.60570,0.79571,0.39832,0.81689,0.39979,-0.11917,-12.10688,-3.68680,-0.34776
-0.21576,1.66939,-0.35783,-0.75739,0.36343,0.48980,0.87262,2.43706,-0.09156,2.69274,-2.48325,0.78671,0.40439,0.81401,0.39589,-0.13085,-9.77797,-7.05350,0.05618
-0.22374,1.67212,-0.35048,-0.71956,0.33004,0.49984,0.80145,2.36610,-0.12820,2.67139,-2.16533,0.61886,0.41104,0.80994,0.39307,-0.14335,-7.37195,-6.30696,-0.89357
-0.23111,1.67472,-0.34290,-0.68005,0.30050,0.50906,0.80430,2.36729,-0.20001,2.84671,-2.00801,0.61144,0.41939,0.80390,0.39113,-0.15774,-1.29685,0.02510,-4.49363
-0.23791,1.67711,-0.33535,-0.64074,0.27426,0.51624,0.80903,2.36645,-0.27616,2.82744,-1.71083,0.45372,0.42811,0.79729,0.38928,-0.17178,-0.14799,0.29393,-5.56923
-0.24426,1.67954,-0.32777,-0.60331,0.25400,0.52251,0.82069,2.36698,-0.33552,2.53425,-1.21633,0.49902,0.43662,0.79035,0.38753,-0.18584,-0.47665,-0.34496,-5.01158
-0.25060,1.68208,-0.31999,-0.57158,0.23865,0.53196,0.86702,2.37091,-0.34067,2.17020,-0.96801,0.92106,0.44374,0.78315,0.38643,-0.20111,2.35870,1.29225,-2.49849
-0.25671,1.68444,-0.31165,-0.54260,0.22376,0.54818,0.92161,2.28728,-0.27830,1.84574,-0.96676,1.12416,0.44776,0.77697,0.38669,-0.21514,4.34526,-4.35811,2.04711
-0.26285,1.68691,-0.30320,-0.52124,0.21399,0.56136,0.93789,2.18926,-0.21327,1.93188,-0.79103,1.14843,0.45095,0.77153,0.38649,-0.22808,2.42358,-7.39161,4.66504
-0.26841,1.68929,-0.29446,-0.49512,0.20430,0.57568,0.92567,2.03023,-0.12791,1.98704,-0.72163,0.92370,0.45224,0.76740,0.38661,-0.23895,1.07946,-11.10821,5.35737
-0.27348,1.69165,-0.28581,-0.46743,0.19643,0.58593,0.91984,1.90468,-0.04321,1.95178,-0.48244,0.59022,0.45297,0.76344,0.38662,-0.24999,-0.83284,-11.32280,5.60116
-0.27783,1.69395,-0.27723,-0.43466,0.18946,0.59323,0.92228,1.79732,0.07042,2.19953,-0.43535,0.35213,0.45233,0.76000,0.38652,-0.26155,1.24619,-6.90372,6.02992
-0.28222,1.69633,-0.26874,-0.40891,0.18503,0.59681,0.90052,1.68983,0.16862,2.27102,-0.44704,0.29739,0.45133,0.75706,0.38599,-0.27234,0.26541,-8.20374,7.22133
-0.28619,1.69857,-0.26027,-0.38344,0.17967,0.59962,0.84413,1.53342,0.29242,2.24977,-0.59611,0.20675,0.44836,0.75604,0.38513,-0.28118,-1.79282,-11.87023,9.20960
-0.28912,1.70040,-0.25182,-0.34833,0.16983,0.60178,0.73281,1.28185,0.46104,2.25449,-0.84413,0.11956,0.44239,0.75818,0.38389,-0.28652,-5.16831,-16.34072,10.40087
-0.29161,1.70177,-0.24337,-0.31188,0.15471,0.60326,0.62645,1.02048,0.59583,2.40624,-1.06297,0.12855,0.43596,0.76092,0.38303,-0.29024,-5.42713,-16.49230,8.44859
-0.29400,1.70292,-0.23488,-0.28207,0.13979,0.60510,0.60128,0.84689,0.63772,2.50376,-1.25468,0.17257,0.43113,0.76158,0.38367,-0.29481,-3.40944,-15.96375,5.84873
-0.29542,1.70354,-0.22631,-0.24535,0.12040,0.60773,0.65979,0.74481,0.62513,2.58133,-1.30248,0.21607,0.42721,0.76018,0.38622,-0.30076,2.59920,-10.15237,-0.70486
-0.29589,1.70363,-0.21753,-0.20147,0.09680,0.61242,0.80901,0.66389,0.54778,2.74560,-1.61008,0.29651,0.42405,0.75633,0.39192,-0.30749,8.83400,-3.71146,-4.88089
-0.29667,1.70366,-0.20884,-0.17125,0.07708,0.61425,0.89052,0.57052,0.49631,2.40842,-1.87298,0.00162,0.42056,0.75332,0.39707,-0.31300,9.29524,-6.82201,-6.20727
-0.29767,1.70301,-0.20057,-0.13811,0.05193,0.61057,0.94983,0.43743,0.44021,2.01961,-1.58096,-0.52672,0.41673,0.75076,0.40308,-0.31659,4.17781,-8.00695,-4.33162
-0.29937,1.70229,-0.19278,-0.11698,0.03086,0.60048,0.97329,0.35749,0.42634,1.55069,-1.64636,-1.07641,0.41264,0.74868,0.40770,-0.32091,2.56824,-6.00190,-1.91915
-0.30069,1.70127,-0.18575,-0.09852,0.00972,0.58072,0.94461,0.34508,0.38135,1.39958,-1.47528,-1.84002,0.41051,0.74626,0.41072,-0.32541,-1.70375,-3.23783,-2.12580
-0.30134,1.70029,-0.17968,-0.07910,-0.00746,0.55016,0.90368,0.45629,0.29124,1.37080,-1.01890,-2.53269,0.41153,0.74204,0.41210,-0.33195,-3.04734,5.76231,-5.41215
-0.30182,1.69959,-0.17445,-0.06000,-0.01705,0.51301,0.86371,0.62964,0.18355,1.59705,-0.47148,-2.87483,0.41468,0.73640,0.41242,-0.34011,-3.36963,13.18503,-6.11830
-0.30174,1.69919,-0.17000,-0.04023,-0.01968,0.47251,0.80190,0.80915,0.12767,1.61481,-0.01776,-2.92994,0.41797,0.73101,0.41105,-0.34924,-4.83587,13.86861,-3.55671
-0.30073,1.69885,-0.16628,-0.01667,-0.02072,0.42990,0.74699,0.93845,0.06843,1.52161,-0.00782,-2.34483,0.42149,0.72556,0.40984,-0.35769,-5.25038,9.10307,-2.95027
-0.29989,1.69847,-0.16184,-0.00053,-0.02216,0.40675,0.74213,0.97018,0.03013,1.34257,-0.18905,-1.66611,0.42339,0.72043,0.41049,-0.36500,-1.76239,4.57365,-3.42501
-0.29877,1.69777,-0.15760,0.01614,-0.02799,0.38566,0.75475,0.98420,-0.01925,1.20399,-0.56275,-1.52817,0.42537,0.71485,0.41194,-0.37197,1.14059,1.28532,-3.31583
-0.29735,1.69687,-0.15375,0.03378,-0.03548,0.36345,0.73016,1.00703,-0.08067,1.35086,-0.61694,-1.63991,0.42845,0.70923,0.41260,-0.37841,-0.81820,2.46727,-4.13499
-0.29578,1.69587,-0.15019,0.04983,-0.04295,0.34117,0.62737,0.92798,-0.09760,1.19737,-0.61310,-1.58280,0.43044,0.70639,0.41227,-0.38180,-5.96320,-2.59462,-1.78499
-0.29421,1.69488,-0.14681,0.06275,-0.04880,0.32092,0.52409,0.83457,-0.09146,0.68992,-0.18350,-1.34376,0.43177,0.70462,0.41161,-0.38426,-9.18393,-8.57362,0.32086
-0.29267,1.69393,-0.14351,0.07254,-0.05276,0.30397,0.50768,0.86956,-0.08684,0.48130,-0.22823,-1.05620,0.43376,0.70048,0.41093,-0.39027,-2.30627,0.43728,0.66034
-0.29101,1.69283,-0.14023,0.08222,-0.05815,0.28967,0.52780,0.94093,-0.07722,0.66615,-0.46706,-0.78735,0.43575,0.69528,0.41032,-0.39792,2.01336,4.76196,0.43604
-0.28931,1.69160,-0.13682,0.09058,-0.06458,0.28058,0.52325,0.97483,-0.08507,0.80721,-0.69221,-0.75957,0.43804,0.69039,0.40974,-0.40446,0.69621,3.84604,-0.79735
-0.28723,1.68996,-0.13365,0.10274,-0.07562,0.26945,0.43796,0.93408,-0.07005,0.86097,-0.83284,-0.63238,0.43999,0.68776,0.40795,-0.40863,-4.29961,-1.24737,0.62705
-0.28524,1.68828,-0.13031,0.11111,-0.08492,0.26337,0.35503,0.84922,-0.04762,0.66417,-0.73940,-0.39821,0.44116,0.68628,0.40640,-0.41138,-7.46353,-6.28076,2.52101
-0.28323,1.68648,-0.12689,0.11778,-0.09388,0.26003,0.29740,0.78013,-0.02162,0.45593,-0.64858,-0.17157,0.44198,0.68491,0.40493,-0.41422,-6.04980,-6.80148,2.28540
-0.28113,1.68444,-0.12330,0.12441,-0.10441,0.25958,0.26676,0.72499,0.01352,0.32998,-0.61488,0.13274,0.44223,0.68354,0.40361,-0.41750,-2.45306,-4.05176,2.40580
-0.27909,1.68240,-0.11951,0.12876,-0.11297,0.26213,0.28685,0.71008,0.01235,0.31710,-0.65247,0.31057,0.44294,0.68065,0.40332,-0.42172,0.32545,-2.41515,1.17967
-0.27689,1.67994,-0.11546,0.13467,-0.12585,0.26802,0.37288,0.76685,-0.03899,0.29506,-0.83325,0.43421,0.44479,0.67500,0.40432,-0.42786,4.55169,2.78822,-3.34825
-0.27477,1.67728,-0.11131,0.13815,-0.13905,0.27411,0.44008,0.78974,-0.08880,0.26102,-1.08163,0.42984,0.44655,0.66944,0.40573,-0.43339,5.90636,3.41785,-4.09331
-0.27279,1.67449,-0.10712,0.13904,-0.15130,0.27947,0.47193,0.76578,-0.12485,-0.00639,-1.01447,0.43541,0.44791,0.66488,0.40723,-0.43759,2.66231,-1.74236,-3.02906
-0.27098,1.67135,-0.10282,0.13723,-0.16617,0.28537,0.52896,0.76107,-0.16779,-0.23909,-0.77085,0.28318,0.44930,0.65941,0.40942,-0.44236,3.13913,-0.39095,-2.82685
-0.26927,1.66848,-0.09871,0.13425,-0.17416,0.28721,0.58340,0.79471,-0.20873,-0.24660,-0.36012,-0.01499,0.45120,0.65308,0.41129,-0.44804,3.80594,2.21489,-3.04485
-0.26759,1.66593,-0.09477,0.13152,-0.17590,0.28637,0.60809,0.80021,-0.23089,-0.25920,-0.06716,-0.19371,0.45282,0.64745,0.41291,-0.45307,3.04167,1.99348,-2.93929
-0.26623,1.66377,-0.09106,0.12475,-0.17178,0.28258,0.62774,0.79710,-0.22746,-0.41796,0.36073,-0.15138,0.45384,0.64221,0.41430,-0.45822,1.14622,0.52704,-0.46052
-0.26500,1.66176,-0.08714,0.11751,-0.16625,0.28236,0.62183,0.71623,-0.17901,-0.58345,0.47948,0.04423,0.45301,0.63923,0.41572,-0.46189,0.05429,-4.50838,2.68104
-0.26416,1.66005,-0.08305,0.10609,-0.15749,0.28460,0.64017,0.60873,-0.10560,-0.73771,0.69018,0.19365,0.45040,0.63718,0.41779,-0.46540,0.67113,-7.13604,4.54586
-0.26326,1.65844,-0.07893,0.09787,-0.14924,0.28705,0.66034,0.52735,-0.05422,-0.61872,0.72388,0.22014,0.44792,0.63481,0.41999,-0.46903,2.44200,-5.90754,4.04516
-0.26257,1.65725,-0.07472,0.08826,-0.13637,0.28987,0.68918,0.40180,-0.00132,-0.58369,0.90113,0.10290,0.44407,0.63341,0.42327,-0.47163,1.98652,-8.98509,3.00088
-0.26170,1.65631,-0.07071,0.08298,-0.12236,0.28939,0.72105,0.33777,0.02477,-0.25093,1.12685,-0.07668,0.44098,0.63101,0.42636,-0.47496,2.11784,-5.20470,1.79333
-0.26065,1.65581,-0.06673,0.08167,-0.10466,0.28873,0.74923,0.25796,0.03905,0.12098,1.08886,0.04563,0.43762,0.62886,0.43001,-0.47761,1.75310,-4.44216,0.18546
-0.25926,1.65535,-0.06250,0.08554,-0.08995,0.29212,0.79011,0.15284,0.03858,0.49866,0.99156,0.39021,0.43363,0.62691,0.43478,-0.47950,2.47080,-6.43219,0.21407
-0.25765,1.65474,-0.05801,0.09169,-0.08055,0.29826,0.82511,0.01658,0.02602,0.67214,0.67940,0.55374,0.42901,0.62557,0.44063,-0.48006,3.01697,-10.08140,-0.86852
-0.25561,1.65430,-0.05316,0.10292,-0.07063,0.30846,0.84420,-0.21291,-0.00856,0.78508,0.55927,0.65754,0.42326,0.62591,0.44847,-0.47746,1.59433,-14.38885,-2.81579
-0.25339,1.65383,-0.04835,0.11474,-0.06296,0.31625,0.86716,-0.37462,-0.06211,0.86019,0.61114,0.47353,0.41821,0.62535,0.45649,-0.47504,1.63688,-12.38634,-4.56752
-0.25081,1.65363,-0.04361,0.12935,-0.05283,0.32116,0.88709,-0.47696,-0.13760,1.10134,0.84263,0.31037,0.41414,0.62383,0.46464,-0.47269,1.50010,-8.07312,-4.96143
-0.24791,1.65362,-0.03887,0.14557,-0.04209,0.32502,0.92585,-0.49843,-0.24828,1.04799,0.79370,0.35500,0.41163,0.62027,0.47318,-0.47109,2.14118,-3.47292,-7.68485
-0.24488,1.65364,-0.03407,0.16031,-0.03320,0.32927,0.99408,-0.45082,-0.34886,1.26811,0.75976,0.47916,0.40976,0.61482,0.48176,-0.47116,5.10084,2.49476,-8.07219
-0.24117,1.65380,-0.02883,0.18189,-0.02424,0.33881,1.09221,-0.42049,-0.49465,1.46487,0.39732,0.72008,0.40842,0.60769,0.49235,-0.47064,6.51482,3.60088,-8.21045
-0.23733,1.65373,-0.02333,0.20131,-0.02025,0.35039,1.20446,-0.40846,-0.63608,1.37230,0.31562,0.89597,0.40675,0.59983,0.50408,-0.46975,6.92207,0.57177,-9.41116
-0.23334,1.65362,-0.01776,0.21865,-0.01781,0.36069,1.31899,-0.38279,-0.75945,1.51529,0.12202,0.84232,0.40509,0.59094,0.51621,-0.46927,9.97546,2.85984,-9.82922
-0.22864,1.65332,-0.01173,0.24308,-0.01871,0.37541,1.46166,-0.42345,-0.94364,1.33427,-0.19586,0.76349,0.40321,0.58071,0.53142,-0.46668,8.50744,-1.33778,-10.31514
-0.22420,1.65292,-0.00579,0.25905,-0.02083,0.38624,1.53586,-0.51407,-1.05715,1.06690,-0.24753,0.71052,0.40023,0.57244,0.54585,-0.46279,5.88502,-4.87607,-9.31793
-0.21999,1.65250,0.00007,0.26809,-0.02279,0.39349,1.57426,-0.60063,-1.12161,0.83842,-0.22700,0.71577,0.39665,0.56499,0.55963,-0.45854,4.07041,-8.10076,-7.75699
-0.21531,1.65196,0.00624,0.28165,-0.02602,0.40342,1.66539,-0.67831,-1.20859,0.80019,-0.16531,0.59450,0.39243,0.55586,0.57518,-0.45407,5.24121,-5.41574,-5.63485
-0.21053,1.65135,0.01245,0.29452,-0.02978,0.41214,1.76873,-0.74129,-1.28371,0.70771,-0.41927,0.53851,0.38773,0.54588,0.59110,-0.44977,6.95733,-3.56988,-5.64649
-0.20589,1.65054,0.01866,0.30273,-0.03566,0.41955,1.86482,-0.81986,-1.33983,0.80929,-0.56352,0.67261,0.38203,0.53592,0.60729,-0.44503,6.93294,-4.52530,-3.85755
-0.20126,1.64943,0.02513,0.30854,-0.04468,0.42850,1.91478,-1.02615,-1.40538,0.51727,-1.03274,0.60415,0.37412,0.52803,0.62509,-0.43644,6.15967,-11.98638,-6.18439
-0.19678,1.64773,0.03182,0.31109,-0.06024,0.43891,1.89686,-1.38962,-1.49381,-0.05221,-0.99849,0.59572,0.36357,0.52359,0.64456,-0.42216,-3.27855,-22.68366,-8.96588
-0.19248,1.64589,0.03835,0.31080,-0.07513,0.44524,1.93609,-1.60689,-1.56906,-0.22442,-1.06880,0.40104,0.35342,0.51656,0.66361,-0.40973,0.11356,-17.34942,-8.11069
-0.18819,1.64385,0.04473,0.31010,-0.08937,0.44760,2.02466,-1.69991,-1.61719,-0.15869,-1.20573,0.12572,0.34348,0.50691,0.68223,-0.39954,5.35679,-10.03686,-5.40328
-0.18391,1.64106,0.05084,0.30951,-0.11184,0.44568,2.18808,-1.71314,-1.66756,-0.12381,-1.62984,-0.23358,0.33341,0.49387,0.70141,-0.39110,9.38848,-3.15846,-2.52497
-0.17977,1.63763,0.05669,0.30710,-0.13947,0.44070,2.36605,-1.70065,-1.70945,-0.25843,-2.28354,-0.41917,0.32303,0.47903,0.72054,-0.38341,13.50874,0.94601,-0.94753
-0.17590,1.63371,0.06253,0.30118,-0.16806,0.43625,2.50923,-1.75099,-1.76261,-0.52042,-2.52541,-0.40380,0.31133,0.46419,0.74019,-0.37379,12.63256,-3.08332,-3.05425
-0.17239,1.62856,0.06812,0.29123,-0.20852,0.42929,2.68469,-1.87347,-1.85376,-0.56567,-2.59148,-0.51026,0.29732,0.44793,0.76160,-0.36185,10.72201,-7.52360,-5.00633
-0.16910,1.62290,0.07341,0.28005,-0.24951,0.41923,2.81714,-2.02542,-1.95246,-0.71359,-2.59788,-0.81253,0.28236,0.43179,0.78279,-0.34795,8.87701,-9.03947,-7.34329
-0.16574,1.61742,0.07858,0.27188,-0.27909,0.40909,2.86466,-2.17475,-2.04500,-0.54590,-2.51231,-0.96839,0.26731,0.41674,0.80281,-0.33223,5.30221,-10.51197,-7.71844
-0.16355,1.60912,0.08243,0.24498,-0.35226,0.37833,2.78156,-2.66590,-2.39280,-1.18937,-2.62941,-1.15385,0.24866,0.40508,0.82568,-0.30387,-4.03708,-14.05456,-14.85572
-0.15794,1.59676,0.09186,0.22667,-0.39055,0.36171,2.79297,-2.83415,-2.57470,-1.56781,-2.70165,-1.12245,0.21723,0.37486,0.86208,-0.26290,-1.81379,-11.20816,-17.08511
-0.15586,1.58901,0.09585,0.21081,-0.42476,0.34626,2.95322,-2.85678,-2.64424,-1.54840,-2.67215,-1.16682,0.20015,0.35425,0.88054,-0.24310,8.54829,-5.78618,-9.09283
-0.15426,1.58016,0.09917,0.19129,-0.46818,0.32418,3.32773,-2.77022,-2.58897,-1.32605,-2.47001,-1.38904,0.18153,0.32614,0.89890,-0.22950,21.90928,-0.38606,6.62263
-0.15264,1.57139,0.10227,0.17555,-0.50163,0.30291,3.69953,-2.65900,-2.38036,-1.23606,-2.28672,-1.64207,0.16118,0.29627,0.91508,-0.22110,24.76941,0.06463,17.63766
-0.15115,1.56256,0.10514,0.16151,-0.52886,0.28301,3.95995,-2.60662,-2.17142,-1.10474,-2.41759,-1.77818,0.13962,0.26736,0.92931,-0.21308,21.33073,-2.98543,23.59568
-0.15046,1.55262,0.10723,0.13854,-0.56710,0.25589,4.14366,-2.66554,-2.02619,-1.49827,-2.69260,-1.91178,0.11559,0.23924,0.94249,-0.20275,10.73491,-7.38422,11.80289
-0.15027,1.54213,0.10896,0.11242,-0.60563,0.22833,4.23302,-2.78949,-1.98128,-2.03761,-2.95272,-2.11860,0.09047,0.21246,0.95452,-0.18857,4.57561,-9.96348,2.52864
-0.14991,1.53201,0.11091,0.09521,-0.62972,0.21081,4.28652,-2.87893,-1.95740,-2.25787,-3.09653,-2.25007,0.06566,0.18569,0.96489,-0.17379,3.98567,-10.59419,0.27634
-0.15158,1.51905,0.11057,0.05300,-0.68921,0.16454,4.44584,-3.09371,-1.91585,-2.45258,-3.50366,-2.87634,0.03485,0.15591,0.97435,-0.15849,6.19722,-13.44416,-0.38957
-0.15358,1.50553,0.10933,0.01278,-0.74643,0.11236,4.59029,-3.30141,-1.93899,-2.51567,-3.78005,-3.73964,0.00338,0.12503,0.98210,-0.14087,8.25157,-13.51578,-2.52490
-0.15587,1.49157,0.10714,-0.02394,-0.79958,0.05648,4.69897,-3.45504,-2.07377,-2.59606,-4.03116,-4.33672,-0.02663,0.09366,0.98806,-0.11944,7.11015,-9.62197,-9.15858
-0.15876,1.47670,0.10342,-0.06206,-0.85560,-0.01072,4.85677,-3.58566,-2.28679,-2.78996,-4.07528,-5.34233,-0.05665,0.05953,0.99214,-0.09438,13.36887,-7.56725,-14.28722
-0.16281,1.46071,0.09696,-0.11016,-0.91655,-0.10631,5.05920,-3.71732,-2.58257,-3.19512,-3.60192,-6.76818,-0.08730,0.02263,0.99381,-0.06485,16.16244,-4.67130,-16.62778
-0.16692,1.44540,0.08965,-0.14891,-0.95522,-0.19441,5.22302,-3.82039,-2.78180,-3.35402,-2.84816,-8.02276,-0.11784,-0.01415,0.99227,-0.03629,16.70606,-4.84813,-15.97583
-0.17200,1.42987,0.07878,-0.19349,-0.98798,-0.31586,5.42077,-3.95780,-2.92445,-3.20668,-1.64893,-9.42785,-0.15032,-0.05296,0.98719,-0.00762,15.14024,-7.49107,-12.04217
-0.17764,1.41503,0.06363,-0.23750,-1.00334,-0.47768,5.63876,-4.18507,-2.92227,-2.53703,-0.02529,-10.90306,-0.18659,-0.09338,0.97783,0.01776,12.11037,-14.63958,-3.53213
-0.18252,1.40149,0.04788,-0.26105,-0.99663,-0.61451,5.80847,-4.41342,-2.79480,-1.75373,1.42353,-11.97283,-0.22382,-0.13363,0.96464,0.03886,8.42045,-21.45115,2.11602
-0.18711,1.38960,0.02765,-0.27501,-0.96748,-0.78773,5.94793,-4.81299,-2.52699,-0.57179,3.04243,-12.78565,-0.26720,-0.17394,0.94626,0.05420,2.55006,-31.41165,7.04877
-0.19064,1.37963,0.00437,-0.27001,-0.91485,-0.96949,5.99933,-5.32215,-2.21873,1.15427,4.78439,-13.33160,-0.31542,-0.21243,0.92255,0.06555,-6.20236,-41.55618,5.13470
-0.19237,1.37215,-0.02162,-0.23959,-0.83687,-1.15364,5.94552,-5.86074,-1.93567,3.33957,6.55045,-13.19177,-0.36608,-0.24758,0.89398,0.07406,-12.03043,-43.36679,0.68895
-0.19105,1.36827,-0.05088,-0.16931,-0.72029,-1.35153,5.76907,-6.27490,-1.77608,5.92410,8.11834,-12.00794,-0.41458,-0.27754,0.86267,0.08299,-15.45095,-28.89705,-5.64175
-0.18912,1.36397,-0.07736,-0.10589,-0.63560,-1.46387,5.62474,-6.38346,-1.73306,7.36266,8.97794,-10.99264,-0.45513,-0.30611,0.83075,0.09492,-14.69631,-14.79394,-8.07361
-0.18141,1.36542,-0.10887,0.02828,-0.48571,-1.62486,5.39345,-6.43351,-1.62084,9.77182,10.10280,-9.51300,-0.49291,-0.33092,0.79808,0.10296,-15.10918,-2.40325,-3.14705
-0.17072,1.36853,-0.13976,0.18034,-0.34051,-1.74707,5.19140,-6.51059,-1.34629,11.81164,10.96381,-7.91474,-0.52872,-0.35664,0.76313,0.10436,-19.99965,-5.40796,5.79263
-0.15786,1.37295,-0.16992,0.33044,-0.20742,-1.83054,4.94117,-6.70924,-1.00583,12.92671,11.82868,-5.97022,-0.56592,-0.38085,0.72447,0.09916,-26.94068,-17.34249,10.50624
-0.13840,1.38354,-0.20046,0.54576,-0.01187,-1.90292,4.33959,-7.18564,-0.66827,13.75821,13.32041,-3.13320,-0.61010,-0.39416,0.68233,0.08272,-41.10466,-28.65043,-5.64140
-0.11573,1.39797,-0.22877,0.77083,0.20603,-1.93003,3.57033,-7.85070,-0.56137,14.38832,14.51859,-0.16038,-0.66021,-0.39690,0.63455,0.06279,-43.71727,-35.46813,-26.49855
-0.09690,1.40900,-0.25534,0.88746,0.32398,-1.92456,3.15732,-8.20607,-0.57729,14.83928,15.37531,1.55772,-0.70357,-0.40159,0.58420,0.04920,-40.67306,-38.32331,-36.90709
-0.08938,1.42603,-0.27504,1.14790,0.61082,-1.85960,2.21496,-8.93130,-0.81533,14.56870,17.26072,6.06328,-0.75735,-0.38443,0.52734,0.02354,-34.44903,-34.47527,-46.36876
-0.07232,1.44456,-0.29401,1.37213,0.90067,-1.72902,1.18611,-9.45154,-1.27109,13.45786,19.71361,10.30931,-0.80711,-0.35530,0.47152,-0.00179,-35.35347,-22.96075,-60.74911
-0.05309,1.46320,-0.31159,1.50109,1.09942,-1.61504,0.42819,-9.82493,-1.77316,12.08297,21.18493,12.57199,-0.85197,-0.32226,0.41197,-0.02410,-29.64245,-25.75637,-77.23977
-0.03436,1.48771,-0.32236,1.67249,1.43980,-1.39335,-0.93081,-10.62809,-3.12634,8.81953,22.87858,15.04619,-0.90593,-0.24637,0.34050,-0.05149,-17.92172,-41.88146,-112.90240
-0.01510,1.51366,-0.33170,1.78074,1.75147,-1.17877,-2.16655,-11.56390,-4.71971,6.45014,23.30517,16.27626,-0.95186,-0.15114,0.25488,-0.07846,-0.67900,-70.77361,-138.47870
0.00185,1.54370,-0.33882,1.84087,2.09185,-0.95642,-3.06423,-11.61219,-7.33903,4.46188,26.73518,17.41085,-0.98034,-0.01943,0.18095,-0.07620,47.49940,-59.78517,-166.33560
0.01528,1.58030,-0.34224,1.90210,2.52096,-0.70575,-3.35394,-10.31844,-10.27061,5.70432,26.52317,17.97614,-0.98083,0.12854,0.13969,-0.04408,122.48150,-28.10946,-160.89890
0.02899,1.62196,-0.34558,1.99109,2.87044,-0.52417,-2.56729,-8.66281,-11.91063,10.07472,30.03372,15.70427,-0.96366,0.24111,0.11485,0.00551,195.10840,16.82997,-96.19009
0.04012,1.67510,-0.34247,2.19782,3.34937,-0.25801,-1.39014,-5.64197,-13.81203,20.73642,36.61702,22.10829,-0.91694,0.36468,0.14154,0.07872,233.92310,16.48819,-79.54506
0.05900,1.73550,-0.33498,2.51630,3.77389,0.01543,0.36334,-3.66058,-15.00164,32.36744,34.09822,24.33262,-0.85490,0.46692,0.15421,0.16539,261.33800,-60.19016,-56.40805
0.08498,1.80481,-0.31604,3.18606,4.28074,0.49258,2.82406,-2.07719,-16.32366,51.97121,28.01808,35.58027,-0.76108,0.56227,0.16657,0.27725,172.27490,-90.75609,-52.27250
0.13467,1.87226,-0.28857,3.87587,4.54941,0.97264,4.99246,-1.30078,-17.08936,63.21107,15.98479,45.69109,-0.65031,0.63593,0.16426,0.38172,137.50900,-124.13900,-72.32065
0.20728,1.93062,-0.23903,4.97130,4.60402,1.77080,8.87178,-1.37317,-17.70040,73.05872,-12.11973,56.64186,-0.49757,0.66468,0.15669,0.53485,104.94760,-204.07790,-100.75510
0.30179,1.95774,-0.16452,6.15598,4.09683,2.80238,12.47964,-2.61066,-17.88634,73.45885,-53.91302,73.51345,-0.32405,0.64729,0.12575,0.67837,22.95651,-193.50790,-143.05230
0.40527,1.94474,-0.06921,7.10694,3.03922,3.87048,14.83794,-3.80591,-18.19056,63.27633,-98.55523,77.38135,-0.13516,0.60875,0.08475,0.77716,8.35015,-161.89850,-136.77260
0.50977,1.88904,0.03644,7.74582,1.58666,4.80973,16.13298,-4.37401,-19.81520,45.87215,-147.68590,76.20180,0.08702,0.57072,0.02096,0.81625,36.38836,-44.63666,-151.73400
0.59165,1.74118,0.15286,7.97121,-0.88293,5.73672,18.12254,-1.64229,-22.46487,-13.27371,-205.26800,46.22568,0.37210,0.54720,-0.00563,0.74972,242.51380,-43.57424,-122.41350
0.60216,1.51957,0.23023,7.12569,-3.94988,6.00501,21.94501,4.36330,-20.63921,-101.22580,-225.63870,-13.83372,0.61506,0.51994,0.11254,0.58198,338.81100,-316.72210,-21.97307
0.52739,1.28230,0.23855,5.25760,-6.87531,5.37486,28.81290,8.41817,-13.90600,-156.75320,-187.82790,-76.20171,0.78200,0.38317,0.35172,0.34345,303.55310,-503.97280,-396.83620
0.40027,1.08136,0.18157,2.91623,-9.09594,3.93579,36.42103,6.25327,-6.36526,-177.69170,-129.25180,-127.26630,0.81778,0.07819,0.56451,0.08027,380.60290,-114.67170,-719.97010
0.25202,0.93787,0.06499,0.52336,-10.28999,1.67949,39.68867,-1.36082,-4.15602,-167.72380,-34.30298,-180.57140,0.73551,-0.27927,0.61303,-0.07234,327.59700,410.43990,-466.44440
0.13160,0.88880,-0.08671,-1.41043,-9.81599,-0.82762,35.12360,-5.88493,-7.48586,-111.70290,87.35855,-149.30310,0.67706,-0.48491,0.55056,-0.05782,37.08104,503.88390,-34.24289
0.06280,0.87197,-0.18488,-2.23579,-8.65891,-2.04345,29.54986,-5.40889,-10.41847,-57.52167,133.98450,-90.26801,0.66866,-0.58836,0.45382,-0.02790,-160.65710,527.85380,333.08310
0.18688,0.92603,-0.19630,-2.62669,-6.41466,-2.65180,21.08748,-3.08543,-8.79377,10.45405,109.59250,9.69527,0.71528,-0.53169,0.45077,0.04992,-396.26020,155.73390,332.52110
0.39885,0.88233,-0.11397,-2.47982,-5.19057,-2.32617,17.12652,-5.59794,-5.52937,16.00930,72.68588,36.37445,0.65209,-0.53730,0.53475,0.01142,-397.60500,-68.36469,-95.22446
0.46249,0.83781,-0.08004,-2.35680,-4.59929,-1.91289,14.06303,-7.50324,-4.02205,7.04046,46.89769,44.84858,0.57666,-0.55781,0.59657,-0.02033,-329.11820,-129.46360,-210.94880
0.51667,0.80173,-0.00499,-2.30598,-4.02426,-0.97206,5.15646,-4.86858,-4.94713,-4.78419,15.54591,40.29630,0.57153,-0.47827,0.64085,0.18416,-335.19560,313.12400,-137.56310
0.50649,0.75531,0.02589,-2.32878,-3.83228,-0.47199,0.88041,-0.94948,-4.12603,-1.16862,14.88838,32.92243,0.61846,-0.39500,0.61270,0.29339,-240.35460,396.79890,56.51064
0.48170,0.71602,0.05175,-2.39933,-3.59999,-0.07784,-1.83900,1.79812,-3.56255,-4.35204,17.83529,20.97488,0.64636,-0.32354,0.57620,0.38149,-138.70520,244.16890,47.75652
0.44724,0.68103,0.06613,-2.48092,-3.37179,0.11809,-2.49976,2.45966,-4.11839,-4.79253,20.90559,15.91216,0.63902,-0.31781,0.54567,0.43921,-50.65607,113.27130,-43.33270
0.41009,0.65446,0.08097,-2.56210,-3.07254,0.28301,-3.02204,1.95032,-4.71697,-3.82663,23.01380,9.87334,0.60695,-0.32542,0.53550,0.48883,-57.45853,-10.14972,-29.40565
0.37930,0.64261,0.09396,-2.59698,-2.70657,0.40203,-3.50881,0.82908,-4.87885,-0.25863,23.81889,5.61555,0.56244,-0.33428,0.54420,0.52513,-49.70960,-57.72073,-2.91007
0.34397,0.62379,0.10376,-2.58896,-2.42605,0.45266,-3.86437,0.16311,-4.58249,0.50947,23.74891,1.95544,0.52654,-0.33231,0.55290,0.55374,-53.42406,-48.97954,33.72236
0.31011,0.61374,0.11200,-2.56262,-2.07511,0.46630,-4.02932,0.13818,-3.98551,0.98937,21.14287,-1.59341,0.50562,-0.31882,0.55551,0.57802,-16.65559,3.53302,39.92638
0.27611,0.60090,0.11750,-2.53968,-1.83713,0.44690,-3.93166,0.53315,-3.57969,1.92405,19.78666,-2.47477,0.49531,-0.30485,0.54601,0.60299,13.17400,33.89089,26.34041
0.24326,0.59421,0.12195,-2.50583,-1.56037,0.40958,-3.76819,1.02083,-3.25372,2.60299,19.85524,-3.48950,0.48958,-0.28892,0.53209,0.62747,21.60489,38.25484,16.10099
0.21126,0.59154,0.12472,-2.46624,-1.28197,0.35616,-3.59141,1.31999,-3.10765,3.39339,20.34359,-4.56550,0.48107,-0.27695,0.51706,0.65156,19.61402,24.00528,5.27334
0.18109,0.59369,0.12496,-2.40637,-0.98988,0.28053,-3.29211,1.63914,-3.01351,4.92507,21.72150,-7.06344,0.47621,-0.26652,0.49850,0.67356,19.64242,15.00558,0.76834
0.15183,0.59690,0.12286,-2.34445,-0.74561,0.18807,-2.66543,2.12821,-3.05222,4.36120,19.86221,-9.75865,0.48220,-0.26025,0.46920,0.69253,41.00117,24.49813,-6.60936
0.12386,0.60390,0.11636,-2.27829,-0.50064,0.05237,-1.21070,2.89066,-3.58516,4.84695,16.65053,-10.57301,0.50904,-0.27192,0.41154,0.70538,93.11857,25.86374,-52.04011
0.09872,0.61330,0.10722,-2.18246,-0.26697,-0.09242,0.31932,3.01384,-4.15750,8.82038,12.24930,-6.52386,0.53307,-0.30084,0.35381,0.70721,102.17490,-2.67122,-68.33356
0.07491,0.61946,0.10098,-2.08632,-0.12634,-0.16515,0.63165,2.10887,-4.10887,10.53763,9.87317,-3.89869,0.52719,-0.32728,0.33649,0.70834,31.23021,-62.79099,-19.96967
0.05617,0.62712,0.09570,-1.93956,0.00544,-0.20913,0.28418,0.57720,-3.69468,12.35679,7.85407,-1.32421,0.50028,-0.35685,0.35027,0.70689,-40.71797,-99.11754,24.52220
0.04404,0.63474,0.09301,-1.72380,0.11224,-0.20566,-0.61300,-0.79304,-2.81581,14.09729,5.26136,1.53205,0.46336,-0.37101,0.38564,0.70635,-77.87838,-77.28433,56.65620
0.03704,0.64028,0.09312,-1.47244,0.16986,-0.16137,-1.13131,-1.02787,-2.08819,15.53079,2.72174,2.87856,0.44359,-0.36835,0.40348,0.71046,-49.98323,-20.21133,46.45419
0.02984,0.64335,0.09405,-1.27510,0.17943,-0.11430,-0.99450,-0.48197,-1.68830,15.56698,0.05274,3.82299,0.44563,-0.35981,0.39849,0.71635,0.24610,32.77562,35.62326
0.02651,0.64455,0.09681,-1.06270,0.15758,-0.05058,-0.54010,0.47062,-1.32341,14.25277,-2.40802,4.66795,0.46412,-0.34282,0.38197,0.72192,35.72348,62.17411,24.12679
0.02581,0.64395,0.10108,-0.84774,0.10966,0.02355,0.05796,1.61848,-0.97097,13.01900,-3.51323,4.54647,0.49331,-0.31839,0.35740,0.72632,46.51001,70.81601,18.11599
0.02481,0.64281,0.10496,-0.67995,0.06412,0.07704,0.43913,2.42007,-0.65575,11.79465,-3.41288,3.44558,0.51791,-0.29415,0.33615,0.72955,36.91034,60.44724,18.11469
0.02553,0.64116,0.10877,-0.52337,0.02202,0.11974,0.64006,2.98050,-0.34419,11.51013,-3.23817,3.58589,0.53897,-0.26886,0.31845,0.73199,22.21949,40.56770,19.26217
0.02780,0.63959,0.11287,-0.37546,-0.01152,0.15777,0.68279,3.35639,-0.07403,10.14809,-2.00085,2.12610,0.55605,-0.24285,0.30339,0.73470,12.45070,32.48571,20.58429
0.03030,0.63892,0.11563,-0.25590,-0.02333,0.16647,0.52689,3.28615,0.14322,8.12112,-0.24955,-0.49383,0.56429,-0.22332,0.29668,0.73735,-3.44548,4.48144,16.63998
0.03254,0.63941,0.11627,-0.16499,-0.01608,0.14260,0.26873,2.86869,0.30151,5.84047,0.82079,-2.55658,0.56512,-0.21154,0.29775,0.73976,-15.36700,-26.02334,16.79281
0.03438,0.64036,0.11544,-0.09833,-0.00426,0.10171,0.09322,2.35147,0.33719,4.18927,0.87127,-3.21414,0.56379,-0.20646,0.29987,0.74134,-11.96968,-36.82840,7.32891
0.03639,0.64123,0.11384,-0.04449,0.00586,0.05722,0.02142,1.90598,0.28893,3.48981,0.79883,-3.34550,0.56306,-0.20440,0.30014,0.74236,-7.25973,-35.50710,-0.91950
0.03880,0.64181,0.11164,0.00385,0.01201,0.01360,0.08109,1.63315,0.13416,3.15804,0.39174,-3.07913,0.56500,-0.20382,0.29513,0.74306,0.66301,-23.02138,-8.88864
0.04148,0.64205,0.10953,0.04509,0.01203,-0.01934,0.20798,1.53190,-0.06188,3.60332,-0.25315,-2.43853,0.56947,-0.20274,0.28534,0.74376,7.59363,-12.06928,-17.11774
0.04570,0.64174,0.10715,0.09893,0.00440,-0.04935,0.31057,1.48183,-0.20617,4.20808,-0.95156,-1.85073,0.57441,-0.20065,0.27504,0.74441,6.90801,-3.69799,-13.51193
0.05173,0.64060,0.10480,0.17163,-0.01371,-0.07174,0.34569,1.47570,-0.23731,5.52291,-1.42494,-0.44656,0.57911,-0.19559,0.26662,0.74517,2.74027,-1.80061,-4.08235
0.06061,0.63904,0.10439,0.27385,-0.03461,-0.06109,0.38985,1.78952,-0.28131,6.47450,-1.02898,1.80839,0.58668,-0.18305,0.25186,0.74757,1.26540,13.61605,0.99875
0.06980,0.63766,0.10511,0.35621,-0.04840,-0.03694,0.48955,2.23201,-0.41749,6.92725,-1.15183,1.99907,0.59656,-0.16790,0.22982,0.75041,7.14584,35.54496,-10.96555
0.08053,0.63623,0.10582,0.44831,-0.06135,-0.01801,0.51626,2.58856,-0.41489,7.12821,-1.02120,0.60198,0.60563,-0.14971,0.21029,0.75271,5.42869,31.66935,-4.94468
0.09207,0.63481,0.10523,0.53314,-0.07175,-0.02261,0.47957,2.69817,-0.30646,5.89598,-0.74660,-1.31076,0.61220,-0.13326,0.19743,0.75397,-1.48705,10.61292,10.23296
0.10406,0.63297,0.10301,0.60485,-0.08580,-0.05037,0.53174,2.70455,-0.29454,4.96145,-1.21768,-2.73460,0.61945,-0.12094,0.18370,0.75360,2.66965,1.96546,2.05338
0.11609,0.63065,0.09931,0.66620,-0.10503,-0.09400,0.60552,2.56249,-0.19725,4.73842,-1.58298,-3.58828,0.62690,-0.11093,0.17491,0.75106,6.54009,-6.58530,1.47900
0.12829,0.62830,0.09507,0.71560,-0.12023,-0.13641,0.62165,2.36038,-0.00014,4.18853,-1.28954,-3.54975,0.63323,-0.10047,0.17155,0.74800,5.24808,-16.53487,13.02217
0.14209,0.62528,0.08927,0.77751,-0.14046,-0.19228,0.72331,2.22841,0.17336,3.63262,-1.20390,-3.32098,0.64182,-0.08945,0.16769,0.74293,6.37224,-12.19124,11.47967
0.15634,0.62191,0.08318,0.83630,-0.16094,-0.24221,0.90615,2.26882,0.29467,3.81397,-1.15849,-2.96049,0.65339,-0.07570,0.15954,0.73613,12.67602,1.73045,4.89729
0.17010,0.61909,0.07784,0.87249,-0.16918,-0.27102,1.00232,2.30613,0.40296,3.75546,-0.65267,-2.75757,0.66359,-0.06111,0.15179,0.72999,11.96956,3.60959,7.62953
0.18581,0.61649,0.07131,0.92755,-0.17091,-0.31017,1.07455,2.37178,0.61082,3.30122,0.27125,-2.02596,0.67406,-0.04275,0.14631,0.72278,7.83232,3.23292,12.11462
0.20120,0.61469,0.06514,0.97006,-0.15972,-0.33684,1.06868,2.46641,0.75032,2.96276,1.24788,-1.68549,0.68261,-0.02353,0.13939,0.71698,2.21142,4.86266,11.15940
0.21691,0.61393,0.05884,1.00828,-0.13560,-0.36053,1.02893,2.58075,0.86390,2.71033,2.17609,-1.72574,0.69004,-0.00306,0.13164,0.71169,-1.58379,7.54338,8.69153
0.23356,0.61475,0.05187,1.04918,-0.08947,-0.38898,0.95397,2.72785,0.98514,1.82470,2.81057,-1.23390,0.69634,0.01963,0.12330,0.70677,-2.77673,7.92874,7.96408
0.24915,0.61545,0.04563,1.06606,-0.05546,-0.40093,0.85814,2.79619,1.03849,1.16570,2.94748,-0.79817,0.70112,0.04030,0.11493,0.70256,-6.21784,5.89313,6.82816
0.26473,0.61729,0.03939,1.07840,-0.01292,-0.41025,0.72284,2.84610,1.09768,0.74675,3.24781,-0.57010,0.70410,0.06155,0.10696,0.69930,-8.74322,3.54915,5.94279
0.27989,0.62003,0.03328,1.08379,0.03625,-0.41633,0.55516,2.84572,1.19395,0.16601,3.80791,-0.28100,0.70512,0.08314,0.10104,0.69691,-9.70452,-1.11615,8.86288
