posX, posY, posZ, velX, velY, velZ, angVelX, angVelY, angVelZ, accX, accY, accZ, rotX, rotY, rotZ, rotW, angAccX, angAccY, angAccZ
0.34501,1.11793,-0.40391,-0.40123,0.72343,-0.49306,1.79561,0.71185,1.04146,-1.33759,0.82366,-1.81437,0.24432,0.80955,0.02527,0.53319,11.10924,-16.96377,-30.71614
0.33831,1.12953,-0.41244,-0.41832,0.74347,-0.51654,2.06980,0.93601,1.19794,-1.41640,1.03807,-1.12824,0.24589,0.81856,0.04679,0.51703,23.62542,16.38166,15.02565
0.33029,1.14085,-0.42121,-0.45347,0.75347,-0.53845,2.09034,0.90620,1.06393,-2.45596,0.44525,-1.33962,0.25086,0.82167,0.05965,0.50830,-1.12021,-2.81876,-9.42597
0.32241,1.15194,-0.42963,-0.47735,0.75975,-0.55128,2.18657,0.93254,1.00706,-2.31650,0.57509,-1.61831,0.25575,0.82558,0.07511,0.49736,1.68478,0.74824,-6.75176
0.31331,1.16367,-0.43877,-0.51415,0.77404,-0.57247,2.55900,1.05655,0.92407,-2.37156,0.96431,-1.54808,0.26688,0.82973,0.09709,0.48052,20.46748,9.17120,-5.72366
0.30389,1.17589,-0.44814,-0.54840,0.79036,-0.59225,2.88117,1.21023,0.86300,-2.57330,1.34508,-1.17021,0.27810,0.83396,0.11948,0.46140,24.58833,13.92621,-4.42782
0.29385,1.18860,-0.45761,-0.58464,0.81125,-0.61029,2.99239,1.29905,0.81750,-2.77744,1.70543,-0.86386,0.28660,0.83748,0.13819,0.44430,12.64240,9.83428,-2.90659
0.28305,1.20170,-0.46724,-0.62458,0.83557,-0.62725,2.87103,1.32013,0.80411,-2.99092,1.91211,-1.09037,0.29076,0.84086,0.15176,0.43056,-6.91338,1.79994,-0.43035
0.27139,1.21557,-0.47697,-0.66822,0.86454,-0.64204,2.81279,1.36402,0.83557,-3.27036,2.11970,-1.17600,0.29427,0.84446,0.16671,0.41534,-7.45574,1.04710,2.32492
0.25852,1.23006,-0.48686,-0.72171,0.89829,-0.65676,2.90942,1.47915,0.89967,-3.36694,1.96124,-0.99154,0.29893,0.84820,0.18540,0.39600,5.97683,5.09280,5.44021
0.24604,1.24416,-0.49672,-0.75945,0.92078,-0.66784,2.92234,1.59467,0.91309,-3.18000,1.72374,-0.61188,0.30368,0.85177,0.20140,0.37643,4.94046,9.82316,3.69500
0.23273,1.25871,-0.50673,-0.80048,0.94379,-0.67809,2.76048,1.67114,0.90461,-2.90311,1.59577,-0.42731,0.30639,0.85569,0.21236,0.35892,-9.24592,5.75621,2.02564
0.21904,1.27344,-0.51650,-0.83848,0.96578,-0.68300,2.55606,1.71643,0.88019,-2.70018,1.55042,-0.14326,0.30842,0.85944,0.22085,0.34273,-15.92569,2.46152,0.84660
0.20547,1.28822,-0.52582,-0.86849,0.98522,-0.68055,2.43992,1.75899,0.84095,-2.55964,1.69669,0.39902,0.31165,0.86240,0.23011,0.32586,-11.96793,2.93735,-0.83292
0.19102,1.30379,-0.53455,-0.90414,1.01078,-0.66940,2.37577,1.80095,0.80647,-2.73783,1.94374,1.00150,0.31532,0.86485,0.23996,0.30826,-7.48757,2.81313,-1.38703
0.17576,1.31986,-0.54251,-0.94357,1.03895,-0.64972,2.44343,1.88691,0.80625,-2.95957,2.12087,1.53735,0.31984,0.86667,0.25295,0.28741,1.89323,5.36597,-0.40852
0.15956,1.33649,-0.54939,-0.99086,1.07042,-0.61831,2.58998,2.02417,0.83201,-3.02885,1.84814,2.24922,0.32489,0.86798,0.26808,0.26304,8.55946,9.02220,1.56852
0.14319,1.35295,-0.55572,-1.03100,1.09320,-0.58486,2.69477,2.13908,0.85920,-2.83176,1.33897,2.55719,0.32936,0.86877,0.28266,0.23845,8.54094,7.73345,2.69686
0.12661,1.36922,-0.56140,-1.06468,1.10871,-0.54881,2.69567,2.24123,0.84861,-2.12825,0.86728,3.01380,0.33383,0.86947,0.29423,0.21448,3.42995,9.37855,0.89020
0.11023,1.38530,-0.56629,-1.09113,1.11928,-0.50887,2.51708,2.23400,0.83342,-1.85910,0.54614,3.12282,0.33599,0.87075,0.30128,0.19529,-11.01383,0.54073,0.78550
0.09381,1.40125,-0.57089,-1.11068,1.12455,-0.47279,2.33895,2.22577,0.80764,-1.60712,0.35740,3.02133,0.33810,0.87190,0.30703,0.17665,-14.85034,-3.56457,1.12355
0.07700,1.41727,-0.57376,-1.13219,1.13061,-0.41914,2.17595,2.26804,0.75942,-1.43215,0.36472,3.64267,0.34121,0.87300,0.31110,0.15701,-12.31335,2.12411,-0.58305
0.06018,1.43307,-0.57560,-1.15071,1.13381,-0.36116,2.15603,2.32395,0.71165,-1.34363,0.22124,4.47274,0.34556,0.87243,0.31799,0.13544,-4.39640,4.21113,-2.42089
0.04329,1.44877,-0.57662,-1.16460,1.13350,-0.30324,2.16587,2.34902,0.67297,-1.03206,-0.18597,5.23251,0.34981,0.87093,0.32579,0.11395,0.48370,4.22377,-2.04251
0.02646,1.46400,-0.57473,-1.17511,1.12720,-0.21503,2.25422,2.33501,0.56748,-0.46718,-0.48361,5.67746,0.35628,0.86699,0.33568,0.09337,2.48512,-0.35052,-7.15608
0.01008,1.47877,-0.57226,-1.17762,1.11601,-0.13437,2.40146,2.36021,0.44136,0.01857,-0.96789,5.83225,0.36447,0.86121,0.34701,0.07113,8.81595,3.33649,-9.61157
-0.00601,1.49348,-0.57011,-1.17481,1.10588,-0.07679,2.47870,2.36968,0.34766,0.43556,-1.09411,5.91691,0.37197,0.85532,0.35722,0.04956,7.92400,4.30066,-10.55891
-0.02172,1.50720,-0.56424,-1.16766,1.08450,0.02244,2.47171,2.32535,0.25504,0.48331,-1.40827,5.40708,0.37905,0.84940,0.36593,0.03062,0.71220,-1.88661,-6.40133
-0.03720,1.52078,-0.55914,-1.15874,1.06570,0.09378,2.34671,2.27878,0.24655,0.83074,-1.31088,5.21663,0.38333,0.84559,0.37132,0.01280,-8.70480,-2.72513,-0.35762
-0.05235,1.53385,-0.55243,-1.14522,1.04130,0.17512,2.19866,2.18275,0.26245,0.87003,-1.75112,5.11502,0.38609,0.84230,0.37609,-0.00306,-9.11144,-6.24203,1.79914
-0.06735,1.54664,-0.54599,-1.13250,1.01711,0.23480,2.12365,2.10984,0.25428,1.15028,-2.21758,4.84444,0.38944,0.83795,0.38185,-0.01925,-7.24024,-6.80451,0.82223
-0.08149,1.55813,-0.53786,-1.11057,0.97978,0.30742,2.09010,2.05875,0.20560,1.32591,-2.42741,4.20250,0.39400,0.83243,0.38803,-0.03539,-2.78838,-3.36402,-3.13217
-0.09541,1.56910,-0.52961,-1.08745,0.93962,0.36782,2.09700,2.13157,0.15556,1.46317,-2.45122,3.36587,0.39999,0.82588,0.39356,-0.05507,-0.84681,2.86142,-2.66183
-0.10903,1.57998,-0.52149,-1.06534,0.90513,0.41264,2.13915,2.26157,0.11453,1.54458,-2.57412,3.00082,0.40664,0.81827,0.39890,-0.07718,2.86262,9.77987,-2.55343
-0.12276,1.59090,-0.51380,-1.04962,0.87966,0.44070,2.13021,2.34791,0.10660,1.69693,-2.66503,2.76206,0.41228,0.81107,0.40307,-0.09865,1.49094,9.61699,-0.84077
-0.13543,1.60030,-0.50488,-1.02249,0.83778,0.48065,2.01744,2.36625,0.14088,1.95349,-2.83014,2.47980,0.41620,0.80563,0.40480,-0.11782,-4.55188,3.58943,2.39255
-0.14770,1.60928,-0.49587,-0.99718,0.79968,0.51096,1.75866,2.21283,0.24368,1.87790,-2.74443,2.12151,0.41630,0.80385,0.40414,-0.13110,-13.84224,-8.66800,6.37233
-0.15979,1.61789,-0.48679,-0.97428,0.76378,0.53650,1.41997,1.96111,0.41573,1.44673,-2.40883,1.58899,0.41254,0.80567,0.40137,-0.14004,-22.41062,-20.11917,13.34684
-0.17189,1.62644,-0.47798,-0.95462,0.73413,0.55420,1.22123,1.83149,0.52688,1.48411,-2.21706,1.23066,0.41005,0.80589,0.39935,-0.15138,-18.54700,-17.40170,13.00071
-0.18304,1.63423,-0.46909,-0.92656,0.70103,0.57238,1.19261,1.86247,0.56139,1.85898,-2.27627,1.12314,0.41031,0.80280,0.39894,-0.16735,-5.14455,-1.98807,4.50511
-0.19320,1.64112,-0.46003,-0.88887,0.66051,0.58950,1.22913,1.99337,0.51760,2.62681,-2.67214,1.03816,0.41364,0.79697,0.39882,-0.18623,2.52885,8.88998,-1.94003
-0.20298,1.64788,-0.45109,-0.85122,0.62520,0.60192,1.14360,1.99090,0.48704,2.97718,-2.69823,1.01520,0.41595,0.79313,0.39706,-0.20070,-2.89748,4.26234,-2.79233
-0.21273,1.65454,-0.44227,-0.82023,0.59599,0.61136,0.94938,1.83722,0.53862,2.77217,-2.53959,0.89630,0.41478,0.79300,0.39361,-0.21020,-12.27980,-9.00668,3.18618
-0.22170,1.66054,-0.43336,-0.78524,0.56429,0.62102,0.67094,1.56736,0.63430,2.44592,-2.13744,0.73515,0.41078,0.79647,0.38852,-0.21435,-18.57154,-20.22928,7.99905
-0.23012,1.66596,-0.42421,-0.74826,0.52944,0.63126,0.47067,1.33567,0.71250,2.03116,-2.07158,0.50122,0.40639,0.79971,0.38420,-0.21840,-13.58568,-17.99000,7.19720
-0.23894,1.67179,-0.41522,-0.72455,0.50743,0.63573,0.45320,1.33601,0.69860,2.20885,-1.98161,0.35816,0.40573,0.79848,0.38151,-0.22860,-6.13782,-8.33155,2.17523
-0.24629,1.67666,-0.40600,-0.68558,0.47726,0.64331,0.56498,1.48566,0.57018,2.82854,-2.10489,0.71695,0.40956,0.79251,0.38084,-0.24321,4.11935,9.36542,-6.91911
-0.25208,1.68041,-0.39599,-0.63207,0.43614,0.65974,0.71604,1.61776,0.36027,3.38270,-2.44220,1.07176,0.41602,0.78376,0.38244,-0.25766,8.63777,10.98954,-12.79964
-0.25792,1.68446,-0.38593,-0.58806,0.40629,0.67347,0.71776,1.54507,0.23370,3.24311,-2.12238,1.03030,0.41960,0.77876,0.38304,-0.26599,0.14220,-3.35776,-9.83074
-0.26364,1.68846,-0.37581,-0.55215,0.38214,0.68512,0.68905,1.42120,0.16690,3.07173,-2.01852,0.98638,0.42161,0.77518,0.38355,-0.27244,-2.17565,-7.61893,-7.19008
-0.26827,1.69173,-0.36558,-0.50714,0.35231,0.69781,0.61839,1.20865,0.12041,2.74690,-1.85417,0.67929,0.42232,0.77340,0.38441,-0.27518,-4.07818,-13.61752,-3.21512
-0.27294,1.69506,-0.35564,-0.47045,0.32854,0.70373,0.56796,1.08735,0.07630,2.41889,-1.55406,0.28583,0.42376,0.77097,0.38476,-0.27926,-4.31388,-10.90785,-3.34216
-0.27724,1.69826,-0.34587,-0.43619,0.30808,0.70567,0.60427,1.09629,0.01440,2.20266,-1.15700,-0.02046,0.42657,0.76614,0.38576,-0.28681,-0.72561,-2.43674,-3.99099
-0.28115,1.70130,-0.33623,-0.40463,0.28993,0.70403,0.70594,1.27415,-0.06612,2.04893,-1.27005,-0.21094,0.43166,0.75806,0.38644,-0.29946,6.33757,10.46790,-5.73579
-0.28442,1.70407,-0.32674,-0.36875,0.27078,0.70039,0.81677,1.47769,-0.13445,2.54243,-1.31653,-0.14877,0.43725,0.74863,0.38690,-0.31412,7.68727,15.15402,-4.41757
-0.28766,1.70683,-0.31711,-0.34039,0.25570,0.69940,0.82625,1.49642,-0.14108,2.67578,-1.49286,0.03103,0.44046,0.74227,0.38695,-0.32451,3.16838,6.71890,-2.47025
-0.29055,1.70925,-0.30753,-0.31207,0.23904,0.70007,0.76850,1.38270,-0.11006,2.60398,-1.49146,0.14839,0.44166,0.73873,0.38687,-0.33099,-2.94653,-6.09163,1.65589
-0.29263,1.71129,-0.29788,-0.27769,0.22016,0.70100,0.68837,1.21146,-0.06778,2.49931,-1.38039,0.06695,0.44167,0.73685,0.38696,-0.33502,-5.26060,-12.81263,2.56167
-0.29394,1.71316,-0.28831,-0.23955,0.20292,0.69992,0.60980,1.01596,-0.01166,2.16493,-0.85619,-0.14852,0.44053,0.73616,0.38735,-0.33759,-5.29771,-13.62970,2.62672
-0.29556,1.71529,-0.27894,-0.21353,0.19318,0.69627,0.60055,0.97021,0.02368,2.02070,-0.66835,-0.41160,0.44043,0.73331,0.38747,-0.34372,-2.27304,-7.66602,4.32010
-0.29656,1.71723,-0.26991,-0.18378,0.18250,0.68809,0.63126,1.02051,0.02082,2.06470,-0.74955,-0.62806,0.44185,0.72835,0.38753,-0.35228,1.51991,2.05059,0.27496
-0.29667,1.71873,-0.26134,-0.14669,0.16748,0.67475,0.65021,1.07818,0.01441,2.18793,-1.00307,-0.81480,0.44362,0.72307,0.38721,-0.36116,1.96904,3.50906,-0.48128
-0.29690,1.72014,-0.25282,-0.11704,0.15415,0.66433,0.62855,1.05486,0.00339,2.26036,-0.98383,-0.57157,0.44505,0.71902,0.38704,-0.36762,-1.76694,0.14955,-0.54431
-0.29697,1.72141,-0.24407,-0.09207,0.14144,0.65833,0.62065,1.01642,-0.01702,2.07751,-1.05442,-0.40732,0.44635,0.71490,0.38753,-0.37352,-1.00138,-4.21184,-0.91423
-0.29602,1.72221,-0.23550,-0.05754,0.12461,0.65107,0.67091,1.03109,-0.09247,2.20288,-1.03313,-0.44173,0.44898,0.70850,0.38940,-0.38053,2.75727,0.64078,-4.91166
-0.29495,1.72297,-0.22702,-0.02804,0.11084,0.64403,0.69535,1.00794,-0.15073,2.15021,-0.90981,-0.54397,0.45128,0.70271,0.39135,-0.38650,1.51347,-0.16860,-4.49861
-0.29354,1.72369,-0.21869,0.00026,0.09905,0.63553,0.71365,1.00811,-0.20370,1.94204,-0.75207,-0.54277,0.45393,0.69655,0.39307,-0.39277,0.87089,-0.99219,-3.82842
-0.29172,1.72425,-0.21038,0.02799,0.08725,0.62849,0.77641,1.05374,-0.27555,1.95743,-0.86172,-0.42401,0.45720,0.68862,0.39553,-0.40040,3.28707,3.03495,-4.48823
-0.28981,1.72473,-0.20209,0.05125,0.07679,0.62357,0.86085,1.11194,-0.35159,1.93833,-0.74384,-0.33353,0.46070,0.67950,0.39870,-0.40875,5.24514,3.92855,-6.32997
-0.28752,1.72507,-0.19380,0.07460,0.06668,0.61896,0.97424,1.19979,-0.44204,1.95636,-0.83860,-0.35537,0.46479,0.66839,0.40270,-0.41839,8.26562,6.50179,-7.32192
-0.28526,1.72510,-0.18548,0.10403,0.05316,0.61400,1.08160,1.22194,-0.52976,2.20691,-1.00467,-0.43267,0.46826,0.65728,0.40802,-0.42689,7.82469,4.07827,-6.57613
-0.28354,1.72509,-0.17709,0.13129,0.04037,0.60898,1.10596,1.09068,-0.57226,1.96584,-0.80492,-0.45477,0.46985,0.64968,0.41380,-0.43119,0.69473,-7.49907,-3.78052
-0.28157,1.72528,-0.16868,0.14721,0.03376,0.60573,1.10709,0.98037,-0.57993,1.89994,-0.69317,-0.42421,0.47092,0.64281,0.41888,-0.43540,0.28078,-9.15997,-2.76856
-0.27789,1.72508,-0.16047,0.17193,0.02415,0.60219,1.06852,0.65201,-0.53395,1.47808,-0.56767,-0.15181,0.46803,0.64089,0.42628,-0.43416,-2.60903,-18.67234,1.06664
-0.27434,1.72497,-0.15211,0.18838,0.01772,0.60175,1.06657,0.34619,-0.47464,0.88518,-0.29087,0.03585,0.46348,0.63958,0.43465,-0.43267,-3.05943,-24.47864,2.50030
-0.27083,1.72485,-0.14376,0.20118,0.01242,0.60172,1.12959,0.14113,-0.43398,0.75404,-0.32886,0.02730,0.45858,0.63655,0.44385,-0.43302,3.01871,-16.66813,2.38274
-0.26706,1.72446,-0.13552,0.21540,0.00413,0.59923,1.25848,-0.00387,-0.43505,0.70093,-0.54204,-0.27394,0.45349,0.63140,0.45481,-0.43454,6.90525,-9.11781,-0.58546
-0.26346,1.72405,-0.12752,0.22431,-0.00293,0.59411,1.31880,-0.08501,-0.44922,0.77825,-0.74759,-0.61337,0.44980,0.62601,0.46438,-0.43605,6.99914,-5.40554,-1.57263
-0.25980,1.72342,-0.11985,0.23219,-0.01140,0.58557,1.33712,-0.17984,-0.46364,0.55974,-0.79358,-0.84516,0.44605,0.62144,0.47383,-0.43627,2.14567,-8.58312,-1.91483
-0.25599,1.72236,-0.11282,0.24048,-0.02459,0.56892,1.34593,-0.26174,-0.48711,0.40891,-0.97133,-1.18554,0.44247,0.61678,0.48341,-0.43603,0.70161,-5.30328,-1.95922
-0.25231,1.72105,-0.10614,0.24528,-0.03877,0.55072,1.31322,-0.33658,-0.51384,0.29092,-1.07796,-1.44088,0.43948,0.61269,0.49230,-0.43488,-1.67621,-4.52312,-2.06418
-0.24867,1.71961,-0.09979,0.24858,-0.05188,0.53178,1.28674,-0.34066,-0.54636,0.10115,-1.09555,-1.65068,0.43756,0.60761,0.50044,-0.43464,-2.66661,-3.47603,-3.08044
-0.24499,1.71776,-0.09443,0.25172,-0.06805,0.50196,1.24325,-0.29428,-0.60569,0.17654,-0.89643,-2.07906,0.43743,0.60158,0.50785,-0.43457,-2.24279,2.89640,-2.99078
-0.24119,1.71607,-0.08957,0.25609,-0.07897,0.47059,1.19678,-0.16690,-0.66317,0.24841,-0.70674,-2.33155,0.43911,0.59428,0.51372,-0.43601,-3.40880,7.36428,-3.38441
-0.23719,1.71431,-0.08533,0.26266,-0.08868,0.43698,1.17055,0.03390,-0.73871,0.54547,-0.67088,-2.37681,0.44289,0.58479,0.51867,-0.43915,-1.28764,14.40014,-3.87485
-0.23301,1.71228,-0.08130,0.27003,-0.10024,0.40680,1.16761,0.21519,-0.82622,0.56736,-0.98825,-1.94324,0.44730,0.57410,0.52399,-0.44246,-0.02694,14.90639,-4.95322
-0.22893,1.70995,-0.07698,0.27478,-0.11382,0.38759,1.18379,0.27718,-0.90353,0.52703,-1.19587,-1.39688,0.45017,0.56408,0.53097,-0.44411,1.03527,9.23165,-5.41200
-0.22489,1.70688,-0.07274,0.27786,-0.13525,0.37128,1.26043,0.24211,-1.00799,0.13148,-1.38446,-0.86012,0.45141,0.55340,0.54105,-0.44412,4.54906,0.44833,-7.48717
-0.22120,1.70377,-0.06828,0.27497,-0.15308,0.36070,1.27264,0.05642,-1.06538,-0.18165,-1.24536,-0.86502,0.44999,0.54628,0.55216,-0.44068,2.05550,-10.10683,-5.48877
-0.21771,1.70081,-0.06398,0.27014,-0.16502,0.35036,1.23217,-0.15332,-1.07999,-0.51780,-0.93725,-0.99144,0.44747,0.54155,0.56275,-0.43566,-3.61172,-16.73904,-4.27171
-0.21456,1.69787,-0.06015,0.26152,-0.17399,0.33560,1.17923,-0.38229,-1.07631,-0.71532,-0.43665,-1.11726,0.44366,0.53840,0.57361,-0.42926,-5.12454,-16.17461,-1.78008
-0.21181,1.69521,-0.05681,0.24853,-0.17723,0.31630,1.08971,-0.64046,-1.02826,-0.91394,-0.07940,-1.32151,0.43821,0.53781,0.58396,-0.42157,-6.35414,-15.96586,1.02380
-0.20915,1.69282,-0.05373,0.23697,-0.17611,0.29700,1.02219,-0.79756,-0.98790,-0.92501,0.25567,-1.46666,0.43349,0.53636,0.59349,-0.41494,-6.83899,-13.37062,1.79000
-0.20664,1.69086,-0.05141,0.22555,-0.16877,0.27017,0.87517,-0.94578,-0.93350,-0.59832,0.58248,-1.90842,0.42923,0.53717,0.60125,-0.40708,-7.98873,-8.39420,2.72483
-0.20386,1.68917,-0.04918,0.22008,-0.15887,0.24756,0.73157,-1.00980,-0.88513,-0.48129,0.97091,-1.83643,0.42622,0.53783,0.60762,-0.39983,-12.93372,-7.54740,2.25478
-0.20108,1.68799,-0.04741,0.21603,-0.14383,0.22325,0.60347,-1.04524,-0.81141,-0.22589,1.28683,-1.54633,0.42302,0.53916,0.61290,-0.39334,-11.34970,-2.72208,3.94817
-0.19811,1.68716,-0.04570,0.21561,-0.12692,0.20315,0.52268,-1.03733,-0.73439,0.09235,1.21189,-1.27053,0.41984,0.53981,0.61774,-0.38825,-6.95036,-0.04276,5.43891
-0.19472,1.68646,-0.04409,0.22146,-0.11138,0.18526,0.46640,-1.01251,-0.67758,0.70345,0.76211,-0.94641,0.41696,0.53988,0.62255,-0.38354,-3.76088,2.23594,4.07659
-0.19089,1.68532,-0.04220,0.23268,-0.10536,0.17511,0.41328,-1.04515,-0.70367,1.05580,0.17879,-0.53860,0.41439,0.53969,0.62884,-0.37627,-3.68679,-0.95069,-0.64546
-0.18679,1.68382,-0.04006,0.24550,-0.10597,0.17084,0.36446,-1.10713,-0.76709,1.29116,-0.28480,-0.22673,0.41189,0.53943,0.63598,-0.36729,-3.75209,-3.33937,-4.48538
-0.18210,1.68189,-0.03761,0.26378,-0.11261,0.17184,0.30391,-1.21491,-0.88743,1.40057,-0.61267,0.43230,0.40961,0.53931,0.64436,-0.35519,-5.38379,-7.66556,-8.25202
-0.17690,1.67941,-0.03463,0.28588,-0.12591,0.18055,0.41059,-1.20876,-1.03964,1.58225,-0.92058,0.99119,0.40820,0.53380,0.65489,-0.34575,4.22387,-2.57622,-10.24059
-0.17118,1.67639,-0.03117,0.31127,-0.14431,0.19432,0.62982,-1.14049,-1.21489,1.95809,-1.45996,1.10468,0.40731,0.52356,0.66751,-0.33826,16.67279,3.86952,-10.26615
-0.16494,1.67273,-0.02737,0.33852,-0.16808,0.21007,0.85572,-1.09452,-1.41517,1.92946,-1.97675,1.16509,0.40658,0.51113,0.68168,-0.32978,18.09331,3.10826,-12.54980
-0.15859,1.66835,-0.02317,0.36201,-0.19760,0.22848,1.02218,-1.13057,-1.62663,1.60217,-2.43933,1.36130,0.40520,0.49884,0.69683,-0.31843,15.20485,-0.12947,-13.81509
-0.15250,1.66334,-0.01849,0.37720,-0.23028,0.25029,1.07638,-1.30501,-1.84463,0.92097,-2.38828,1.64426,0.40210,0.48910,0.71270,-0.30191,5.39688,-10.40128,-15.81435
-0.14644,1.65766,-0.01308,0.38877,-0.26620,0.27820,1.20195,-1.48769,-2.05600,0.51367,-2.00766,1.91195,0.39731,0.47715,0.73041,-0.28455,5.42936,-12.36831,-14.30192
-0.14050,1.65206,-0.00755,0.39647,-0.29412,0.30279,1.40516,-1.56968,-2.20505,0.41031,-1.82579,1.69045,0.39220,0.46200,0.74818,-0.27011,14.47653,-7.78313,-10.64009
-0.13464,1.64643,-0.00184,0.40163,-0.31690,0.32496,1.64044,-1.59746,-2.30276,0.09091,-1.33612,1.67394,0.38661,0.44465,0.76582,-0.25756,14.89826,-4.65763,-7.25884
-0.12902,1.64070,0.00421,0.40176,-0.33614,0.34737,1.92334,-1.59782,-2.30924,-0.16486,-1.49351,1.58671,0.37914,0.42521,0.78348,-0.24821,21.93998,-2.03986,1.26637
-0.12393,1.63466,0.01066,0.39412,-0.35621,0.37106,2.06743,-1.73287,-2.34081,-0.71994,-1.69933,1.65106,0.36933,0.40825,0.80114,-0.23475,12.22270,-9.04872,-1.23598
-0.11931,1.62833,0.01722,0.38159,-0.37642,0.39154,2.12361,-1.90966,-2.38571,-1.11156,-1.89611,1.73274,0.35827,0.39285,0.81822,-0.21868,3.22292,-13.97399,-4.45697
-0.11531,1.62104,0.02419,0.36267,-0.40576,0.41314,2.19377,-2.09452,-2.44953,-1.61244,-2.30540,1.40443,0.34570,0.37628,0.83572,-0.20121,2.91592,-14.00175,-6.54688
-0.11211,1.61255,0.03127,0.33578,-0.44715,0.43239,2.37089,-2.25345,-2.51079,-1.82208,-2.73882,1.10269,0.33148,0.35593,0.85400,-0.18469,7.98580,-10.96558,-4.38449
-0.10916,1.60347,0.03798,0.31049,-0.48944,0.44251,2.64248,-2.31874,-2.51332,-2.04326,-2.98889,0.59675,0.31690,0.33174,0.87181,-0.17169,14.47232,-9.06576,-1.57942
-0.10633,1.59384,0.04435,0.28870,-0.53012,0.44530,3.01791,-2.31837,-2.41479,-1.98888,-3.51212,0.07586,0.30069,0.30317,0.88927,-0.16393,25.42548,-7.33522,8.70795
-0.10432,1.58251,0.05018,0.25992,-0.58666,0.43987,3.48989,-2.32105,-2.24215,-2.28421,-4.56351,-0.81596,0.28142,0.26996,0.90669,-0.16075,31.32933,-9.06212,16.67990
-0.10356,1.56879,0.05506,0.21854,-0.66726,0.42170,3.96415,-2.40207,-2.10136,-2.77758,-5.75455,-1.54568,0.25884,0.23373,0.92393,-0.15727,27.44616,-11.33620,12.98410
-0.10361,1.55384,0.05919,0.17307,-0.75082,0.39610,4.27530,-2.54337,-2.10493,-3.47627,-6.49497,-2.27241,0.23561,0.19820,0.93979,-0.14833,22.19619,-13.43871,3.15665
-0.10436,1.53797,0.06268,0.12732,-0.82874,0.36668,4.47103,-2.69701,-2.17566,-4.00684,-6.80323,-2.78841,0.21160,0.16309,0.95401,-0.13595,16.59021,-13.71587,-4.72585
-0.10685,1.51982,0.06464,0.06650,-0.92287,0.32163,4.70965,-2.88575,-2.24659,-4.81296,-6.72196,-3.66036,0.18453,0.12509,0.96706,-0.12285,15.75727,-13.34402,-8.19710
-0.11629,1.49460,0.06012,-0.10199,-1.12091,0.17449,5.29708,-3.38817,-2.35537,-6.63778,-6.25826,-6.48166,0.14546,0.07701,0.98036,-0.10862,18.09624,-18.65235,-5.61942
-0.12578,1.45790,0.05820,-0.19915,-1.20030,0.07505,5.56991,-3.66250,-2.47707,-7.18873,-5.10659,-7.67073,0.08314,-0.00398,0.99338,-0.07914,18.70602,-18.49143,-11.59242
-0.13626,1.43655,0.05037,-0.31345,-1.26905,-0.05669,5.88332,-4.01806,-2.59408,-7.18174,-3.46410,-8.93951,0.04186,-0.05143,0.99591,-0.06144,18.82956,-22.00507,-10.19627
-0.14732,1.41648,0.04085,-0.41381,-1.30414,-0.18805,6.08020,-4.35582,-2.72395,-7.22312,-1.58230,-10.11423,-0.00106,-0.09710,0.99439,-0.04198,14.52866,-21.04720,-13.70942
-0.15883,1.39774,0.02975,-0.49865,-1.31242,-0.31350,6.16087,-4.63563,-2.89118,-6.86409,0.12302,-11.19187,-0.04417,-0.14015,0.98894,-0.02009,10.38243,-20.57723,-18.23509
-0.17281,1.38095,0.01306,-0.60264,-1.29048,-0.49611,6.15334,-4.90282,-3.23874,-5.99647,2.63275,-12.14112,-0.08837,-0.18067,0.97952,0.00897,6.02732,-8.80263,-25.54757
-0.18571,1.36587,-0.00371,-0.66865,-1.24685,-0.64142,6.09128,-5.00858,-3.52256,-4.98803,4.73652,-12.56070,-0.12901,-0.21883,0.96644,0.03822,3.86908,-0.14674,-26.62764
-0.19906,1.35399,-0.02458,-0.72704,-1.16679,-0.81502,6.00535,-5.09824,-3.79568,-3.52998,6.98763,-12.45973,-0.16957,-0.25459,0.94957,0.06885,2.60411,4.77653,-22.66441
-0.21154,1.34527,-0.04772,-0.76126,-1.05753,-0.98665,5.87900,-5.24527,-3.94754,-1.55729,9.04778,-12.20802,-0.21197,-0.28714,0.92916,0.09637,-3.32778,-1.01858,-17.51906
-0.22246,1.34007,-0.07313,-0.76500,-0.91840,-1.15543,5.67936,-5.37643,-4.00293,0.95048,11.38402,-12.21822,-0.25425,-0.31566,0.90615,0.12086,-11.15835,-2.91407,-13.91989
-0.23091,1.33906,-0.10078,-0.73253,-0.74719,-1.32308,5.46219,-5.45756,-3.96948,3.73777,13.51675,-11.97170,-0.29457,-0.34151,0.88117,0.14193,-15.10888,-0.57756,-8.27345
-0.23616,1.34229,-0.13028,-0.66051,-0.54964,-1.48401,5.29362,-5.47812,-3.84400,6.69837,14.99221,-11.14209,-0.33184,-0.36701,0.85429,0.15927,-15.76825,-0.31228,1.43552
-0.23653,1.35139,-0.16200,-0.52962,-0.30312,-1.64512,5.15621,-5.40647,-3.59679,9.80486,16.19193,-9.10733,-0.36445,-0.39270,0.82659,0.17237,-12.49160,2.74085,10.33371
-0.23656,1.35844,-0.19065,-0.42318,-0.14002,-1.72794,5.04387,-5.40351,-3.34540,11.51304,17.12552,-7.49438,-0.39694,-0.41794,0.79653,0.18253,-15.83621,0.11309,16.37610
-0.22620,1.37821,-0.22229,-0.18742,0.17426,-1.83727,4.65876,-5.75952,-2.69160,14.01774,18.34699,-4.16621,-0.43549,-0.43884,0.76690,0.17213,-33.59877,-19.00173,18.24509
-0.21481,1.39771,-0.25058,0.02107,0.42809,-1.87589,4.05161,-6.58142,-2.14376,14.76515,19.03540,-0.67486,-0.48803,-0.45264,0.73079,0.15129,-54.25762,-47.55309,5.15533
-0.20204,1.41889,-0.27614,0.20357,0.65092,-1.86722,3.15607,-7.69231,-1.89580,14.47007,19.13223,2.76131,-0.55415,-0.45230,0.68785,0.12332,-72.92533,-71.37421,-25.55159
-0.18309,1.44833,-0.29706,0.43929,0.94948,-1.79258,1.41559,-9.45686,-2.08102,14.66238,19.80937,7.02027,-0.64606,-0.41768,0.63407,0.07819,-87.61998,-92.30444,-82.88568
-0.16354,1.48025,-0.31398,0.63808,1.22658,-1.67161,-0.38874,-10.78526,-2.73161,14.23297,20.76132,10.41880,-0.73367,-0.36092,0.57452,0.03742,-81.96562,-82.81153,-120.21980
-0.14217,1.51738,-0.32618,0.82261,1.52393,-1.50681,-2.18805,-11.61499,-3.74008,13.38072,22.62379,13.51391,-0.81123,-0.28204,0.51220,0.00177,-58.57217,-62.76772,-137.82320
-0.11955,1.56056,-0.33369,0.98813,1.85034,-1.30783,-3.86261,-11.89597,-5.03900,11.69489,23.98955,14.73184,-0.87318,-0.18384,0.45066,-0.02580,-25.99084,-33.80078,-151.52800
-0.09607,1.61079,-0.33747,1.13087,2.21249,-1.09359,-5.37460,-11.49192,-6.79961,10.41407,28.81562,16.01657,-0.91547,-0.06338,0.39542,-0.03922,-2.73318,-18.37325,-140.12510
-0.07373,1.66125,-0.34247,1.22570,2.49488,-0.94701,-6.31782,-10.97999,-8.41776,10.07519,29.17111,14.44455,-0.93901,0.05995,0.33587,-0.04308,67.76541,-26.10271,-190.26490
-0.04341,1.73069,-0.34045,1.41538,2.98839,-0.73265,-7.23259,-9.30389,-11.24763,16.61245,32.92822,14.41221,-0.92634,0.22785,0.29956,-0.01523,96.70923,-33.44252,-184.45440
-0.00460,1.80666,-0.33919,1.69105,3.48010,-0.56860,-6.53901,-6.95921,-13.92449,26.67932,35.52786,12.45945,-0.88067,0.37738,0.28135,0.05342,191.09480,-59.09730,-159.47540
0.03297,1.87350,-0.33248,2.19710,4.00238,-0.38864,-5.02315,-4.26004,-15.79378,46.96522,37.60953,15.07148,-0.80593,0.50031,0.28657,0.13434,213.85430,-39.49223,-113.27500
0.08790,1.94740,-0.31956,3.13153,4.51657,-0.13814,-2.16084,-2.30717,-17.45271,70.30680,25.73100,17.85337,-0.70808,0.59499,0.28442,0.25244,192.76420,-153.43140,-77.69709
0.16378,2.01394,-0.30446,4.07869,4.73693,0.12300,-0.09220,-1.91853,-18.39713,87.43757,10.39460,25.82427,-0.60827,0.66826,0.24670,0.35011,101.53330,-165.11460,-55.11684
0.27463,2.06419,-0.27378,5.55399,4.68716,0.61036,3.21853,-2.27761,-19.28496,96.64653,-18.11728,38.26706,-0.48086,0.70226,0.20140,0.48481,46.59880,-178.04260,-60.05405
0.40183,2.09139,-0.22980,6.92353,4.24160,1.21031,6.92725,-3.95167,-20.02226,100.93950,-49.37645,51.48808,-0.32963,0.68584,0.13078,0.63550,-26.68882,-260.21260,-109.28870
0.54460,2.07778,-0.16471,8.27723,3.23755,2.02253,9.57345,-6.04128,-21.92398,93.27582,-98.57649,62.55549,-0.12657,0.64550,0.01788,0.75299,-60.61684,-199.68970,-235.57040
0.68541,1.99443,-0.07894,9.29827,1.40613,2.96113,10.00335,-5.91380,-24.12154,53.91117,-163.92920,65.80527,0.09079,0.62518,-0.09180,0.76972,58.69603,-14.71069,-171.43840
0.77884,1.83229,0.00911,9.46550,-1.20220,3.79515,10.97239,-1.73536,-24.97363,-28.09795,-201.81020,45.60501,0.31407,0.63945,-0.11008,0.69307,233.33990,-67.50992,-21.70162
0.80589,1.65466,0.07388,8.64538,-3.57103,4.19881,14.44921,3.88092,-22.36245,-100.06020,-190.34640,18.20327,0.51323,0.64360,0.00385,0.56777,333.48280,-366.99900,55.99864
0.71537,1.44218,0.10223,6.58095,-6.35104,4.20591,22.79706,7.82952,-15.49285,-149.57650,-160.66820,-20.98578,0.69073,0.53414,0.29246,0.38995,322.28890,-588.94580,-321.91600
0.63240,1.27657,0.10162,4.70798,-8.16007,3.69846,28.89054,6.94546,-10.59282,-167.29320,-142.33130,-61.60435,0.78848,0.31096,0.48574,0.21368,269.04310,-315.79200,-567.28520
0.49783,1.11856,0.04673,2.34922,-9.88451,2.45875,33.53378,2.81608,-9.43836,-182.94480,-106.91210,-106.77680,0.82252,-0.01077,0.56520,0.06242,174.41760,75.36826,-451.33130
0.31996,1.01000,-0.07907,-0.54456,-10.65894,0.22706,33.56812,-2.73697,-14.73932,-166.46040,29.97466,-151.62080,0.81009,-0.35561,0.46549,0.02484,310.33030,516.93800,22.70982
0.18301,1.00818,-0.19918,-2.53109,-9.46127,-1.53062,29.95899,-5.15193,-14.43947,-105.06990,121.04050,-82.90411,0.74318,-0.50683,0.43676,-0.00707,-83.97361,232.68330,-52.20202
0.09687,1.04131,-0.26940,-3.44217,-7.86359,-2.17771,23.69377,-4.23175,-14.69412,-49.64616,129.93410,-19.33998,0.73250,-0.56725,0.37458,0.03688,-257.84350,334.42250,202.78850
0.04471,1.10787,-0.30091,-3.75479,-6.23078,-2.08652,16.32413,-2.27223,-12.66617,0.77206,106.31750,25.80672,0.76007,-0.53279,0.34984,0.12662,-336.53090,352.11700,398.84340
0.02223,1.16391,-0.30128,-3.66381,-5.07698,-1.58886,11.71677,-2.87535,-9.47974,16.22593,66.16189,43.58421,0.74786,-0.50715,0.39837,0.15750,-358.65440,86.50687,192.05890
0.01980,1.21317,-0.27508,-3.45870,-4.32053,-0.87735,6.42374,-4.60001,-7.24781,8.84750,33.85908,43.75993,0.69451,-0.47695,0.48875,0.22649,-386.59090,19.50851,6.33614
0.18282,0.96433,-0.17687,-3.33635,-3.91107,-0.25261,1.66270,-3.04525,-6.35466,3.49510,22.91020,34.21419,0.67287,-0.43111,0.49895,0.33532,-269.42790,190.91000,-0.37924
0.25628,0.78601,-0.11515,-3.26435,-3.63328,0.16237,-0.98314,-0.61073,-5.55439,6.00935,22.52634,27.45558,0.67527,-0.38631,0.46826,0.41894,-126.81270,258.25520,35.13705
0.27039,0.68438,-0.07616,-3.19528,-3.31682,0.48090,-2.60551,1.04672,-4.97723,6.72166,25.72864,20.20444,0.66998,-0.35019,0.43786,0.48659,-76.55174,179.49900,22.84507
0.25793,0.62652,-0.04735,-3.10846,-2.96527,0.70246,-3.29375,1.91021,-4.59594,8.34856,26.48922,13.13506,0.66013,-0.32955,0.41162,0.53497,-32.71962,101.10710,17.92257
0.23513,0.59256,-0.02396,-2.99282,-2.60837,0.85046,-3.59180,1.91084,-4.27791,10.71693,25.34228,9.35238,0.64200,-0.32155,0.40004,0.56957,-10.79870,26.67680,17.41693
0.20801,0.56989,-0.00389,-2.86264,-2.30730,0.94632,-3.97341,1.41899,-3.80272,12.59396,25.38414,7.29009,0.61571,-0.31334,0.40556,0.59853,-29.05126,-12.43185,38.74983
0.18525,0.56043,0.01717,-2.66291,-1.91076,1.03989,-4.45727,1.25642,-2.89870,11.50060,24.95106,3.66400,0.59406,-0.28687,0.41673,0.62540,-36.11654,-3.03606,65.64069
0.16171,0.55320,0.03565,-2.48732,-1.58636,1.07905,-4.37950,2.28538,-2.25228,11.73405,22.99473,0.82415,0.59537,-0.24943,0.39511,0.65361,13.78257,71.09428,30.68802
0.14152,0.55118,0.04920,-2.35133,-1.32872,1.07811,-4.10071,3.22752,-1.95610,11.24516,20.75601,-1.05697,0.59907,-0.21613,0.36379,0.67975,38.90942,90.80331,-1.19574
0.11798,0.55507,0.06242,-2.20115,-0.99682,1.04430,-3.98807,3.55169,-1.82904,10.54235,21.37349,-3.00746,0.59262,-0.19068,0.34037,0.70469,17.30349,31.09996,-4.33580
0.09552,0.56259,0.07342,-2.06781,-0.67745,0.98449,-4.19957,3.07364,-1.60072,11.14834,24.50909,-5.90142,0.57072,-0.17332,0.33859,0.72773,-10.81727,-17.17393,18.98602
0.07467,0.57382,0.08124,-1.94554,-0.37537,0.89528,-4.25756,2.60068,-1.35616,9.15817,25.91046,-9.43016,0.54977,-0.15849,0.33978,0.74644,-13.53565,-35.99196,42.22986
0.05433,0.59072,0.08432,-1.83258,-0.05843,0.75398,-3.52499,2.86009,-1.77144,5.53193,21.03006,-11.50083,0.54921,-0.15274,0.30808,0.76166,27.56824,-8.79209,-13.17773
0.03404,0.60631,0.08542,-1.74331,0.17483,0.61326,-2.28151,3.54886,-2.74958,7.08449,14.15514,-9.45131,0.56453,-0.15682,0.24451,0.77261,76.44704,21.89684,-97.52891
0.01528,0.61941,0.08661,-1.66027,0.32462,0.50781,-1.46574,3.73666,-3.41116,8.56220,10.34595,-8.06606,0.57165,-0.16359,0.19153,0.78088,62.54319,6.39603,-88.17606
-0.00002,0.63473,0.08508,-1.52538,0.47369,0.38159,-0.99491,2.89537,-3.60557,9.91009,5.11481,-5.78108,0.56790,-0.18550,0.16833,0.78405,17.62323,-46.26927,-21.31888
-0.01506,0.64563,0.08634,-1.42223,0.53205,0.31946,-1.27354,1.61941,-3.03476,10.76874,3.14173,-4.51368,0.54850,-0.20153,0.18126,0.79099,-22.06355,-83.74837,37.76352
-0.02529,0.65612,0.08669,-1.27927,0.57410,0.25997,-1.95631,0.01006,-1.82927,10.99859,2.04800,-3.90497,0.51698,-0.21437,0.22946,0.79632,-61.40437,-98.63701,94.50529
-0.03329,0.66579,0.08672,-1.12888,0.59477,0.20837,-2.60307,-1.23636,-0.63445,10.05606,1.20087,-3.43199,0.48274,-0.22081,0.28300,0.79882,-64.18453,-79.20692,104.05470
-0.03940,0.67450,0.08659,-0.98291,0.59770,0.16515,-2.84187,-1.77264,0.06115,9.40784,0.50375,-3.06104,0.45733,-0.22298,0.31831,0.79988,-35.87130,-40.45528,68.38235
-0.03699,0.68072,0.09002,-0.73969,0.56331,0.18767,-2.47687,-0.96678,0.23159,20.26588,-3.22905,7.38216,0.45647,-0.20659,0.31782,0.80495,8.09333,19.17349,15.52335
-0.02785,0.68496,0.09880,-0.44866,0.50729,0.28152,-1.74708,0.57834,-0.01925,18.62514,-3.15275,5.15742,0.47450,-0.17653,0.28726,0.81312,53.19647,118.61270,-29.57564
-0.01958,0.69010,0.10544,-0.23060,0.47677,0.32436,-1.30695,1.59493,-0.36949,15.23205,-2.17430,1.38264,0.48495,-0.15264,0.25692,0.82190,40.17812,81.77361,-40.76071
-0.01244,0.69531,0.10999,-0.07866,0.45404,0.32772,-1.07139,2.09747,-0.54180,10.98976,-1.86536,-0.88043,0.48961,-0.13367,0.23563,0.82879,15.54172,45.72213,-17.34361
-0.00468,0.69971,0.11201,0.05186,0.42258,0.29591,-0.95690,2.26871,-0.77606,9.90741,-3.63710,-3.06199,0.48956,-0.12179,0.21532,0.83614,14.60518,26.15282,-32.54610
0.00469,0.70200,0.11107,0.18128,0.36681,0.22684,-1.12491,1.94154,-0.48244,8.30602,-4.35017,-4.86736,0.48110,-0.11246,0.21865,0.84148,-8.06314,-18.34774,16.97161
0.01329,0.70329,0.10984,0.27151,0.30867,0.16811,-1.13952,1.73213,-0.20918,6.83368,-5.18200,-4.93424,0.47644,-0.10217,0.22185,0.84460,-4.73491,-20.17295,29.56050
0.02339,0.70194,0.10706,0.36458,0.22405,0.10118,-0.87692,1.69618,-0.19707,6.01084,-6.27741,-4.90365,0.47955,-0.09396,0.21556,0.84542,13.25677,-5.80396,6.08004
0.03417,0.69849,0.10338,0.44833,0.12770,0.03328,-0.35188,1.80017,-0.35980,5.54738,-6.98894,-4.95005,0.49205,-0.08751,0.20036,0.84266,32.07168,3.94961,-14.24338
0.04587,0.69266,0.09812,0.52892,0.01475,-0.04330,0.34755,1.97510,-0.61779,4.64193,-7.05332,-4.59832,0.51237,-0.08261,0.17861,0.83591,42.09056,10.59105,-23.76290
0.05693,0.68690,0.09281,0.58420,-0.07511,-0.10729,0.84340,2.01186,-0.66756,3.98879,-6.20550,-4.30651,0.53046,-0.07721,0.16344,0.82821,37.72626,4.09841,-12.99924
0.06844,0.68094,0.08701,0.63422,-0.14806,-0.16776,1.24666,2.09144,-0.68744,3.16971,-4.51537,-4.03588,0.54881,-0.06992,0.14819,0.81973,29.17253,1.46100,-2.57791
0.08036,0.67515,0.08003,0.68121,-0.20629,-0.23177,1.57456,2.21198,-0.79866,2.65912,-3.01356,-3.68007,0.56685,-0.06251,0.12916,0.81123,21.93288,7.61436,-9.35581
0.09169,0.67062,0.07355,0.70910,-0.23332,-0.27663,1.68075,2.19413,-0.78519,2.57572,-2.01439,-3.47293,0.58015,-0.05543,0.11536,0.80439,12.55868,4.10763,-7.01443
0.10329,0.66661,0.06693,0.73435,-0.24555,-0.31461,1.59495,2.01600,-0.50893,2.54520,-0.80652,-2.87186,0.58873,-0.04717,0.11290,0.79901,1.43949,-11.51740,12.56835
0.11596,0.66368,0.05940,0.77000,-0.24087,-0.35731,1.25883,1.62635,0.12669,2.54670,0.55899,-2.32892,0.58983,-0.03661,0.12779,0.79651,-15.57707,-26.83253,36.23629
0.12895,0.66134,0.05211,0.80273,-0.22836,-0.38887,0.96693,1.28465,0.74923,2.20436,1.04834,-2.07034,0.59009,-0.02435,0.14627,0.79360,-16.78974,-30.17912,45.59364
0.14229,0.65922,0.04471,0.83431,-0.21421,-0.41671,0.78606,1.05918,1.24270,1.87478,1.33850,-1.84921,0.59151,-0.01095,0.16364,0.78944,-10.70448,-23.62882,39.55953
0.15600,0.65745,0.03702,0.86494,-0.19885,-0.44236,0.75019,1.12008,1.40054,1.57353,1.51671,-1.58008,0.59643,0.00406,0.16954,0.78454,-3.55997,-4.18335,19.98859
0.16976,0.65575,0.02941,0.88974,-0.18551,-0.46176,0.81683,1.40319,1.25415,1.64909,1.31607,-1.41943,0.60481,0.01976,0.16270,0.77932,1.38973,18.52566,-4.47724
0.18413,0.65476,0.02124,0.91818,-0.16454,-0.48547,0.95153,1.87626,0.97093,1.72686,1.63322,-1.42992,0.61628,0.03848,0.14584,0.77295,3.52686,32.21646,-17.74701
0.19830,0.65468,0.01323,0.93893,-0.13475,-0.50242,0.98639,2.24097,0.79195,1.45245,2.48404,-0.94419,0.62537,0.05790,0.13075,0.76712,0.98256,28.02881,-12.52176
0.21240,0.65550,0.00543,0.95357,-0.09819,-0.51267,0.93322,2.49440,0.69930,1.27409,3.35169,-0.69276,0.63181,0.07779,0.11759,0.76219,-4.71637,23.73004,-7.84594
0.22680,0.65862,-0.00238,0.96977,-0.03563,-0.52157,0.74587,2.74833,0.68421,1.03091,4.21541,-0.39543,0.63412,0.10092,0.10472,0.75943,-11.55124,16.51736,0.55664
0.24089,0.66268,-0.00991,0.97930,0.02857,-0.52496,0.51310,2.89578,0.75914,0.49214,4.79634,-0.05608,0.63355,0.12450,0.09529,0.75765,-15.08016,9.94202,8.54031
0.25474,0.66737,-0.01737,0.98238,0.08818,-0.52633,0.29139,3.01670,0.80733,-0.01302,5.18747,-0.10665,0.63157,0.14811,0.08520,0.75625,-16.84041,8.82048,9.39762
0.26811,0.67530,-0.02502,0.97769,0.18372,-0.53075,-0.03144,3.20206,0.80031,-0.63683,5.59261,-0.35366,0.62566,0.17345,0.07151,0.75720,-17.61381,8.97916,4.70988
0.28115,0.68245,-0.03274,0.96947,0.24937,-0.53520,-0.25225,3.36735,0.73509,-0.88985,5.54184,-0.25683,0.62058,0.19751,0.05574,0.75681,-19.78692,11.43205,0.26839
0.29361,0.69202,-0.04053,0.95437,0.33701,-0.53966,-0.57500,3.57266,0.65585,-0.97879,5.54215,-0.29474,0.61133,0.22311,0.03684,0.75838,-21.42071,12.65397,-1.37541
0.30590,0.70221,-0.04853,0.93896,0.41596,-0.54599,-0.87290,3.70609,0.66886,-1.16597,5.70422,-0.66824,0.60011,0.24927,0.02024,0.75982,-21.39516,9.71923,4.57104
0.31769,0.71355,-0.05698,0.91997,0.49538,-0.55761,-1.17171,3.81410,0.73514,-1.53802,5.54896,-0.98209,0.58630,0.27636,0.00457,0.76148,-19.77338,7.12672,9.03359
0.32914,0.72495,-0.06576,0.89957,0.55871,-0.57142,-1.39448,3.89469,0.78032,-1.95023,5.11435,-1.40669,0.57211,0.30291,-0.01132,0.76211,-18.66911,6.46022,9.19251
