posX, posY, posZ, velX, velY, velZ, angVelX, angVelY, angVelZ, accX, accY, accZ, rotX, rotY, rotZ, rotW, angAccX, angAccY, angAccZ
0.33313,1.12652,-0.37725,-0.03575,0.05969,-0.11602,0.59579,0.27271,-0.21176,0.42379,0.54043,-0.68348,-0.01085,0.79858,-0.14409,0.58428,12.17723,2.23904,-5.01634
0.33298,1.12809,-0.37938,-0.03079,0.07317,-0.12445,0.93558,0.38546,-0.31021,0.34290,1.22273,-0.67850,0.00014,0.80359,-0.13532,0.57959,23.63674,7.89788,-7.19158
0.33306,1.13048,-0.38190,-0.02483,0.09852,-0.13686,1.31101,0.44923,-0.40761,0.22842,2.09045,-0.88772,0.01366,0.80844,-0.12429,0.57515,23.61453,4.77826,-6.97356
0.33295,1.13372,-0.38478,-0.02384,0.13330,-0.15250,1.55961,0.45392,-0.45680,-0.23094,3.30233,-1.26133,0.02611,0.81216,-0.11367,0.57165,20.70535,1.73889,-4.83642
0.33237,1.13811,-0.38815,-0.03012,0.17834,-0.17310,1.64916,0.41299,-0.41058,-1.00975,4.67454,-1.87603,0.03520,0.81466,-0.10386,0.56947,11.20585,-2.81057,-0.08403
0.33036,1.14522,-0.39288,-0.05882,0.25944,-0.21294,1.61140,0.34008,-0.18455,-2.38099,5.75124,-3.01221,0.03825,0.81612,-0.09332,0.56901,-1.17915,-6.09315,12.51228
0.32775,1.15286,-0.39821,-0.09048,0.32953,-0.25368,1.54250,0.33546,-0.00746,-2.80026,6.12510,-3.76525,0.04016,0.81826,-0.08362,0.56731,-4.64820,-3.08072,16.53213
0.32412,1.16269,-0.40492,-0.13084,0.41892,-0.30734,1.51077,0.43758,0.24055,-2.87436,6.36397,-4.07170,0.03923,0.82221,-0.07163,0.56330,-5.49018,4.52344,18.69348
0.32007,1.17383,-0.41244,-0.16996,0.50994,-0.36117,1.70299,0.60527,0.36739,-2.85645,6.38247,-3.86718,0.04312,0.82784,-0.05555,0.55653,9.64173,8.94830,12.05878
0.31526,1.18636,-0.42024,-0.21264,0.60297,-0.40698,1.99817,0.73635,0.46247,-3.47505,6.77651,-2.83571,0.04965,0.83352,-0.03586,0.54909,21.02467,11.44755,6.85333
0.30981,1.19950,-0.42784,-0.25465,0.68249,-0.43858,2.17913,0.75537,0.54845,-3.79046,6.77726,-2.13773,0.05532,0.83744,-0.01677,0.54346,19.44268,4.77675,7.50787
0.30285,1.21534,-0.43600,-0.31287,0.78899,-0.47187,2.35938,0.66719,0.64985,-3.80116,6.59623,-2.12625,0.06088,0.83931,0.00395,0.54022,8.74500,-7.42398,5.03949
0.29475,1.23242,-0.44420,-0.37894,0.89456,-0.49905,2.90422,0.78643,0.62766,-4.45440,6.21934,-1.79578,0.07489,0.84337,0.03241,0.53111,29.65701,5.36469,-0.23460
0.28632,1.24929,-0.45199,-0.43370,0.97069,-0.51315,3.42248,0.96978,0.57074,-4.70169,6.37430,-0.83278,0.09156,0.84778,0.06278,0.51861,43.15144,17.96070,-3.92552
0.27641,1.26780,-0.45965,-0.50129,1.05647,-0.52110,3.92754,1.13012,0.50313,-5.21592,6.16738,-0.11441,0.11062,0.85098,0.09555,0.50445,37.21217,14.35064,-4.02372
0.26498,1.28765,-0.46686,-0.57828,1.14409,-0.51904,4.37839,1.27640,0.48078,-6.00537,6.62021,0.48016,0.12988,0.85291,0.13022,0.48859,33.44838,13.21523,-3.42934
0.25159,1.30874,-0.47387,-0.67011,1.23233,-0.51512,4.71713,1.45362,0.56583,-6.90848,6.25519,0.16378,0.14621,0.85440,0.16581,0.47024,25.83159,8.88516,5.59724
0.23737,1.33013,-0.48093,-0.75346,1.30328,-0.51232,4.91857,1.68434,0.65499,-7.07546,5.76557,0.49378,0.16111,0.85610,0.19989,0.44852,21.44455,17.00799,10.55667
0.22111,1.35265,-0.48784,-0.84990,1.37523,-0.50762,4.92625,1.90696,0.75603,-6.93398,4.79409,0.69160,0.17296,0.85799,0.23022,0.42537,5.99559,13.65924,11.78727
0.20308,1.37575,-0.49433,-0.95428,1.44136,-0.49672,4.72080,2.09374,0.85149,-6.45594,3.67926,1.17933,0.18136,0.86037,0.25496,0.40232,-10.26129,9.55965,10.93757
0.18539,1.39803,-0.50062,-1.02922,1.47934,-0.48489,4.33799,2.10157,0.93206,-6.37632,2.83190,1.64657,0.18595,0.86195,0.27436,0.38365,-21.16740,3.31207,10.72237
0.16600,1.42050,-0.50656,-1.11373,1.51106,-0.46989,3.74206,2.01568,1.02372,-5.94755,1.89139,0.85154,0.18505,0.86463,0.28633,0.36904,-43.07509,-13.42600,9.92914
0.14567,1.44279,-0.51208,-1.19315,1.53196,-0.45246,3.41840,2.16771,1.12794,-5.48919,0.99972,0.93844,0.18635,0.86846,0.30083,0.34722,-28.43502,0.90456,11.94161
0.12429,1.46443,-0.51668,-1.27240,1.53755,-0.42355,3.25888,2.45372,1.21075,-4.58695,-0.38503,2.33097,0.19002,0.87258,0.31666,0.31974,-9.72811,17.09913,11.62091
0.10330,1.48509,-0.52037,-1.32788,1.52545,-0.38587,3.08775,2.62426,1.18941,-3.70564,-1.45646,3.38273,0.19508,0.87536,0.33025,0.29432,-11.93059,12.12222,5.07060
0.08222,1.50467,-0.52260,-1.37339,1.49988,-0.33133,2.93141,2.66932,1.12752,-3.05161,-2.31716,4.61422,0.20044,0.87667,0.34288,0.27150,-12.81043,5.85784,-0.77953
0.06110,1.52309,-0.52333,-1.40926,1.46105,-0.26417,2.80326,2.65986,1.03008,-2.22184,-3.31304,5.10969,0.20659,0.87681,0.35483,0.25025,-10.82134,-0.52577,-4.02408
0.04020,1.53978,-0.52206,-1.43207,1.40034,-0.17867,2.70280,2.63601,0.83197,-0.78973,-4.34097,5.59497,0.21567,0.87566,0.36557,0.23036,-7.56276,0.94919,-10.08494
0.02037,1.55545,-0.52035,-1.43270,1.33757,-0.10310,2.69300,2.66837,0.58916,0.34392,-4.67230,5.13897,0.22789,0.87303,0.37672,0.20969,-7.00857,0.57695,-15.35091
0.00099,1.57058,-0.51810,-1.42448,1.28040,-0.03784,2.78790,2.81241,0.37418,0.83357,-4.80307,5.53243,0.24286,0.86903,0.38921,0.18526,2.24713,14.02976,-17.47079
-0.01784,1.58413,-0.51414,-1.40979,1.21147,0.03894,2.91940,2.96285,0.16286,1.32731,-5.01332,5.50237,0.25974,0.86327,0.40221,0.15975,6.73208,13.90439,-15.26272
-0.03618,1.59663,-0.50942,-1.38943,1.14063,0.11010,3.02083,3.08900,-0.00582,1.59129,-5.12788,4.78333,0.27662,0.85644,0.41483,0.13385,6.31966,11.53455,-12.64895
-0.05394,1.60805,-0.50451,-1.36433,1.06825,0.16822,3.03063,3.17488,-0.11713,2.19154,-5.39091,3.98982,0.29221,0.84956,0.42558,0.10838,2.94220,10.42170,-7.45354
-0.07097,1.61844,-0.49969,-1.33217,0.99505,0.21062,2.75112,3.07328,-0.22946,2.64850,-5.16320,2.67240,0.30494,0.84490,0.43020,0.08995,-12.27201,-6.93643,-6.69456
-0.08726,1.62818,-0.49494,-1.29495,0.92670,0.23988,2.40591,3.00095,-0.33091,2.57341,-4.87026,1.82799,0.31739,0.84157,0.43098,0.07269,-26.61844,-3.57203,-2.70175
-0.10325,1.63716,-0.49002,-1.26124,0.86162,0.26521,2.16096,3.00480,-0.40026,2.12313,-4.25196,1.58350,0.33032,0.83772,0.43155,0.05371,-22.55797,-1.44061,-2.14460
-0.11908,1.64562,-0.48475,-1.23307,0.80328,0.29045,2.13810,3.14951,-0.40532,1.85069,-3.92497,1.57004,0.34409,0.83164,0.43490,0.02898,-3.91834,7.97950,0.57022
-0.13458,1.65356,-0.47938,-1.20621,0.75011,0.31182,2.11157,3.29094,-0.37205,2.04484,-3.77718,1.56418,0.35702,0.82530,0.43751,0.00296,0.63405,11.54692,3.34148
-0.14958,1.66090,-0.47375,-1.17737,0.69920,0.33264,1.98212,3.34173,-0.33412,2.29706,-3.72664,1.71014,0.36851,0.81990,0.43764,-0.02068,-6.44853,5.12599,5.17359
-0.16399,1.66760,-0.46749,-1.14515,0.64937,0.35967,1.85978,3.35256,-0.30274,2.35222,-3.49422,2.27510,0.37939,0.81431,0.43713,-0.04325,-9.85882,0.78726,3.57205
-0.17785,1.67374,-0.46044,-1.11181,0.60200,0.39370,1.71167,3.24808,-0.24851,2.65538,-3.26935,2.71294,0.38797,0.80938,0.43639,-0.06282,-7.89806,-4.50206,5.19244
-0.19118,1.67953,-0.45263,-1.07726,0.55951,0.43235,1.53728,3.08767,-0.14490,2.54672,-2.91360,3.01503,0.39388,0.80577,0.43487,-0.08043,-11.51406,-11.34079,7.33884
-0.20370,1.68464,-0.44394,-1.03580,0.51548,0.47988,1.32365,2.84181,0.01516,2.83243,-2.62733,2.97730,0.39638,0.80409,0.43272,-0.09525,-11.35959,-16.24902,10.40270
-0.21569,1.68974,-0.43537,-0.99381,0.48108,0.51881,1.14265,2.61440,0.14333,3.25816,-2.30517,2.77194,0.39829,0.80262,0.43046,-0.10900,-11.56755,-17.63551,10.91426
-0.22706,1.69480,-0.42663,-0.95174,0.45430,0.54955,1.04835,2.47069,0.22409,3.59815,-2.12249,2.47652,0.40079,0.80016,0.42877,-0.12362,-8.72589,-15.23734,7.99932
-0.23700,1.69935,-0.41695,-0.89711,0.42538,0.58425,1.02482,2.38693,0.26269,4.00567,-1.92395,2.51865,0.40396,0.79652,0.42781,-0.13908,-3.09975,-7.63103,4.22537
-0.24552,1.70336,-0.40628,-0.83125,0.39349,0.62639,1.10155,2.32134,0.26113,4.33299,-2.06248,2.64697,0.40759,0.79097,0.42911,-0.15528,5.32044,-2.64716,-1.02800
-0.25349,1.70722,-0.39552,-0.77037,0.36612,0.66083,1.10688,2.18222,0.22952,4.46354,-1.99529,2.37758,0.41090,0.78597,0.43020,-0.16836,1.36946,-8.86581,-2.44451
-0.26100,1.71098,-0.38470,-0.71698,0.34326,0.68750,1.14500,2.09366,0.15693,4.33741,-1.74471,2.01690,0.41532,0.77972,0.43197,-0.18149,0.04877,-9.68233,-4.90521
-0.26721,1.71438,-0.37355,-0.65542,0.31998,0.71265,1.22978,2.07512,0.04472,4.33456,-1.52342,1.53354,0.42140,0.77153,0.43461,-0.19567,4.51715,-2.17296,-9.13906
-0.27264,1.71771,-0.36240,-0.59532,0.30073,0.73228,1.31919,2.09512,-0.07728,4.18963,-1.31823,1.27569,0.42847,0.76210,0.43740,-0.21045,5.03441,1.44586,-9.55190
-0.27750,1.72098,-0.35114,-0.54008,0.28535,0.74839,1.37397,2.07857,-0.15621,3.93322,-0.98086,1.04847,0.43473,0.75294,0.44011,-0.22448,4.38597,1.66473,-8.15760
-0.28193,1.72435,-0.33976,-0.49052,0.27497,0.76268,1.36655,1.97263,-0.14801,3.52800,-0.65947,1.13699,0.43826,0.74582,0.44241,-0.23654,-0.88007,-6.15782,-0.95480
-0.28557,1.72751,-0.32782,-0.43850,0.26346,0.78341,1.38594,1.76580,-0.07917,3.33213,-0.80331,1.41840,0.43855,0.73984,0.44648,-0.24691,1.58318,-10.89261,1.84460
-0.28939,1.73061,-0.31583,-0.40105,0.25357,0.79998,1.36823,1.52079,-0.00081,3.23520,-1.00081,1.23073,0.43723,0.73520,0.45075,-0.25521,0.63293,-19.01021,4.53684
-0.29219,1.73337,-0.30373,-0.35629,0.24069,0.81379,1.30343,1.21059,0.09080,3.19602,-0.92453,0.69608,0.43379,0.73264,0.45527,-0.26038,-3.97776,-22.59961,5.64950
-0.29407,1.73582,-0.29216,-0.30591,0.22562,0.81640,1.25419,0.98743,0.18775,3.03963,-0.85091,-0.30520,0.42992,0.73023,0.45935,-0.26631,-2.71154,-16.63670,5.34575
-0.29556,1.73789,-0.28100,-0.26006,0.20768,0.81136,1.25942,0.83616,0.13475,3.31906,-1.77426,-0.54191,0.42882,0.72536,0.46488,-0.27175,1.32166,-10.35716,0.39191
-0.29617,1.73972,-0.27044,-0.21019,0.19008,0.79721,1.19376,0.76213,0.27132,3.80872,-1.42767,-1.46635,0.42492,0.72332,0.46702,-0.27954,-3.67029,-5.89894,8.01352
-0.29605,1.74087,-0.26050,-0.15978,0.16524,0.77655,1.10786,0.63024,0.27303,3.52891,-1.84244,-1.60902,0.42255,0.72104,0.47009,-0.28385,-6.58344,-9.53944,-0.49919
-0.29533,1.74156,-0.25107,-0.11175,0.13873,0.75192,1.07769,0.58328,0.25622,3.16896,-1.88643,-2.05461,0.42097,0.71759,0.47336,-0.28945,-3.15719,-5.79576,-1.12494
-0.29414,1.74189,-0.24248,-0.06687,0.11253,0.71905,1.02727,0.59631,0.23581,3.09496,-1.84382,-2.65506,0.42044,0.71396,0.47545,-0.29570,-2.69826,-0.09152,-1.06930
-0.29347,1.74217,-0.23454,-0.03157,0.09062,0.68609,0.98488,0.66145,0.20179,2.83700,-1.92728,-3.04539,0.42112,0.70963,0.47685,-0.30281,-3.66246,3.87559,-1.97884
-0.29599,1.74239,-0.22793,-0.00128,0.06769,0.64679,0.94915,0.73187,0.16203,3.01774,-2.10298,-3.14525,0.42235,0.70496,0.47807,-0.31000,-1.45050,6.09648,-2.12531
-0.29809,1.74215,-0.22193,0.02660,0.04310,0.60578,0.82333,0.70474,0.09770,2.42571,-1.78148,-3.12023,0.42406,0.70210,0.47847,-0.31351,-10.30587,-1.92390,-4.16869
-0.29750,1.74135,-0.21634,0.05311,0.01869,0.56276,0.72614,0.72150,0.05627,2.07624,-1.89815,-3.25563,0.42621,0.69885,0.47825,-0.31818,-5.39214,3.71254,-3.03789
-0.29536,1.74019,-0.21133,0.07537,-0.00409,0.51740,0.56222,0.66898,0.04853,1.27040,-1.49283,-3.21682,0.42770,0.69790,0.47669,-0.32060,-12.66854,-4.50964,-0.48472
-0.29343,1.73883,-0.20684,0.08938,-0.02504,0.47393,0.43295,0.64633,0.05286,0.76433,-1.37007,-3.08484,0.42925,0.69690,0.47475,-0.32355,-8.90308,-1.50899,0.35299
-0.29167,1.73726,-0.20312,0.09755,-0.04471,0.42715,0.35541,0.63831,0.07541,0.28742,-1.10842,-2.79039,0.43030,0.69570,0.47301,-0.32726,-5.59390,-0.81621,1.54280
-0.29015,1.73572,-0.19934,0.10017,-0.05991,0.39154,0.31883,0.61089,0.09543,0.08348,-0.97444,-2.35012,0.43076,0.69437,0.47203,-0.33088,-3.39459,-2.03814,1.71798
-0.28864,1.73389,-0.19592,0.10225,-0.07667,0.35747,0.35548,0.63652,0.08121,0.14088,-1.02088,-1.98947,0.43183,0.69130,0.47205,-0.33584,1.45933,0.74334,-0.26353
-0.28698,1.73191,-0.19245,0.10620,-0.09215,0.33187,0.39488,0.68416,0.03271,0.37112,-1.16856,-1.69816,0.43396,0.68725,0.47229,-0.34104,2.92879,3.76222,-3.07931
-0.28528,1.72974,-0.18910,0.11000,-0.10736,0.31031,0.43204,0.68186,-0.03500,0.22928,-1.00085,-1.50764,0.43612,0.68306,0.47345,-0.34508,2.19248,0.91943,-5.16541
-0.28382,1.72756,-0.18603,0.10867,-0.11889,0.28903,0.43925,0.65715,-0.05322,-0.28147,-0.68220,-1.61474,0.43749,0.67976,0.47416,-0.34885,1.21685,-1.39952,-2.65906
-0.28268,1.72552,-0.18336,0.10226,-0.12525,0.26591,0.43221,0.63930,-0.02556,-0.58160,-0.36993,-1.67900,0.43811,0.67718,0.47420,-0.35302,-0.48225,-2.12187,1.02641
-0.28163,1.72345,-0.18100,0.09602,-0.13079,0.24328,0.43740,0.62868,0.00484,-0.23617,-0.42075,-1.52542,0.43845,0.67451,0.47428,-0.35756,0.60946,-0.13071,2.74193
-0.28040,1.72132,-0.17862,0.09429,-0.13598,0.22645,0.43432,0.60363,0.00514,-0.07653,-0.45504,-1.31433,0.43907,0.67184,0.47466,-0.36130,-0.54340,-2.79047,0.93479
-0.27907,1.71908,-0.17647,0.09455,-0.14176,0.21003,0.41246,0.54321,0.00065,0.11424,-0.42312,-1.04647,0.43943,0.66979,0.47525,-0.36390,-0.65178,-2.90605,-0.68280
-0.27760,1.71678,-0.17438,0.09725,-0.14708,0.19632,0.42932,0.50764,-0.02289,0.12016,-0.21693,-0.66521,0.43995,0.66696,0.47653,-0.36679,-0.82144,-3.67106,-0.99717
-0.27605,1.71453,-0.17206,0.10053,-0.15044,0.18939,0.47851,0.50525,-0.05167,0.32755,-0.19786,-0.54602,0.44066,0.66310,0.47834,-0.37056,3.86420,0.19395,-2.21699
-0.27429,1.71235,-0.16983,0.10654,-0.15193,0.18283,0.51126,0.42558,-0.07061,0.59613,-0.10737,-0.30284,0.44028,0.66013,0.48102,-0.37283,2.82454,-2.56881,-1.33227
-0.27240,1.71025,-0.16744,0.11357,-0.15156,0.18024,0.51361,0.29366,-0.08198,0.59922,0.13978,-0.09503,0.43904,0.65838,0.48413,-0.37336,-0.43753,-10.16577,-0.89093
-0.27022,1.70821,-0.16492,0.12343,-0.15025,0.18018,0.54668,0.19406,-0.10150,0.77874,0.10229,0.13126,0.43768,0.65599,0.48795,-0.37419,1.41588,-7.48288,-1.30828
-0.26786,1.70617,-0.16228,0.13407,-0.14929,0.18238,0.60581,0.13709,-0.15715,0.87032,0.21498,0.20685,0.43699,0.65235,0.49266,-0.37520,4.24424,-5.92744,-3.64194
-0.26510,1.70431,-0.15958,0.14895,-0.14600,0.18520,0.71003,0.13168,-0.22841,1.14958,0.31045,0.31417,0.43672,0.64699,0.49833,-0.37729,6.12605,-1.86537,-4.56413
-0.26167,1.70250,-0.15663,0.17180,-0.14223,0.19142,0.86358,0.12820,-0.35413,1.49629,0.16142,0.18138,0.43702,0.63948,0.50609,-0.37940,10.21584,1.48396,-7.59903
-0.25820,1.70079,-0.15375,0.19056,-0.13737,0.19534,0.89321,0.02945,-0.44534,1.36525,0.38501,0.38730,0.43675,0.63447,0.51321,-0.37857,2.22175,-5.78559,-6.70599
-0.25471,1.69921,-0.15069,0.20481,-0.13170,0.20104,0.92681,-0.09080,-0.50867,1.12982,0.53664,0.46122,0.43553,0.62980,0.52107,-0.37704,2.97621,-8.67868,-6.49260
-0.25103,1.69803,-0.14755,0.21884,-0.12053,0.20681,0.95431,-0.24582,-0.55884,0.67465,0.78664,0.27849,0.43331,0.62575,0.52976,-0.37421,0.93861,-10.32893,-3.94334
-0.24758,1.69693,-0.14458,0.22576,-0.11067,0.20829,0.94798,-0.35575,-0.57255,0.52463,0.76075,-0.04407,0.43102,0.62225,0.53753,-0.37160,1.22370,-8.41366,-2.76275
-0.24402,1.69619,-0.14171,0.23274,-0.09713,0.20786,0.91863,-0.47874,-0.58628,0.30788,0.93945,0.05753,0.42838,0.61957,0.54532,-0.36777,-4.10726,-9.66147,-1.00657
-0.24033,1.69556,-0.13888,0.24079,-0.08427,0.20670,0.97181,-0.47362,-0.63231,0.62123,0.85977,-0.17393,0.42703,0.61409,0.55355,-0.36623,4.31351,0.33198,-2.89879
-0.23643,1.69503,-0.13606,0.25048,-0.07299,0.20563,1.00666,-0.45819,-0.68039,0.99399,0.99029,0.06303,0.42612,0.60836,0.56160,-0.36459,1.75839,0.87354,-3.11615
-0.23212,1.69460,-0.13310,0.26449,-0.06303,0.20729,1.06417,-0.45619,-0.75787,1.44909,0.81471,0.18657,0.42544,0.60156,0.57073,-0.36250,5.06248,1.91192,-5.10322
-0.22725,1.69444,-0.12993,0.28434,-0.05109,0.21215,1.08365,-0.55016,-0.84769,1.58441,0.77271,0.50516,0.42398,0.59568,0.58089,-0.35775,1.93777,-4.29837,-6.70539
-0.22192,1.69420,-0.12626,0.30762,-0.04322,0.22439,1.15006,-0.71588,-0.96459,1.42720,0.27909,0.93854,0.42113,0.58923,0.59347,-0.35107,3.50311,-9.97119,-7.28429
-0.21672,1.69368,-0.12244,0.32310,-0.04190,0.23622,1.20954,-0.86307,-1.06402,1.21365,0.00089,0.99450,0.41788,0.58255,0.60644,-0.34387,5.04654,-11.24725,-8.67393
-0.21136,1.69309,-0.11838,0.33742,-0.04198,0.24905,1.29393,-1.01739,-1.17253,0.74977,0.09343,0.81323,0.41388,0.57500,0.62083,-0.33564,5.29236,-11.53498,-9.27123
-0.20610,1.69273,-0.11432,0.34657,-0.03817,0.25885,1.37640,-1.13447,-1.24046,0.44603,0.44134,0.67350,0.40929,0.56711,0.63514,-0.32782,5.47226,-8.58867,-6.15394
-0.20095,1.69268,-0.11014,0.35188,-0.03008,0.26848,1.51319,-1.23972,-1.27807,0.29904,0.89514,0.79276,0.40322,0.55800,0.65049,-0.32081,8.09172,-7.45807,-3.02397
-0.19597,1.69329,-0.10552,0.35321,-0.01255,0.28349,1.69138,-1.42253,-1.27071,-0.02207,1.41658,1.09941,0.39377,0.54868,0.66757,-0.31344,10.42319,-11.29645,-0.90176
-0.19113,1.69445,-0.10062,0.35191,0.01041,0.29997,1.83875,-1.66372,-1.23578,0.08646,1.77233,1.28634,0.38166,0.54015,0.68527,-0.30492,9.49350,-16.46175,2.25759
-0.18616,1.69585,-0.09545,0.35320,0.03150,0.31674,1.95566,-1.89319,-1.22966,0.21670,1.76352,1.52616,0.36860,0.53132,0.70339,-0.29509,7.95232,-20.04969,-0.37290
-0.18094,1.69772,-0.08970,0.35811,0.05523,0.33891,2.11382,-2.15081,-1.25091,0.46606,1.61899,1.61531,0.35322,0.52106,0.72328,-0.28389,9.61009,-19.22233,-2.30715
-0.17540,1.69959,-0.08370,0.36749,0.07320,0.36004,2.30507,-2.34249,-1.30962,0.70418,1.04043,1.46054,0.33762,0.50833,0.74388,-0.27249,11.31484,-16.36969,-3.73182
-0.16959,1.70112,-0.07765,0.37893,0.08148,0.37707,2.52878,-2.46185,-1.39117,0.93282,0.25439,1.02501,0.32212,0.49266,0.76497,-0.26144,17.35401,-9.59852,-3.72298
-0.16372,1.70237,-0.07168,0.38854,0.08331,0.38868,2.64419,-2.60233,-1.50494,0.85374,-0.22406,0.96361,0.30655,0.47749,0.78534,-0.24752,11.51108,-10.08273,-7.56833
-0.15813,1.70302,-0.06527,0.39113,0.07473,0.40508,2.72061,-2.90352,-1.70880,-0.11351,-0.93742,1.14838,0.28819,0.46218,0.80722,-0.22746,5.11220,-14.40370,-13.31199
-0.15320,1.70323,-0.05884,0.38262,0.06120,0.41782,2.72706,-3.21305,-1.89194,-0.91667,-1.54972,1.00801,0.26829,0.44777,0.82803,-0.20466,3.74938,-21.23032,-17.78404
-0.14901,1.70276,-0.05228,0.36472,0.04043,0.42944,2.69358,-3.57638,-2.15112,-1.89009,-1.94797,0.89778,0.24672,0.43322,0.84880,-0.17600,-1.72486,-25.68763,-24.72751
-0.14625,1.70115,-0.04571,0.32803,0.00625,0.43850,2.82686,-3.93418,-2.40469,-2.86611,-2.08549,0.22455,0.22199,0.41368,0.87081,-0.14585,7.40433,-21.87821,-20.76129
-0.14407,1.69921,-0.03977,0.29009,-0.02602,0.43563,3.02320,-4.13236,-2.54243,-2.97253,-2.32980,-0.61378,0.19727,0.39099,0.89107,-0.11920,13.14446,-16.30555,-10.66045
-0.14285,1.69636,-0.03480,0.24459,-0.06620,0.41759,3.31869,-4.25325,-2.58854,-2.93683,-2.56956,-1.70637,0.17130,0.36403,0.91050,-0.09552,18.27854,-11.16061,-0.83298
-0.14115,1.69378,-0.03021,0.21751,-0.09266,0.39818,3.49976,-4.28755,-2.57484,-2.67656,-2.75316,-2.29052,0.14629,0.33763,0.92694,-0.07341,16.51048,-8.80686,3.12101
-0.14024,1.68981,-0.02704,0.18497,-0.13386,0.36136,3.75154,-4.27373,-2.53599,-2.17192,-3.16159,-3.09152,0.12117,0.30717,0.94241,-0.05324,16.39128,-4.05304,7.18709
-0.13961,1.68422,-0.02563,0.15458,-0.19317,0.30388,4.01834,-4.18653,-2.58216,-1.26980,-3.59075,-3.29682,0.09872,0.27345,0.95627,-0.03212,14.33767,1.41613,3.09077
-0.13803,1.67968,-0.02308,0.14565,-0.22213,0.27771,4.19432,-4.12443,-2.59810,-1.10965,-3.48241,-3.18720,0.07605,0.24006,0.96771,-0.01092,16.96327,3.87221,0.26058
-0.13703,1.67175,-0.02376,0.12957,-0.29761,0.20653,4.75480,-3.94171,-2.32428,-0.82517,-4.01640,-4.15045,0.05292,0.19453,0.97947,-0.00145,24.40527,-0.68945,23.80024
-0.13591,1.66454,-0.02430,0.11860,-0.34686,0.15145,5.06820,-3.84952,-2.20517,-0.79482,-4.48514,-5.17489,0.02985,0.15209,0.98784,0.01230,22.31768,-2.19906,22.16352
-0.13539,1.65555,-0.02779,0.10040,-0.41362,0.06120,5.42520,-3.70859,-2.29759,-1.13240,-4.17299,-6.32570,0.01031,0.10490,0.99396,0.03065,24.06432,4.38442,5.19496
-0.13518,1.64668,-0.03252,0.08097,-0.46402,-0.02995,5.69340,-3.59233,-2.45743,-1.55800,-3.20916,-6.83847,-0.00829,0.05761,0.99695,0.05197,22.60518,8.18083,-3.60140
-0.13531,1.63818,-0.03819,0.06077,-0.49664,-0.11417,5.90030,-3.54943,-2.52895,-1.89582,-2.11170,-7.26669,-0.02851,0.01027,0.99693,0.07219,20.77292,5.37052,-1.99403
-0.13640,1.62980,-0.04735,0.02958,-0.51955,-0.23558,6.10995,-3.63140,-2.44228,-2.24311,-0.43595,-7.95727,-0.05268,-0.03844,0.99393,0.08856,12.56412,-5.93087,4.08051
-0.13760,1.62269,-0.05691,0.00382,-0.51728,-0.33620,6.20276,-3.83090,-2.24882,-2.30209,1.10056,-8.67533,-0.08127,-0.08492,0.98789,0.10126,4.76949,-17.81588,8.54048
-0.13934,1.61698,-0.06951,-0.02430,-0.49334,-0.46075,6.28243,-4.18931,-1.94097,-1.95892,2.73184,-9.02795,-0.11621,-0.13182,0.97840,0.10889,-1.80761,-31.24290,9.81981
-0.14128,1.61337,-0.08391,-0.04947,-0.44156,-0.58621,6.28019,-4.78513,-1.52264,-1.97036,5.11831,-8.53759,-0.16030,-0.17730,0.96471,0.11047,-6.53609,-41.49126,8.94174
-0.14340,1.61248,-0.09955,-0.07192,-0.35865,-0.70340,6.01671,-5.84347,-0.91911,-1.87961,7.42778,-7.53658,-0.22188,-0.21611,0.94538,0.10155,-23.86394,-68.92608,2.24949
-0.14518,1.61469,-0.11598,-0.08385,-0.24501,-0.80727,5.45345,-7.12187,-0.52037,0.10659,9.12203,-7.33664,-0.29691,-0.24415,0.91869,0.09076,-44.45908,-99.69997,-15.90120
-0.14623,1.62025,-0.13280,-0.08176,-0.10411,-0.89447,4.68015,-7.96034,-0.73970,1.60050,10.80055,-6.30284,-0.36762,-0.25880,0.88835,0.09333,-41.93570,-61.04903,-51.68547
-0.14596,1.62914,-0.15020,-0.05919,0.05830,-0.97192,3.93490,-8.23803,-1.35447,2.90512,12.65445,-5.74471,-0.42770,-0.26478,0.85745,0.10839,-26.06113,-9.48156,-68.97557
-0.14292,1.64409,-0.16928,0.00306,0.28395,-1.05995,3.22470,-8.22274,-2.14962,5.15100,15.56431,-5.28514,-0.48166,-0.26309,0.82561,0.13099,-11.08401,16.37902,-63.62800
-0.13782,1.66123,-0.18795,0.08491,0.49636,-1.12253,2.60985,-8.09747,-2.86928,7.03867,14.80565,-3.93213,-0.53201,-0.25701,0.79190,0.15430,-12.38402,19.46767,-63.76998
-0.12970,1.68155,-0.20631,0.19741,0.71299,-1.16633,2.06188,-7.70387,-3.59079,9.38910,16.50933,-2.62515,-0.57436,-0.24510,0.75961,0.18175,1.62065,38.09844,-57.34785
-0.11811,1.70515,-0.22443,0.34015,0.93258,-1.19619,1.42270,-7.41004,-4.33782,10.98753,14.88646,-1.95418,-0.61731,-0.22326,0.72468,0.20957,-10.58007,37.76714,-62.87550
-0.10242,1.73130,-0.24249,0.51716,1.14451,-1.21864,0.82357,-7.02612,-5.05946,14.34648,15.91710,-1.46490,-0.65579,-0.19476,0.68926,0.23859,-2.86144,37.78383,-58.98618
-0.08117,1.76067,-0.26051,0.74416,1.36071,-1.23586,0.24566,-6.68331,-5.85435,18.46170,14.29872,-0.61054,-0.69256,-0.15786,0.65024,0.26952,-5.62996,31.92531,-67.66374
-0.05597,1.79059,-0.27859,0.97930,1.53394,-1.24973,-0.25250,-6.54211,-6.58429,21.46493,14.40347,-1.42938,-0.72921,-0.11678,0.60434,0.29899,6.62112,35.10259,-69.04755
-0.01988,1.82543,-0.29736,1.32998,1.74373,-1.27169,-0.35926,-6.96292,-7.90131,26.85594,15.37179,-3.56225,-0.77047,-0.06903,0.53300,0.34282,5.63645,26.13614,-75.97945
0.03672,1.86689,-0.31306,1.93509,2.01573,-1.23822,-0.97817,-6.75153,-8.53410,42.86559,17.36761,4.73896,-0.79952,-0.01387,0.47545,0.36677,-29.15966,24.44206,-24.96416
0.09525,1.90494,-0.32615,2.43302,2.17164,-1.17232,-0.77508,-6.65713,-9.56629,41.39590,8.05536,7.17299,-0.81709,0.03906,0.40210,0.41127,45.76668,-6.74468,-97.72791
0.16794,1.94070,-0.33385,3.03623,2.25604,-1.03729,-0.20121,-6.41503,-10.31937,46.51742,3.72512,12.76357,-0.82026,0.08478,0.32876,0.46034,60.77318,-19.65578,-32.49753
0.25979,1.97217,-0.33233,3.81813,2.25430,-0.78411,0.25859,-6.40497,-11.30899,51.20403,-4.21376,19.28761,-0.81448,0.13815,0.24198,0.50891,57.40717,-24.26518,-46.54718
0.33299,1.99417,-0.32557,4.53891,2.13549,-0.45885,0.58647,-6.22019,-12.01881,52.00774,-12.49175,27.44378,-0.79828,0.19216,0.15822,0.54845,27.05923,-10.13072,-32.23490
0.40001,2.01692,-0.31466,5.23710,1.90805,-0.03227,1.11547,-6.02392,-13.00809,49.21170,-20.01391,34.53825,-0.76378,0.25191,0.06693,0.59050,59.09611,-23.87400,-42.80309
0.47373,2.03268,-0.29527,5.79657,1.61848,0.42509,1.68919,-5.59946,-14.17467,45.92398,-28.46850,43.30834,-0.70853,0.32072,-0.02508,0.62808,68.53712,-24.42511,-64.09829
0.54874,2.03022,-0.24937,6.51798,0.98637,1.30795,3.63438,-4.74092,-15.93341,34.38120,-43.45629,57.08130,-0.59982,0.39917,-0.11314,0.68417,122.74220,-52.30409,-63.41437
0.62447,2.01534,-0.18889,6.90816,0.30219,2.18068,6.61746,-3.98356,-16.90790,22.64001,-59.13504,71.00463,-0.45372,0.45485,-0.18033,0.74480,140.53060,-129.27700,-47.33775
0.69582,1.97468,-0.10281,7.11584,-0.67798,3.20300,11.00476,-2.65030,-18.44958,9.47482,-86.64017,76.63922,-0.23018,0.51459,-0.22314,0.79525,220.93960,-229.88680,-89.85287
0.75284,1.88758,-0.00069,6.99158,-2.18778,4.22193,15.66354,0.33483,-20.11621,-25.71320,-135.36670,71.07014,0.04674,0.59001,-0.21760,0.77612,318.81140,-161.55850,-139.27130
0.77179,1.73881,0.09612,6.23441,-4.33930,4.98383,22.48037,4.00567,-19.77379,-83.20978,-173.52890,33.62200,0.36974,0.61810,-0.11468,0.68417,370.56350,-271.42530,-223.00170
0.72600,1.54838,0.14860,4.56339,-6.74969,5.02346,31.25276,7.23449,-14.85903,-152.09060,-166.38760,-28.93231,0.65695,0.55058,0.12736,0.49906,446.32250,-355.58850,-396.53340
0.69138,1.32553,0.17002,2.20301,-8.80193,4.21496,39.73800,3.65657,-6.72233,-184.94370,-125.71520,-87.01077,0.81453,0.28971,0.41634,0.28154,453.32100,-188.20960,-758.82640
0.71677,1.06272,0.16885,-0.26761,-10.13646,2.38009,42.25911,-5.76815,-3.93830,-167.69220,-43.78816,-163.29640,0.82684,-0.07088,0.54493,0.11981,422.50940,391.63560,-597.35490
0.67147,0.90492,0.08869,-1.93711,-9.98724,0.18017,37.21841,-10.83567,-6.29106,-109.03270,67.63036,-171.75720,0.79091,-0.30278,0.52712,0.07021,112.18120,576.79690,-228.64070
0.62747,0.85575,-0.02447,-2.84172,-8.26613,-1.88787,27.52644,-7.54005,-10.93035,-11.91122,127.44250,-76.89851,0.83050,-0.36845,0.39185,0.14479,-226.62620,632.30110,346.31690
0.61077,0.83852,-0.07390,-2.73294,-6.59476,-2.35297,22.09774,-5.75434,-8.77900,41.42802,109.68930,-0.90959,0.83585,-0.37928,0.37713,0.12353,-321.96560,270.25990,356.74460
0.60558,0.81870,-0.08209,-2.33906,-5.40632,-2.01160,16.57800,-11.90906,-3.67208,24.43029,64.97929,36.25101,0.70796,-0.40610,0.56988,0.09544,-473.54260,-284.86330,-409.24260
0.59093,0.78207,-0.07892,-2.11611,-4.78199,-1.55062,12.23022,-13.38360,-1.55472,-1.40501,42.80735,39.13714,0.61643,-0.41351,0.66585,0.07532,-334.46320,-225.59990,-368.52130
0.56044,0.75087,-0.05958,-2.18499,-4.21515,-0.94695,6.09355,-8.51485,-2.05686,-16.77563,30.78688,34.03806,0.63479,-0.36978,0.65180,0.18832,-280.40980,366.28060,-153.24430
0.51854,0.72010,-0.04758,-2.44198,-3.89507,-0.58631,2.43762,-3.86733,-2.90820,-27.07396,27.46611,25.68377,0.66609,-0.33609,0.60138,0.28586,-265.11770,441.69610,-0.18288
0.45663,0.69362,-0.03560,-2.88756,-3.45122,-0.26945,-0.02420,1.59024,-4.81165,-22.02602,30.95814,17.66671,0.71005,-0.31211,0.48229,0.40719,-63.87180,431.22650,-113.63480
0.39806,0.67125,-0.02675,-3.18413,-3.03503,-0.06798,-0.63686,2.86663,-6.24060,-12.64772,31.49191,15.39397,0.70220,-0.33607,0.41536,0.47058,-13.11845,157.53580,-113.13930
0.34530,0.65747,-0.01324,-3.31964,-2.56760,0.16804,-1.25284,2.18579,-6.88432,-0.76383,27.24250,15.74327,0.66866,-0.36639,0.39210,0.51469,-43.44454,-15.91029,-40.04208
0.30259,0.64359,0.00215,-3.27126,-2.20618,0.38078,-2.24558,1.25075,-6.63773,7.27270,24.69952,14.43583,0.62895,-0.37921,0.39184,0.55415,-90.38024,-40.01619,13.85846
0.26685,0.63189,0.01891,-3.12063,-1.89089,0.56629,-3.22185,1.02738,-5.69562,11.50612,21.36506,11.38040,0.59998,-0.36786,0.39401,0.59115,-74.90895,6.57111,68.61627
0.23515,0.62190,0.03515,-2.93372,-1.61888,0.70167,-3.74243,1.84217,-4.66563,12.59021,19.47486,6.90601,0.58895,-0.33941,0.37896,0.62796,-29.84919,66.38193,66.48150
0.20485,0.61267,0.04897,-2.77127,-1.40137,0.76414,-3.60557,2.92136,-3.90997,13.26517,18.82511,2.95582,0.59067,-0.31038,0.34878,0.65812,31.73586,101.72250,42.69071
0.17769,0.60947,0.06071,-2.59898,-1.13780,0.77832,-3.05049,3.75364,-3.32247,11.96666,20.08924,-0.65508,0.59930,-0.28556,0.31439,0.67857,59.22955,66.75040,25.20140
0.15261,0.61339,0.06988,-2.42654,-0.81391,0.74839,-2.33242,4.29488,-3.19539,9.95083,19.88175,-3.14534,0.60678,-0.27115,0.27367,0.69527,52.17191,30.12599,-3.85664
0.12695,0.61771,0.07755,-2.29990,-0.55561,0.69838,-1.83232,4.35876,-3.37314,9.00226,16.81120,-4.07049,0.60562,-0.26692,0.23504,0.71185,38.71224,-0.13713,-23.42616
0.10178,0.62131,0.08396,-2.19491,-0.37154,0.64144,-1.63416,4.14479,-3.42129,9.15898,13.21941,-5.55611,0.59879,-0.26375,0.20456,0.72804,17.61535,-13.56277,-16.47408
0.07817,0.62614,0.08718,-2.08843,-0.21227,0.54737,-1.51040,3.40800,-3.21794,7.25531,10.05818,-8.28893,0.58905,-0.26751,0.19070,0.73830,-1.40790,-40.51089,14.68459
0.05529,0.63225,0.08593,-1.99312,-0.06739,0.39762,-0.97588,2.29586,-3.06615,4.95986,8.94019,-10.63429,0.58459,-0.28666,0.18334,0.73653,16.45153,-70.44229,13.97370
0.03077,0.63743,0.08424,-1.94474,0.03040,0.27737,-0.53179,1.14508,-3.07048,4.03855,7.82405,-9.57551,0.57776,-0.31455,0.17796,0.73184,25.46809,-89.33417,1.28384
0.00778,0.64534,0.08141,-1.88117,0.14889,0.16918,-0.49490,-0.43901,-2.98645,6.27884,8.14782,-5.60454,0.55982,-0.35407,0.19008,0.72464,-5.99997,-114.77520,4.26267
-0.01019,0.65634,0.08050,-1.74907,0.28956,0.11402,-1.20894,-1.95221,-2.56085,9.30949,7.93651,-0.89418,0.52650,-0.38725,0.22119,0.72382,-58.46838,-92.83595,26.19791
-0.02521,0.66686,0.08283,-1.59680,0.39247,0.12437,-1.94337,-2.62991,-2.20737,10.84791,6.05305,3.22567,0.49227,-0.40766,0.24520,0.72894,-64.67283,-58.28936,21.23438
-0.03680,0.67641,0.08781,-1.42145,0.45715,0.17787,-2.39125,-2.58739,-1.96818,12.56519,3.79252,4.72990,0.46420,-0.41694,0.25779,0.73772,-44.99399,2.89978,15.59370
-0.04671,0.68516,0.09417,-1.26151,0.49045,0.24007,-2.58264,-2.19104,-1.97214,13.53213,2.04360,5.53521,0.44013,-0.42222,0.25855,0.74911,-17.77501,26.86416,-0.76991
-0.04854,0.68967,0.10540,-1.01116,0.44657,0.36626,-2.39304,-1.14108,-1.15068,29.48813,-10.52129,18.58402,0.44011,-0.40066,0.26276,0.75943,-3.58966,45.67664,14.00470
-0.03545,0.68496,0.13066,-0.58758,0.26877,0.68387,-1.53856,1.60468,-0.34792,13.25863,-5.48927,13.09019,0.47358,-0.33608,0.23278,0.78012,43.45118,151.20640,31.30899
-0.03552,0.68735,0.14640,-0.45688,0.24364,0.78293,-0.94127,2.51111,-0.62772,10.65169,0.46250,4.52640,0.48401,-0.31320,0.20142,0.79188,65.71816,113.61230,-27.93926
-0.03535,0.69374,0.15846,-0.35451,0.28692,0.80034,-0.92639,2.80075,-0.89425,8.14981,4.47486,-0.84184,0.48007,-0.29698,0.17989,0.80559,16.24984,39.48296,-28.38614
-0.03444,0.70289,0.16694,-0.26366,0.36349,0.75782,-1.09993,2.69084,-1.30348,4.41175,4.20460,-3.89571,0.46665,-0.29058,0.16096,0.81969,-19.64014,-5.49733,-20.17427
-0.03477,0.71069,0.17386,-0.21049,0.40206,0.69950,-0.95895,2.54113,-1.73810,3.46403,1.93421,-4.93135,0.45835,-0.28933,0.13715,0.82909,-2.38103,-13.72995,-30.00126
-0.03441,0.71708,0.17858,-0.15731,0.40981,0.61816,-0.59530,2.35695,-2.17271,3.47760,-0.80051,-5.35207,0.45497,-0.29235,0.10917,0.83404,16.50891,-14.25644,-32.51112
-0.03373,0.72201,0.18267,-0.10999,0.38818,0.54359,-0.39221,2.10129,-2.26455,3.90472,-2.84493,-5.29680,0.45168,-0.29391,0.08958,0.83760,13.46346,-19.37244,-15.41582
-0.03248,0.72566,0.18631,-0.06528,0.35157,0.47991,-0.33791,1.83250,-2.05850,4.08417,-4.06788,-5.24336,0.44844,-0.29283,0.07908,0.84077,5.91547,-21.46519,7.25015
-0.03013,0.72747,0.18849,-0.01434,0.29498,0.40837,-0.43118,1.44876,-1.51960,3.76293,-4.74650,-4.91926,0.44505,-0.29040,0.08244,0.84309,-2.62445,-25.16390,34.76064
-0.02612,0.72743,0.18903,0.05309,0.21395,0.32255,-0.63472,0.96448,-0.64326,3.94736,-4.56751,-4.75948,0.44192,-0.28589,0.10085,0.84428,-11.05913,-25.26828,51.18147
-0.02174,0.72736,0.18977,0.11289,0.15073,0.25810,-0.62892,0.72408,-0.07000,4.12036,-4.27995,-4.57726,0.44201,-0.28002,0.11283,0.84468,-2.21870,-18.28619,46.39379
-0.01691,0.72649,0.19035,0.16632,0.09739,0.20789,-0.50346,0.61512,0.27444,4.44429,-4.27206,-3.79623,0.44460,-0.27401,0.12051,0.84423,10.06587,-11.51000,32.60641
-0.01011,0.72490,0.19026,0.23757,0.03741,0.15910,-0.25779,0.67028,0.57413,5.14861,-4.22334,-3.20718,0.45173,-0.26447,0.12597,0.84269,15.25441,1.25693,22.60272
-0.00159,0.72216,0.18972,0.32172,-0.02988,0.11362,0.13729,0.87056,0.76848,4.97552,-4.10356,-2.49550,0.46411,-0.25213,0.12652,0.83966,24.75304,12.79510,12.55914
0.00659,0.71926,0.18961,0.38195,-0.07693,0.08590,0.42709,1.05650,0.83623,5.00509,-3.79867,-2.14826,0.47549,-0.24001,0.12461,0.83712,25.23971,16.12064,5.81358
0.01637,0.71613,0.18888,0.45267,-0.12139,0.05549,0.67714,1.27553,0.90004,5.02892,-2.79070,-2.06134,0.48792,-0.22571,0.12164,0.83438,19.64916,16.74102,4.14642
0.02760,0.71318,0.18767,0.53216,-0.15452,0.02376,0.85644,1.54151,0.83091,4.72326,-1.63377,-1.64732,0.49913,-0.21055,0.11454,0.83271,10.67951,16.41358,-2.08316
0.03854,0.71028,0.18689,0.58967,-0.17142,0.00595,0.94679,1.78989,0.67804,4.66945,-1.23681,-1.15821,0.50838,-0.19555,0.10459,0.83209,6.84683,19.34678,-9.92553
0.05112,0.70784,0.18594,0.65804,-0.18567,-0.00911,1.02457,2.15878,0.45331,4.96010,-0.91552,-0.90991,0.51739,-0.17743,0.08896,0.83242,2.49869,25.67484,-14.41847
0.06491,0.70539,0.18479,0.73089,-0.19678,-0.02432,1.09130,2.61769,0.16565,5.15125,-0.88770,-1.05045,0.52592,-0.15642,0.06758,0.83329,1.94933,32.88131,-17.85087
0.08010,0.70232,0.18314,0.81128,-0.21321,-0.04452,1.14708,3.13291,-0.14578,4.96830,-1.34404,-1.52727,0.53384,-0.13261,0.04145,0.83409,0.03700,34.59200,-18.11503
0.09500,0.69920,0.18109,0.86849,-0.22730,-0.06617,1.17451,3.44478,-0.30224,4.87735,-1.23255,-2.04141,0.54122,-0.10960,0.01876,0.83350,0.82096,30.26442,-14.36541
0.11125,0.69642,0.17807,0.93317,-0.23396,-0.09834,1.04190,3.68371,-0.32188,4.81929,-0.36744,-2.68274,0.54475,-0.08456,-0.00071,0.83432,-6.38934,19.84809,-2.05373
0.12890,0.69410,0.17340,1.00747,-0.23121,-0.15064,0.84737,3.88906,-0.27218,4.53041,0.23539,-3.72615,0.54567,-0.05792,-0.01830,0.83579,-11.73440,12.60350,7.36261
0.14713,0.69196,0.16737,1.07587,-0.22834,-0.21466,0.74871,4.09368,-0.21113,4.04526,0.09870,-4.23870,0.54739,-0.03001,-0.03640,0.83555,-5.66590,12.93329,4.61019
0.16485,0.68957,0.16116,1.12065,-0.22364,-0.26782,0.70463,4.23041,-0.12100,3.45999,0.62563,-4.65067,0.54944,-0.00192,-0.05319,0.83384,-2.20721,11.05485,9.00413
0.18348,0.68779,0.15267,1.16983,-0.21101,-0.34602,0.71548,4.43531,-0.12278,2.57619,1.00623,-5.08680,0.55154,0.02756,-0.07334,0.83046,0.08701,12.63890,2.13109
0.20166,0.68660,0.14352,1.20027,-0.19514,-0.41720,0.76476,4.55491,-0.10744,1.88627,1.15254,-5.16413,0.55403,0.05629,-0.09260,0.82541,3.22483,10.44222,-2.08128
0.21951,0.68615,0.13361,1.21827,-0.16708,-0.48509,0.78087,4.54363,0.08390,0.97152,2.54695,-4.82514,0.55584,0.08531,-0.10580,0.82010,5.56073,1.48989,8.75869
0.23680,0.68725,0.12310,1.22202,-0.11548,-0.54838,0.67870,4.41759,0.33818,-0.32003,4.45429,-4.22937,0.55466,0.11302,-0.11428,0.81640,0.88566,-7.87749,19.01157
0.25323,0.69024,0.11227,1.21053,-0.04411,-0.60209,0.46559,4.22870,0.58604,-1.31622,5.61379,-3.54312,0.54989,0.13898,-0.12003,0.81480,-8.17505,-13.67861,20.34204
0.26875,0.69487,0.10117,1.18642,0.03977,-0.64745,0.19278,4.01271,0.80789,-2.20424,6.34388,-2.92408,0.54216,0.16333,-0.12403,0.81486,-12.89861,-16.34585,20.15099
0.28341,0.70141,0.08974,1.15192,0.12791,-0.68560,-0.10069,3.82859,0.94256,-2.96989,6.35143,-2.38680,0.53201,0.18627,-0.12880,0.81589,-17.09505,-15.41311,17.13232
0.29696,0.70885,0.07814,1.10756,0.21039,-0.71738,-0.37121,3.70828,0.91803,-3.63069,5.73147,-1.95797,0.52065,0.20735,-0.13719,0.81677,-18.25153,-10.35120,5.94547
0.30980,0.71596,0.06672,1.06353,0.27324,-0.73997,-0.59326,3.63255,0.79372,-3.91837,5.08753,-1.74552,0.50887,0.22680,-0.14859,0.81703,-19.86852,-8.37067,-2.78172
0.32144,0.72451,0.05475,1.00974,0.33852,-0.76460,-0.82473,3.56836,0.59326,-3.95678,4.34400,-1.72625,0.49574,0.24396,-0.16286,0.81743,-19.59265,-6.83444,-8.89049
0.33222,0.73333,0.04245,0.95501,0.39343,-0.78895,-1.01659,3.51131,0.40885,-3.85483,3.37725,-1.64420,0.48225,0.26019,-0.17791,0.81737,-17.85186,-4.92541,-11.32798
0.34191,0.74239,0.03003,0.89443,0.44374,-0.81092,-1.14210,3.35272,0.44232,-3.58034,2.52598,-1.38010,0.46870,0.27629,-0.18689,0.81796,-9.69756,-9.19625,0.81701
0.35138,0.75132,0.01761,0.84350,0.47975,-0.82788,-1.14517,3.16257,0.65189,-3.55274,2.17840,-1.12938,0.45648,0.29384,-0.18973,0.81810,1.65069,-12.22378,13.49570
0.35980,0.76056,0.00499,0.78611,0.51248,-0.84381,-1.08612,2.95836,0.93082,-3.66669,1.76730,-0.85832,0.44496,0.31184,-0.18850,0.81807,7.31631,-11.82307,17.62487
0.36817,0.76899,-0.00736,0.74182,0.53120,-0.85339,-1.02005,2.82300,1.09001,-3.85706,1.49366,-0.69492,0.43394,0.32946,-0.18850,0.81708,8.92884,-11.13240,15.72924
0.37491,0.77797,-0.02010,0.68010,0.54920,-0.86588,-0.97554,2.72073,1.12155,-4.10003,1.01449,-0.58696,0.42327,0.34573,-0.19052,0.81548,4.67363,-6.84164,4.52157
0.38157,0.78648,-0.03260,0.63235,0.55753,-0.87170,-0.98046,2.67055,1.01868,-4.06159,0.67842,-0.17227,0.41243,0.36061,-0.19630,0.81322,0.38797,-4.21658,-5.36490
0.38720,0.79480,-0.04481,0.57882,0.56425,-0.87262,-1.04592,2.60623,0.84856,-3.70412,0.41058,-0.00703,0.40099,0.37315,-0.20452,0.81126,-5.63094,-5.70449,-11.12584
0.39205,0.80338,-0.05702,0.52377,0.57141,-0.87321,-1.07343,2.54118,0.77171,-3.07234,0.22669,-0.06270,0.38954,0.38598,-0.21110,0.80915,-4.47405,-4.41640,-6.45852
0.39697,0.81196,-0.06917,0.48241,0.57804,-0.87254,-1.01976,2.49129,0.87222,-2.73454,0.32128,0.05071,0.37819,0.40107,-0.21309,0.80667,3.69815,-3.40940,4.29065
0.40182,0.82072,-0.08146,0.45030,0.58326,-0.87263,-0.94710,2.47421,0.99361,-2.57760,0.33907,0.01226,0.36679,0.41729,-0.21375,0.80353,7.18137,-1.21091,8.93077
0.40588,0.82979,-0.09383,0.41387,0.58829,-0.87356,-0.85410,2.49129,1.12135,-2.67512,0.24888,0.03025,0.35555,0.43465,-0.21329,0.79948,8.08773,1.76889,9.01572
0.40903,0.83870,-0.10614,0.37011,0.59009,-0.87314,-0.78593,2.54071,1.19629,-2.90395,-0.01573,0.18799,0.34404,0.45237,-0.21368,0.79457,5.57855,3.59593,5.32398
0.41217,0.84694,-0.11810,0.33541,0.58839,-0.86999,-0.72641,2.56858,1.20221,-3.07538,-0.14621,0.30272,0.33327,0.46906,-0.21502,0.78910,4.40033,3.35716,0.42026
0.41420,0.85536,-0.12997,0.29043,0.58863,-0.86480,-0.71586,2.60549,1.17667,-3.48254,0.25371,0.63063,0.32181,0.48544,-0.21752,0.78324,3.03895,2.30178,-1.17033
0.41504,0.86382,-0.14136,0.23527,0.59026,-0.85268,-0.88489,2.62560,1.04776,-3.52606,0.13979,1.06142,0.30752,0.49919,-0.22461,0.77832,-10.12082,0.44324,-6.02013
0.41590,0.87218,-0.15255,0.19409,0.59033,-0.84017,-1.03964,2.62169,0.94033,-3.48369,-0.11526,1.06063,0.29273,0.51200,-0.23211,0.77349,-14.99650,-0.63689,-7.35381
0.41574,0.88054,-0.16335,0.14613,0.59035,-0.82415,-1.18436,2.59605,0.85437,-3.41949,0.03781,1.22250,0.27741,0.52383,-0.23986,0.76884,-11.74899,-2.42463,-5.15399
0.41456,0.88902,-0.17366,0.09158,0.59246,-0.80329,-1.35132,2.53000,0.82194,-3.38031,0.04518,1.40573,0.26059,0.53435,-0.24709,0.76519,-10.92099,-4.18123,-0.74294
0.41295,0.89754,-0.18364,0.04091,0.59242,-0.78024,-1.44940,2.42056,0.84192,-3.04311,-0.29273,1.40066,0.24415,0.54400,-0.25237,0.76208,-7.08360,-6.80339,1.98849
0.41148,0.90580,-0.19365,0.00540,0.58931,-0.76379,-1.41601,2.34134,0.90346,-2.88248,-0.57222,1.24322,0.22937,0.55465,-0.25503,0.75810,0.17257,-6.79931,4.46700
0.40925,0.91368,-0.20332,-0.03403,0.58141,-0.74627,-1.28266,2.26191,1.00936,-2.74897,-0.84568,1.21707,0.21620,0.56592,-0.25448,0.75381,9.48191,-4.82279,6.65144
0.40639,0.92118,-0.21278,-0.07511,0.56467,-0.72743,-1.09692,2.19730,1.09834,-2.44697,-1.35297,1.24947,0.20464,0.57758,-0.25236,0.74889,12.42255,-3.12384,5.32856
0.40368,0.92826,-0.22216,-0.10371,0.54665,-0.71260,-0.97085,2.16278,1.12065,-2.43075,-1.62902,1.37716,0.19329,0.58894,-0.25146,0.74334,12.36966,-2.33823,1.82041
0.40014,0.93506,-0.23101,-0.13624,0.52123,-0.69247,-0.89448,2.11094,1.08250,-2.25890,-1.96748,1.69229,0.18259,0.59911,-0.25176,0.73779,7.11267,-2.79538,-2.05043
0.39584,0.94258,-0.23939,-0.16593,0.49298,-0.66788,-0.89439,2.03965,0.96728,-1.92219,-2.19559,2.05937,0.17222,0.60751,-0.25466,0.73241,0.92576,-5.30286,-7.13103
0.39161,0.94957,-0.24734,-0.18818,0.46828,-0.64292,-0.92305,1.95177,0.86412,-1.65247,-2.21470,2.22881,0.16174,0.61473,-0.25820,0.72752,-2.72500,-6.85131,-8.51123
0.38710,0.95515,-0.25431,-0.21317,0.43493,-0.60798,-0.97494,1.83114,0.73487,-1.40472,-2.18614,2.21326,0.15188,0.62018,-0.26305,0.72327,-4.01851,-8.25818,-6.95633
0.38284,0.96016,-0.26107,-0.23122,0.40699,-0.57814,-0.94698,1.74204,0.66044,-1.03597,-2.13106,2.03018,0.14298,0.62628,-0.26619,0.71866,-1.04195,-7.47901,-5.80402
0.37883,0.96512,-0.26794,-0.24155,0.38850,-0.55812,-0.86430,1.70345,0.63035,-0.84410,-1.96861,1.94358,0.13483,0.63352,-0.26774,0.71329,5.29090,-5.72998,-4.54445
0.37436,0.96921,-0.27360,-0.25595,0.35719,-0.52335,-0.67438,1.63818,0.60050,-0.65167,-1.72123,1.95659,0.12988,0.64095,-0.26688,0.70788,10.88597,-3.21230,-3.03476
0.37009,0.97365,-0.27945,-0.26361,0.33738,-0.49970,-0.57033,1.59759,0.56500,-0.56670,-1.66513,2.11182,0.12407,0.64812,-0.26705,0.70231,9.77748,-2.79971,-2.26994
0.36582,0.97783,-0.28476,-0.26912,0.31860,-0.47350,-0.50893,1.52248,0.52161,-0.36318,-1.48661,2.35655,0.11857,0.65405,-0.26770,0.69750,5.68324,-4.68086,-4.13948
