posX, posY, posZ, velX, velY, velZ, angVelX, angVelY, angVelZ, accX, accY, accZ, rotX, rotY, rotZ, rotW, angAccX, angAccY, angAccZ
0.04557,1.19637,-0.45029,-0.08235,0.12354,-0.08837,0.31740,0.21673,-0.05461,-1.09644,1.33445,-0.53223,-0.08157,0.90686,-0.11557,0.39699,7.92484,4.34065,-3.36386
0.04266,1.19945,-0.45290,-0.11539,0.15326,-0.10908,0.50322,0.36985,-0.12214,-1.40174,1.04949,-1.06140,-0.07723,0.91022,-0.10901,0.39198,8.05849,6.85735,-3.04651
0.03817,1.20498,-0.45705,-0.13541,0.17416,-0.12494,0.71139,0.52569,-0.28793,-1.24896,1.47328,-0.98738,-0.06623,0.91626,-0.09831,0.38265,11.86177,10.33371,-9.42974
0.03540,1.20869,-0.45956,-0.14968,0.19465,-0.13572,0.90029,0.62049,-0.42774,-1.30053,1.96708,-0.79202,-0.05632,0.92038,-0.09006,0.37633,15.97464,9.27467,-12.33476
0.03207,1.21324,-0.46236,-0.16907,0.22327,-0.14837,1.04304,0.64198,-0.50660,-1.62470,2.54058,-0.74433,-0.04714,0.92357,-0.08162,0.37166,13.01947,4.37910,-8.94070
0.02798,1.21862,-0.46538,-0.19522,0.25700,-0.16230,1.00546,0.50041,-0.45897,-2.36458,2.39019,-0.53639,-0.04302,0.92402,-0.07681,0.37207,0.96768,-5.67648,2.93724
0.02197,1.22471,-0.46823,-0.24496,0.29423,-0.17085,1.04311,0.18827,-0.25875,-3.57810,2.45727,-1.69665,-0.04227,0.92171,-0.06882,0.37938,-5.39934,-20.29494,6.20626
0.01624,1.23092,-0.47196,-0.27888,0.32512,-0.19059,0.93694,0.33039,-0.17984,-3.01188,3.63774,-3.08579,-0.04231,0.92417,-0.06485,0.37405,4.66186,-14.46713,15.39179
0.00879,1.24009,-0.47749,-0.33187,0.39367,-0.23163,1.23389,0.69176,-0.13792,-3.47129,2.99359,-1.61927,-0.03776,0.93051,-0.04851,0.36108,18.21269,21.25157,9.08824
0.00117,1.24838,-0.48198,-0.37823,0.43803,-0.24948,1.58072,0.93887,-0.31743,-3.38647,3.23405,-0.98882,-0.02464,0.93627,-0.03173,0.34899,23.83457,19.68440,-11.73343
-0.00697,1.25755,-0.48630,-0.42250,0.48620,-0.26113,1.91712,1.11624,-0.47057,-3.15737,3.82928,-0.50162,-0.01030,0.94126,-0.01317,0.33727,24.45916,15.62089,-12.11610
-0.01564,1.26753,-0.49040,-0.46614,0.53764,-0.26727,2.15636,1.16832,-0.51894,-3.23935,3.93991,0.00135,0.00166,0.94457,0.00538,0.32828,20.35747,7.38619,-7.26085
-0.02470,1.27766,-0.49441,-0.50562,0.58006,-0.26998,2.20287,1.07918,-0.43047,-3.46768,3.72542,0.14900,0.00807,0.94597,0.02088,0.32348,8.75921,-3.97949,1.66712
-0.03408,1.28779,-0.49831,-0.54027,0.61227,-0.27081,2.17961,0.95338,-0.29348,-3.55607,3.17439,-0.01166,0.01134,0.94646,0.03514,0.32070,-0.00295,-12.75138,9.61748
-0.04599,1.29982,-0.50229,-0.60261,0.66325,-0.27305,2.27953,0.95961,-0.22779,-3.40096,2.35340,-0.72705,0.01717,0.94767,0.05282,0.31439,3.71334,-4.31949,5.16520
-0.05770,1.31155,-0.50637,-0.65258,0.70239,-0.27642,2.62649,1.32433,-0.47189,-3.10706,2.13306,-0.39446,0.03569,0.95159,0.07555,0.29579,18.59128,21.73708,-10.56583
-0.06911,1.32306,-0.51023,-0.68772,0.72982,-0.27600,2.99191,1.72733,-0.73905,-2.91109,2.28545,0.05433,0.05781,0.95502,0.10026,0.27302,28.30339,33.96205,-18.75827
-0.08139,1.33516,-0.51376,-0.72700,0.75902,-0.27180,3.34283,2.14547,-0.98576,-2.70080,2.14301,0.74069,0.08211,0.95739,0.12663,0.24622,28.83946,35.43720,-16.43206
-0.09398,1.34724,-0.51703,-0.76324,0.78273,-0.26472,3.43633,2.34062,-1.05246,-2.39511,1.75372,1.05137,0.09990,0.95809,0.14822,0.22386,12.94477,20.79174,-5.16191
-0.10674,1.35928,-0.52019,-0.79470,0.80110,-0.25744,3.30150,2.33773,-1.00341,-2.09580,1.23559,0.66988,0.11172,0.95799,0.16395,0.20711,-5.27947,1.47444,3.92348
-0.11968,1.37138,-0.52314,-0.82150,0.81552,-0.24876,3.06841,2.25927,-0.93571,-1.80794,1.00562,0.82355,0.12120,0.95765,0.17591,0.19304,-15.50866,-5.01591,7.07202
-0.13281,1.38374,-0.52565,-0.84620,0.83122,-0.23535,2.86729,2.18406,-0.88345,-1.88758,1.20136,1.04082,0.13054,0.95692,0.18720,0.17949,-15.50360,-6.59509,4.88128
-0.14639,1.39636,-0.52753,-0.87241,0.84722,-0.21555,2.79799,2.20555,-0.86783,-1.96383,1.05123,1.23305,0.14169,0.95553,0.20082,0.16300,-8.69510,-1.39742,4.10097
-0.16050,1.40930,-0.52875,-0.90052,0.86474,-0.19057,2.97280,2.56871,-1.02867,-1.85175,0.99787,1.16932,0.16175,0.95268,0.21925,0.13477,9.57892,19.12673,-6.14110
-0.17443,1.42211,-0.53007,-0.92071,0.87672,-0.17165,3.08318,2.90296,-1.14247,-1.46648,1.05431,2.10324,0.18139,0.94882,0.23639,0.10467,14.21731,33.11850,-7.84867
-0.18871,1.43527,-0.52999,-0.94216,0.89212,-0.13642,3.04068,3.03476,-1.14909,-0.96325,1.07550,2.98225,0.19663,0.94474,0.25012,0.07905,-0.66597,11.96148,1.29253
-0.20269,1.44841,-0.52880,-0.95463,0.90460,-0.09281,2.93597,2.95707,-1.08585,-0.66285,0.84736,3.51768,0.20810,0.94028,0.26277,0.05938,-5.57175,-3.69562,4.29857
-0.21638,1.46141,-0.52760,-0.96058,0.91208,-0.05838,2.83282,2.84889,-1.02956,-0.49952,0.83686,3.47352,0.21871,0.93539,0.27476,0.04153,-9.24454,-9.65524,5.30042
-0.23043,1.47472,-0.52406,-0.97053,0.92279,0.00273,2.69778,2.75538,-0.94326,-0.80993,0.33534,3.02205,0.22748,0.93082,0.28503,0.02409,-8.03141,-8.14939,5.54331
-0.24445,1.48758,-0.52101,-0.97814,0.92602,0.04644,2.71789,2.94785,-0.95829,-0.55511,0.29882,2.86298,0.24125,0.92386,0.29711,-0.00233,0.76048,8.89482,2.28035
-0.25840,1.50053,-0.51816,-0.98225,0.92803,0.07759,2.72560,3.09570,-0.93642,-0.18634,0.20848,3.45597,0.25386,0.91617,0.30878,-0.02917,4.40931,18.59255,1.19597
-0.27233,1.51338,-0.51264,-0.98551,0.92843,0.13996,2.56005,3.06342,-0.75684,0.37076,-0.04642,3.97552,0.25950,0.91106,0.31622,-0.05129,-6.04894,-1.55386,11.09044
-0.28575,1.52611,-0.50679,-0.98008,0.92605,0.19526,2.33948,2.80554,-0.55236,0.73400,-0.24690,4.20128,0.26121,0.90736,0.32269,-0.06578,-13.09478,-17.17108,14.03942
-0.29885,1.53875,-0.50046,-0.97114,0.92239,0.24571,2.18439,2.59491,-0.39643,0.71822,-0.32930,4.07295,0.26290,0.90324,0.32961,-0.08003,-14.33367,-23.27859,14.12758
-0.31132,1.55113,-0.49249,-0.95558,0.91474,0.30746,2.16270,2.53110,-0.33213,1.05404,-0.58929,4.23021,0.26730,0.89685,0.33861,-0.09774,-3.69026,-9.31949,5.62884
-0.32333,1.56314,-0.48349,-0.93713,0.90312,0.36997,2.23951,2.57300,-0.31169,1.34237,-1.03081,4.32100,0.27339,0.88820,0.34959,-0.11893,4.94735,1.52420,1.58370
-0.33470,1.57446,-0.47319,-0.91220,0.88319,0.43935,2.39104,2.69395,-0.33037,1.77670,-1.52491,4.12203,0.28110,0.87702,0.36232,-0.14328,9.40622,7.34438,-0.98869
-0.34489,1.58461,-0.46271,-0.87739,0.85268,0.49919,2.43470,2.70771,-0.35149,2.78387,-2.34848,3.44692,0.28816,0.86643,0.37319,-0.16431,5.55997,4.62883,-1.80682
-0.35454,1.59447,-0.45315,-0.84197,0.82450,0.53444,2.35101,2.59376,-0.37829,3.26888,-2.51624,2.71552,0.29439,0.85753,0.38148,-0.18015,-5.06200,-6.54117,-2.20817
-0.36303,1.60346,-0.44327,-0.79632,0.78890,0.56697,2.15573,2.39322,-0.38247,3.33331,-2.63204,2.10799,0.29932,0.85089,0.38689,-0.19160,-13.61981,-13.79553,-0.86568
-0.37110,1.61190,-0.43358,-0.75236,0.75337,0.59435,1.97867,2.23972,-0.38101,2.94223,-2.23196,1.93602,0.30414,0.84447,0.39140,-0.20291,-14.72549,-12.53086,-0.06369
-0.37906,1.61929,-0.42331,-0.71592,0.70928,0.62569,1.80822,1.99887,-0.26847,1.53037,-3.99371,1.58726,0.30459,0.84000,0.39582,-0.21205,-7.66850,-9.64473,3.34205
-0.38690,1.62699,-0.41335,-0.68283,0.67770,0.64466,1.72775,1.95639,-0.16551,3.00114,-1.69295,0.92151,0.30570,0.83393,0.40009,-0.22593,-9.58079,-14.39994,13.27563
-0.39380,1.63435,-0.40354,-0.64451,0.64669,0.65716,1.52894,1.71213,-0.16943,3.58471,-3.53014,1.15683,0.30783,0.83011,0.40312,-0.23164,-7.81432,-3.46624,-1.93400
-0.39916,1.64047,-0.39358,-0.59136,0.60453,0.66966,1.32151,1.44108,-0.19269,3.11043,-2.30366,0.52565,0.30969,0.82759,0.40556,-0.23389,-16.79136,-22.48521,-0.72694
-0.40439,1.64644,-0.38365,-0.54651,0.56742,0.67818,1.25051,1.40209,-0.25959,2.85860,-2.57782,0.47296,0.31458,0.82168,0.40919,-0.24176,-7.01712,-4.66900,-4.23843
-0.40936,1.65201,-0.37367,-0.50777,0.53190,0.68546,1.23830,1.49497,-0.32472,2.39102,-2.46024,0.51684,0.32103,0.81388,0.41276,-0.25332,-2.36424,4.86262,-3.97264
-0.41418,1.65697,-0.36358,-0.47480,0.49476,0.69283,1.27556,1.65381,-0.38360,2.41745,-2.78158,0.38100,0.32837,0.80434,0.41666,-0.26761,2.27964,11.99308,-3.66990
-0.41835,1.66155,-0.35374,-0.43924,0.45997,0.69493,1.27579,1.71831,-0.41493,2.90176,-2.43715,-0.17035,0.33464,0.79563,0.42020,-0.28006,1.48460,8.38626,-2.76637
-0.42192,1.66589,-0.34445,-0.40221,0.42741,0.68706,1.09808,1.56206,-0.40664,2.88565,-2.53665,-0.76201,0.33872,0.79157,0.42094,-0.28547,-9.65295,-5.69397,0.94952
-0.42544,1.67017,-0.33561,-0.37264,0.40188,0.67501,0.92110,1.39247,-0.37985,2.07401,-1.92039,-1.26854,0.34186,0.78884,0.42097,-0.28922,-16.18734,-17.23354,2.23431
-0.42856,1.67410,-0.32704,-0.34370,0.37683,0.66250,0.85172,1.48108,-0.37132,1.37402,-1.32130,-0.49920,0.34768,0.78275,0.42039,-0.29950,-8.78324,-2.19627,1.44372
-0.43109,1.67772,-0.31722,-0.31141,0.34970,0.66905,1.06957,1.81048,-0.29448,2.18122,-1.74890,0.75196,0.35256,0.77038,0.42337,-0.32090,14.22303,20.38096,5.51509
-0.43338,1.68116,-0.30705,-0.28099,0.32613,0.68064,1.16640,1.85051,-0.28700,2.50039,-1.74664,0.89643,0.35645,0.76056,0.42723,-0.33460,9.01077,6.07112,0.64768
-0.43539,1.68447,-0.29678,-0.25322,0.30688,0.69187,1.26257,1.88452,-0.29016,2.21482,-1.64752,0.90667,0.36025,0.75015,0.43155,-0.34823,6.68986,0.17046,-1.06743
-0.43637,1.68704,-0.28618,-0.21630,0.27915,0.70377,1.30570,1.79223,-0.26303,2.70554,-1.92472,0.48845,0.36198,0.74154,0.43608,-0.35906,4.76000,-1.60821,0.56407
-0.43756,1.68977,-0.27605,-0.19012,0.26068,0.70725,1.23176,1.54582,-0.19346,2.11002,-1.59355,0.06989,0.36118,0.73718,0.43941,-0.36472,-3.88929,-18.05520,2.36530
-0.43872,1.69221,-0.26634,-0.16857,0.24357,0.70561,1.13559,1.31252,-0.08725,1.60597,-1.38141,-0.35454,0.35876,0.73466,0.44164,-0.36949,-6.77327,-22.28020,6.59513
-0.43882,1.69417,-0.25703,-0.13583,0.22258,0.69774,1.04677,1.16331,-0.01453,2.19526,-1.25106,-0.46004,0.35723,0.73175,0.44314,-0.37490,-6.23919,-11.26693,6.06056
-0.43852,1.69593,-0.24771,-0.10350,0.20298,0.69202,1.03220,1.09587,-0.01750,2.24037,-1.38049,-0.46147,0.35742,0.72648,0.44609,-0.38141,-2.26953,-6.41551,-0.04082
-0.43766,1.69737,-0.23866,-0.06978,0.18271,0.68364,1.02389,1.09144,-0.05505,2.47739,-1.59700,-0.72714,0.35915,0.72001,0.44889,-0.38870,0.06792,0.84843,-2.22597
-0.43654,1.69852,-0.22983,-0.03909,0.16208,0.67329,1.00407,1.07456,-0.09728,1.82548,-1.36911,-0.84738,0.36114,0.71372,0.45166,-0.39521,-2.74432,-3.17114,-4.21249
-0.43539,1.69939,-0.22139,-0.01437,0.14176,0.65952,1.01021,1.14223,-0.12082,1.71130,-1.58224,-1.13099,0.36374,0.70600,0.45379,-0.40414,0.79249,5.86544,-1.48558
-0.43411,1.69987,-0.21336,0.00735,0.11987,0.64286,0.93808,1.08835,-0.11134,1.73522,-1.67564,-1.24820,0.36501,0.70123,0.45497,-0.40993,-3.41987,-1.48217,0.91577
-0.43276,1.70021,-0.20544,0.02526,0.10075,0.62769,0.85253,0.99653,-0.12236,1.29547,-1.46888,-1.25814,0.36636,0.69736,0.45632,-0.41381,-6.89845,-7.45687,-0.51672
-0.43107,1.70008,-0.19808,0.04460,0.07867,0.60778,0.82820,1.01788,-0.11237,1.04464,-1.26760,-1.17363,0.36802,0.69173,0.45724,-0.42072,-2.39087,-0.40863,1.02927
-0.42867,1.69904,-0.19157,0.07325,0.04431,0.57651,0.84492,1.03854,-0.12512,0.87262,-1.02635,-1.15482,0.36974,0.68521,0.45911,-0.42778,0.64172,0.18395,-0.69269
-0.42579,1.69926,-0.17685,0.08564,0.02929,0.55649,0.85779,1.07056,-0.11644,0.71537,-0.88342,-1.26629,0.37255,0.67228,0.46227,-0.44222,1.50320,1.97272,0.49800
-0.42409,1.69896,-0.17014,0.09312,0.01873,0.54141,0.87601,1.11736,-0.10565,0.55276,-0.87201,-1.27783,0.37407,0.66505,0.46350,-0.45049,0.73419,2.87642,0.70688
-0.42224,1.69836,-0.16382,0.10112,0.00627,0.52337,0.85821,1.11094,-0.08162,0.79820,-0.97477,-1.39056,0.37502,0.65905,0.46426,-0.45768,0.26253,2.52081,2.21167
-0.42020,1.69749,-0.15795,0.11050,-0.00793,0.50237,0.78085,0.95249,-0.06206,0.64281,-0.87193,-1.33217,0.37458,0.65636,0.46554,-0.46059,-4.43181,-8.22407,0.84492
-0.41825,1.69669,-0.15213,0.11667,-0.01815,0.48517,0.71661,0.77770,-0.03594,0.33269,-0.65838,-1.17884,0.37318,0.65462,0.46724,-0.46249,-5.10113,-13.41131,1.36831
-0.41639,1.69597,-0.14617,0.11998,-0.02504,0.47334,0.68750,0.66973,-0.02236,0.27307,-0.65781,-1.18583,0.37201,0.65202,0.46914,-0.46517,-3.47455,-11.49283,1.38979
-0.41442,1.69492,-0.14093,0.12431,-0.03507,0.45393,0.68416,0.60062,-0.01209,0.06622,-0.56141,-1.24755,0.37073,0.64894,0.47128,-0.46834,-1.27979,-7.12743,0.82785
-0.41247,1.69379,-0.13604,0.12754,-0.04435,0.43337,0.67448,0.62193,-0.01871,0.28540,-0.76539,-1.66344,0.37113,0.64442,0.47246,-0.47304,0.76156,2.19275,0.24295
-0.41044,1.69257,-0.13141,0.13115,-0.05297,0.41314,0.62725,0.61953,-0.03493,0.36459,-0.78020,-1.72823,0.37212,0.64070,0.47315,-0.47661,-3.24351,0.17197,-1.05853
-0.40819,1.69101,-0.12752,0.13718,-0.06478,0.38645,0.57128,0.62617,-0.07416,0.31893,-0.65396,-1.60226,0.37414,0.63684,0.47372,-0.47964,-3.87920,-0.64634,-2.23169
-0.40596,1.68951,-0.12346,0.14193,-0.07323,0.36784,0.57644,0.69470,-0.11894,0.31156,-0.58888,-1.39502,0.37666,0.63086,0.47477,-0.48449,-1.39868,4.13587,-2.89280
-0.40369,1.68793,-0.11942,0.14588,-0.08097,0.35284,0.60369,0.73893,-0.15043,0.45331,-0.64278,-1.16208,0.37854,0.62458,0.47640,-0.48954,2.41226,6.77724,-2.76448
-0.40128,1.68622,-0.11551,0.15112,-0.08892,0.33906,0.62988,0.67167,-0.16747,0.36843,-0.27864,-0.60272,0.37842,0.62014,0.47938,-0.49236,0.57002,-4.51680,-1.36328
-0.39870,1.68468,-0.11121,0.15791,-0.09333,0.33333,0.68132,0.61602,-0.18087,0.73262,-0.34706,-0.28250,0.37770,0.61519,0.48301,-0.49557,3.81798,-2.98182,-0.36842
-0.39547,1.68302,-0.10676,0.17299,-0.09838,0.33039,0.70820,0.49470,-0.25022,0.88856,-0.12721,-0.12793,0.37722,0.61103,0.48827,-0.49592,0.86695,-8.56105,-3.98871
-0.39220,1.68162,-0.10235,0.18554,-0.09881,0.32773,0.73593,0.49370,-0.31133,1.04014,0.10522,-0.20001,0.37834,0.60500,0.49245,-0.49833,2.20038,-0.95575,-5.36485
-0.38854,1.68057,-0.09792,0.20114,-0.09407,0.32594,0.75025,0.47481,-0.36556,1.23200,0.52248,0.00984,0.37940,0.59930,0.49676,-0.50013,0.92284,-0.66810,-4.35141
-0.38436,1.67983,-0.09317,0.22131,-0.08569,0.32903,0.80777,0.45765,-0.44285,1.36789,0.61629,0.38506,0.38034,0.59233,0.50256,-0.50192,2.81806,-0.41839,-4.82323
-0.37996,1.67923,-0.08795,0.24083,-0.07689,0.33859,0.87858,0.37809,-0.50154,1.58327,0.71002,0.99953,0.37967,0.58608,0.50959,-0.50267,4.22078,-3.69926,-4.70953
-0.37546,1.67871,-0.08224,0.25760,-0.06887,0.35344,0.97094,0.26860,-0.54722,1.33222,0.72486,1.48802,0.37750,0.57998,0.51798,-0.50281,6.03475,-9.48818,-5.30958
-0.36904,1.67840,-0.07355,0.30376,-0.05958,0.41567,1.30531,-0.10737,-0.63868,1.86144,-0.29852,2.33264,0.36812,0.57305,0.53459,-0.50031,11.54072,-14.39540,-4.38028
-0.35893,1.67649,-0.05977,0.32809,-0.06334,0.44819,1.40199,-0.43092,-0.72795,1.73059,-0.30789,2.27624,0.35767,0.56317,0.55728,-0.49432,5.97006,-23.69351,-8.60694
-0.35296,1.67533,-0.05183,0.34855,-0.06731,0.47286,1.48879,-0.64487,-0.81828,1.53835,-0.21646,1.94199,0.35035,0.55813,0.57216,-0.48824,6.25339,-20.10692,-8.86799
-0.34634,1.67445,-0.04363,0.37428,-0.06641,0.49627,1.60264,-0.76122,-0.91643,1.36750,0.28307,1.09446,0.34356,0.55083,0.58748,-0.48314,7.91950,-9.08415,-6.69915
-0.33994,1.67400,-0.03603,0.39138,-0.05935,0.50604,1.67398,-0.72390,-0.93663,1.15211,0.78378,0.72095,0.33835,0.54232,0.59972,-0.48139,4.92617,-0.68444,-3.72901
-0.33311,1.67408,-0.02854,0.41107,-0.04637,0.51234,1.75873,-0.61431,-0.91309,1.54286,0.89397,0.28301,0.33339,0.53220,0.61071,-0.48233,7.73732,7.56231,2.41721
-0.32583,1.67415,-0.02109,0.43339,-0.03638,0.51690,1.79417,-0.58031,-0.91483,1.92017,0.43889,0.35815,0.32831,0.52327,0.62190,-0.48129,3.02738,4.13127,1.74019
-0.31797,1.67361,-0.01349,0.45976,-0.03701,0.52296,1.85163,-0.61841,-0.98005,2.13545,-0.40877,0.31454,0.32254,0.51386,0.63527,-0.47786,4.38275,-0.77765,-3.04660
-0.30895,1.67219,-0.00594,0.49807,-0.05055,0.52652,1.89332,-0.74445,-1.16815,2.28702,-0.95460,0.14280,0.31720,0.50432,0.65154,-0.46962,1.70845,-6.39394,-10.47078
-0.30031,1.67059,0.00142,0.52332,-0.06388,0.52683,1.98792,-0.75409,-1.30876,1.76448,-0.95349,0.03577,0.31237,0.49200,0.66740,-0.46361,4.85383,-3.44663,-13.37675
-0.29099,1.66880,0.00829,0.55384,-0.07714,0.52004,2.14079,-0.64268,-1.39554,1.94615,-0.73116,-0.73826,0.30812,0.47615,0.68257,-0.46091,12.01726,6.70220,-3.75787
-0.28174,1.66722,0.01489,0.57650,-0.08469,0.51029,2.20573,-0.57497,-1.45383,1.93190,-0.68452,-0.96569,0.30409,0.46172,0.69662,-0.45723,7.13528,5.99477,-3.74522
-0.27219,1.66544,0.02116,0.59834,-0.09326,0.49815,2.24222,-0.53518,-1.50453,1.88367,-0.84076,-1.09136,0.30004,0.44757,0.71035,-0.45283,4.84718,4.85546,-3.75569
-0.26198,1.66318,0.02690,0.62570,-0.10727,0.48129,2.22310,-0.61515,-1.60247,1.86811,-1.09742,-1.17513,0.29510,0.43540,0.72503,-0.44460,0.88769,-1.02513,-5.11542
-0.25187,1.66059,0.03268,0.64575,-0.12329,0.46763,2.06975,-0.89334,-1.78237,1.51172,-1.41530,-1.09341,0.28884,0.42852,0.74103,-0.42874,-9.47399,-13.75374,-13.77530
-0.24169,1.65756,0.03834,0.66342,-0.14247,0.45551,1.92281,-1.17052,-2.02995,1.03132,-1.26386,-0.62519,0.28297,0.42187,0.75817,-0.40881,-14.81932,-17.77348,-22.07388
-0.23137,1.65426,0.04392,0.67883,-0.16161,0.44414,1.93045,-1.26502,-2.16733,0.74290,-1.25962,-0.70080,0.27685,0.41063,0.77465,-0.39326,-2.26123,-8.51851,-14.30508
-0.22097,1.65068,0.04938,0.69271,-0.18105,0.43364,2.09769,-1.20897,-2.21931,0.87093,-1.20845,-0.68325,0.27039,0.39380,0.79081,-0.38267,9.58714,1.09086,-2.26822
-0.21058,1.64698,0.05482,0.70379,-0.19828,0.42518,2.32342,-1.08740,-2.17844,0.34973,-1.26285,-0.45556,0.26326,0.37410,0.80587,-0.37592,14.89763,4.64279,1.69597
-0.20041,1.64269,0.06032,0.70869,-0.22055,0.41890,2.61540,-0.95749,-2.06516,0.22352,-1.96845,-0.33980,0.25405,0.35135,0.82048,-0.37258,21.62896,5.93986,11.57520
-0.19068,1.63775,0.06600,0.70672,-0.24748,0.41682,2.80758,-0.95568,-2.01862,-0.22553,-2.68062,-0.22882,0.24328,0.33023,0.83536,-0.36599,19.07495,0.24432,8.70308
-0.18177,1.63115,0.07177,0.69363,-0.29279,0.41653,2.92162,-1.13837,-2.10796,-0.81243,-3.14783,0.05167,0.22960,0.31108,0.85214,-0.35267,7.41665,-10.35681,-5.20421
-0.17306,1.62434,0.07774,0.67962,-0.33177,0.41880,2.98021,-1.34001,-2.25589,-1.32335,-3.42364,0.27652,0.21549,0.29247,0.86911,-0.33566,2.89044,-13.42841,-13.78451
-0.16540,1.61578,0.08379,0.65377,-0.38820,0.42198,3.06028,-1.62024,-2.51065,-1.61917,-3.55967,-0.00495,0.19878,0.27275,0.88773,-0.31309,5.15603,-14.89361,-17.34259
-0.15796,1.60704,0.08974,0.63006,-0.43666,0.42319,3.01904,-1.84172,-2.79635,-1.71982,-3.58598,-0.04020,0.18410,0.25504,0.90478,-0.28712,-2.11227,-12.25745,-23.11753
-0.15266,1.59121,0.10127,0.60469,-0.48852,0.42260,3.04436,-2.00941,-3.10080,-2.07882,-3.80895,-0.00038,0.16926,0.23443,0.92163,-0.25884,-0.06254,-7.22469,-24.79023
-0.14654,1.56796,0.11673,0.56668,-0.55412,0.41726,3.16471,-2.18494,-3.37548,-2.88022,-4.34395,-0.61376,0.15188,0.21063,0.93801,-0.22958,8.39121,-8.29346,-17.72092
-0.14245,1.54715,0.12940,0.52608,-0.60508,0.40599,3.24973,-2.33626,-3.57078,-3.86695,-4.23876,-1.29660,0.13366,0.18712,0.95233,-0.20046,7.38178,-10.25904,-18.37671
-0.14329,1.52268,0.14911,0.46806,-0.66377,0.38200,3.35625,-2.48810,-3.82891,-4.46143,-4.27094,-2.10253,0.11446,0.16142,0.96583,-0.16738,6.84876,-9.13921,-19.09601
-0.14692,1.49600,0.16719,0.40124,-0.72706,0.34369,3.66054,-2.59035,-4.02660,-4.98141,-4.40579,-3.21772,0.09333,0.12834,0.97797,-0.13562,17.34598,-10.32273,-11.86960
-0.15101,1.46995,0.18339,0.33953,-0.77373,0.29986,3.91841,-2.65122,-4.22468,-5.30139,-3.46510,-4.07268,0.07289,0.09378,0.98764,-0.10228,24.60736,-7.82563,-15.53703
-0.16325,1.43481,0.19991,0.24437,-0.82453,0.21720,4.31162,-2.73552,-4.35404,-5.74946,-2.09350,-5.24696,0.04954,0.05317,0.99491,-0.06985,20.67797,-7.39505,-7.42536
-0.17435,1.40353,0.21215,0.16563,-0.84951,0.13233,4.74087,-2.89371,-4.18447,-6.07374,-1.11305,-6.58678,0.02138,0.01075,0.99865,-0.04606,22.48766,-18.77695,6.94690
-0.19176,1.36830,0.22209,0.07269,-0.86000,0.01162,5.34782,-3.31474,-3.65540,-5.94410,0.28331,-8.34806,-0.01887,-0.03776,0.99852,-0.03421,22.89293,-42.42666,25.86372
-0.20798,1.33878,0.22610,0.00433,-0.84793,-0.09721,5.70641,-3.70993,-3.21520,-5.61367,1.88794,-9.93987,-0.05995,-0.08258,0.99452,-0.02268,16.10534,-51.45435,26.87530
-0.23047,1.30724,0.22771,-0.07130,-0.80433,-0.24094,5.97006,-4.21995,-2.79198,-5.06977,4.46376,-10.81920,-0.10706,-0.12626,0.98611,-0.01342,4.88229,-48.71391,17.81985
-0.26162,1.27841,0.23556,-0.13473,-0.72352,-0.38802,6.02131,-4.76081,-2.46716,-3.94173,7.17490,-10.53968,-0.15717,-0.16439,0.97379,-0.00386,-4.33267,-46.10992,6.24683
-0.29950,1.25147,0.24019,-0.18720,-0.59027,-0.54482,5.79108,-5.44185,-2.14023,-2.73632,9.72976,-9.55374,-0.21372,-0.19327,0.95758,0.00279,-21.34052,-42.15945,-3.18880
-0.33429,1.23100,0.24118,-0.21435,-0.44129,-0.67307,5.41858,-6.08444,-1.89086,-1.29275,11.86188,-9.12994,-0.27191,-0.21568,0.93781,0.00829,-32.74302,-43.65590,-10.84360
-0.36997,1.21550,0.23882,-0.22272,-0.26290,-0.79547,4.92735,-6.72496,-1.72115,0.03784,13.86541,-8.62292,-0.33275,-0.23116,0.91416,0.01262,-36.01937,-40.26477,-18.51784
-0.40609,1.20571,0.23212,-0.20937,-0.05948,-0.90999,4.35643,-7.33099,-1.64417,1.99095,15.36443,-7.86977,-0.39555,-0.24008,0.88636,0.01632,-40.48950,-39.13885,-25.37326
-0.43691,1.20156,0.22265,-0.18022,0.12776,-0.99285,3.83601,-7.63681,-1.75647,3.60165,16.34611,-6.42399,-0.45225,-0.24515,0.85718,0.02468,-34.71781,-24.50497,-33.36720
-0.47133,1.20220,0.21273,-0.12769,0.35714,-1.06479,3.00587,-7.79121,-2.07968,4.49613,16.85918,-4.54954,-0.50599,-0.23419,0.82934,0.03648,-39.12159,3.98870,-50.67030
-0.50759,1.20947,0.20109,-0.04072,0.62841,-1.12786,2.06603,-7.94160,-2.49922,6.39912,17.57975,-3.49505,-0.55994,-0.21255,0.79932,0.04870,-35.21864,6.10646,-53.15697
-0.53129,1.22251,0.16502,0.06765,0.87803,-1.17398,1.14286,-8.16499,-2.81320,8.96576,19.01235,-3.24282,-0.61435,-0.18534,0.76493,0.05565,-40.67094,0.16949,-54.95394
-0.54807,1.24103,0.12997,0.19188,1.10678,-1.21150,0.19596,-8.49769,-3.00595,11.21766,20.17443,-3.07164,-0.66972,-0.15147,0.72491,0.05518,-52.39593,-6.42015,-57.87079
-0.56366,1.26629,0.08979,0.37269,1.38311,-1.24752,-1.14629,-9.02162,-3.27127,14.21340,20.10673,-2.10968,-0.72876,-0.09768,0.67627,0.04511,-69.89316,-21.68689,-68.56889
-0.57524,1.29628,0.04862,0.58060,1.65282,-1.26696,-2.60898,-9.35249,-3.83052,16.33162,19.19322,-0.81462,-0.78052,-0.02679,0.62354,0.03563,-69.99282,-18.37492,-87.95116
-0.58202,1.33193,0.00675,0.81355,1.91809,-1.27536,-3.81590,-9.13092,-4.85173,19.07676,18.74041,-0.29440,-0.81553,0.05603,0.57459,0.04023,-33.47812,1.28338,-110.54640
-0.58151,1.37451,-0.03585,1.10288,2.19021,-1.28654,-4.45986,-8.39869,-6.14095,24.47864,19.88787,-0.71727,-0.83267,0.14127,0.53179,0.06247,22.50154,18.72077,-111.38050
-0.57082,1.42119,-0.07573,1.41027,2.42238,-1.30791,-4.38845,-8.00533,-7.43158,25.24773,16.17314,-3.58401,-0.84451,0.21825,0.47848,0.10113,64.81528,26.19709,-108.63680
-0.54717,1.47796,-0.12264,1.95843,2.72628,-1.30832,-4.41626,-6.74363,-8.81671,42.14891,21.77216,1.44723,-0.82952,0.30604,0.44500,0.14213,62.13346,32.62473,-60.58942
-0.50626,1.54148,-0.16437,2.65797,3.00315,-1.27332,-3.77156,-5.58120,-10.72759,47.43074,13.83941,4.08163,-0.79448,0.39892,0.40673,0.21033,105.56800,-12.76772,-105.97800
-0.45387,1.60069,-0.19671,3.26344,3.13963,-1.21200,-3.01506,-5.05087,-12.05892,53.32158,8.07809,5.87837,-0.75495,0.47728,0.35510,0.27598,111.13120,-45.68227,-82.28242
-0.34508,1.67085,-0.24069,5.22832,3.05421,-0.79722,-2.53653,-4.11851,-15.76842,75.90423,-17.99841,22.88078,-0.65580,0.60088,0.28151,0.36003,39.26786,-3.56685,-122.92060
-0.16088,1.75099,-0.26299,5.99558,2.80563,-0.52828,-2.25848,-3.54162,-17.41698,78.00549,-33.69336,30.73446,-0.48578,0.74428,0.13226,0.43883,61.24534,-24.19915,-140.10330
-0.00967,1.75653,-0.25821,7.20770,2.03762,0.05928,-0.56580,-3.18398,-19.35872,72.48859,-65.48552,47.53946,-0.32818,0.79384,0.05898,0.50857,57.23558,-97.56955,-116.00410
0.13633,1.73596,-0.23207,7.99795,1.13380,0.68078,2.09157,-3.51940,-20.31641,58.63577,-89.16031,59.78906,-0.16563,0.78942,0.00294,0.59108,23.15293,-192.82620,-65.33920
0.27567,1.67687,-0.17600,8.55090,-0.09378,1.44219,4.45994,-3.44635,-21.38358,35.09145,-118.19430,65.80081,0.02390,0.76280,-0.04563,0.64458,-23.49245,-214.32040,-119.38200
0.37938,1.53186,-0.06889,8.73209,-2.29016,2.54533,8.16898,-0.71637,-22.79050,-9.99228,-159.54400,65.16853,0.28080,0.72769,-0.02276,0.62538,153.96300,-213.02310,-85.58109
0.43352,1.33660,0.03021,8.16922,-4.73114,3.34113,13.36053,2.08856,-24.35937,-74.54613,-193.71920,42.18305,0.57198,0.61974,0.02793,0.53665,169.57580,-259.07130,-247.85150
0.44608,1.13612,0.09964,7.07976,-6.68025,3.63182,19.16143,4.48313,-24.07368,-140.43600,-195.58240,9.09914,0.80389,0.44173,0.12069,0.37958,160.96710,-261.00910,-404.97270
0.25547,0.85099,0.11786,3.65298,-9.78116,3.22517,34.26002,4.03026,-18.48746,-229.56010,-140.47380,-63.10257,0.90349,0.00514,0.42239,0.07256,233.54130,-83.92563,-876.48720
0.04793,0.67490,0.06038,0.25902,-11.05226,1.71469,42.19850,-4.84755,-14.40825,-239.49610,-28.35819,-137.36500,0.71715,-0.45461,0.51390,-0.12223,575.65170,488.26520,-645.01940
-0.15391,0.63466,-0.08503,-2.78721,-10.11563,-0.78048,35.11573,-12.24037,-15.80520,-134.29990,122.96860,-134.03850,0.56712,-0.66597,0.48324,-0.03658,158.87700,672.03850,-16.16658
-0.24990,0.64099,-0.18451,-3.69146,-8.35005,-1.95274,26.22501,-8.64344,-16.68502,-30.52607,155.46770,-57.77515,0.59877,-0.69334,0.39725,0.05419,-113.91750,568.87920,540.31950
-0.29428,0.69306,-0.25900,-3.66775,-6.45896,-2.20671,19.36027,-4.82640,-13.90140,33.56277,120.76330,13.09848,0.65582,-0.65155,0.36533,0.10913,-298.00820,262.75610,611.84530
-0.30067,0.74288,-0.29537,-3.18960,-5.19398,-1.81214,15.86028,-6.92308,-8.84971,44.59842,70.00907,43.12737,0.61124,-0.63722,0.46627,0.05418,-403.14750,-22.04422,37.25447
-0.01936,0.73076,-0.22973,-2.75401,-4.55776,-1.10719,9.37729,-11.55036,-4.18306,17.51795,18.35867,51.38847,0.47813,-0.56308,0.67265,0.04333,-535.09440,-267.02220,-251.49230
0.23174,0.68055,-0.13522,-2.64572,-4.27730,-0.44089,2.84859,-10.10672,-2.75883,-10.68729,20.29189,37.07071,0.43200,-0.46590,0.75891,0.14271,-438.66690,60.28685,-292.92050
0.31140,0.64433,-0.06728,-2.83318,-3.95866,0.02158,-0.92743,-3.74487,-3.50431,-24.79608,30.85568,25.16759,0.50699,-0.39071,0.70622,0.30260,-292.46250,491.63560,-73.01239
0.30945,0.62507,-0.02409,-3.14119,-3.48540,0.29640,-3.10413,1.62131,-4.69404,-17.25506,40.12608,14.90986,0.56722,-0.33038,0.60412,0.45183,-45.39526,439.58490,-260.89120
0.27756,0.61394,-0.00170,-3.36709,-2.97990,0.39494,-2.94374,4.23398,-6.02914,-8.20743,37.85785,6.66151,0.58970,-0.32888,0.50395,0.53863,54.21519,204.07860,-147.31710
0.24033,0.61448,0.01338,-3.43338,-2.40211,0.44617,-2.34602,4.10393,-6.81925,4.94703,36.04881,3.39005,0.57262,-0.35719,0.45243,0.58295,17.57334,-6.63842,-78.84451
0.20351,0.60880,0.02391,-3.35255,-2.02279,0.47259,-2.18613,2.94466,-6.79506,10.99747,28.55317,1.97249,0.54016,-0.38075,0.43979,0.60815,-15.03977,-87.97462,12.87401
0.20072,0.62483,0.03776,-2.85148,-1.43004,0.52995,-3.17662,0.14460,-4.68082,21.98163,14.67974,0.10532,0.48638,-0.37854,0.50660,0.60291,-77.59743,-66.33926,117.36910
0.14560,0.59869,0.05287,-2.51011,-1.24136,0.52649,-3.28482,-0.26628,-2.91690,19.58385,11.96088,-2.18821,0.45101,-0.35858,0.52796,0.62392,-27.08486,-7.08532,119.31500
0.12435,0.59038,0.05955,-2.31801,-1.11777,0.51277,-3.04910,-0.15761,-2.09640,17.85684,13.36116,-1.74988,0.44748,-0.34441,0.53658,0.62707,19.73750,26.73068,96.44385
0.11311,0.59474,0.06485,-2.02821,-0.84269,0.48496,-2.84489,-0.03343,-1.43298,14.03467,15.82261,-1.89705,0.44500,-0.32976,0.54469,0.62973,11.46943,11.87195,38.95132
0.09598,0.59616,0.06977,-1.87386,-0.65938,0.45917,-2.65106,0.20147,-1.36038,11.19848,14.34153,-2.58225,0.43875,-0.32135,0.54023,0.64218,12.83047,15.75134,12.56523
0.07921,0.59860,0.07408,-1.74622,-0.50162,0.43050,-2.39171,0.50906,-1.43310,10.06993,12.19821,-2.52820,0.43543,-0.31467,0.52922,0.65675,23.26903,20.53533,-9.86688
0.06912,0.60682,0.07630,-1.55286,-0.29238,0.37736,-1.82124,1.04697,-1.50303,9.15632,9.04173,-2.77908,0.44511,-0.30871,0.50888,0.66904,31.30121,25.70576,-8.94387
0.05533,0.60979,0.07920,-1.44742,-0.19355,0.34393,-1.50827,1.13194,-1.50792,8.89043,7.57314,-2.37152,0.44553,-0.30623,0.49742,0.67846,31.30433,12.25790,-7.03167
0.04505,0.61519,0.08099,-1.31154,-0.07957,0.30107,-1.20081,0.95305,-1.43193,8.12277,6.62830,-2.75361,0.44377,-0.30877,0.49127,0.68292,17.79437,-10.55843,5.26258
0.03427,0.62034,0.08223,-1.20800,0.00825,0.26183,-0.98925,0.52133,-1.41500,7.12769,5.73087,-1.98633,0.43581,-0.31757,0.48914,0.68554,17.35599,-24.61753,3.25599
0.02444,0.62625,0.08384,-1.10962,0.08959,0.23580,-1.07297,-0.18888,-1.35622,7.51786,5.40739,-0.91087,0.41609,-0.32949,0.49623,0.68707,-4.39806,-47.74379,4.42264
0.01447,0.63134,0.08638,-1.03422,0.14255,0.22706,-1.25234,-0.67627,-1.24169,7.52423,4.92529,-0.49067,0.39534,-0.33672,0.50503,0.68940,-20.84821,-50.86333,13.58613
0.00935,0.63845,0.08937,-0.90647,0.20876,0.22912,-1.45349,-1.09974,-1.07742,7.92545,3.34347,0.78710,0.37288,-0.34262,0.51661,0.69043,-17.29459,-31.03550,11.58265
0.00521,0.64438,0.09364,-0.78780,0.24650,0.24804,-1.52419,-1.05065,-0.91439,8.30537,2.22614,1.70942,0.36022,-0.34057,0.52177,0.69426,-9.12367,-1.20129,11.41055
0.00550,0.64795,0.10063,-0.62960,0.24526,0.30034,-1.95022,-1.05213,-0.27933,22.63355,-4.04377,10.55245,0.34411,-0.32543,0.54302,0.69340,-4.98819,12.36685,11.96904
0.02340,0.64561,0.11713,-0.26008,0.16115,0.47348,-2.23177,-0.10310,1.13008,15.43363,-5.21233,8.74174,0.35601,-0.27436,0.57380,0.68464,-51.57822,38.30637,116.82990
0.03308,0.64374,0.13246,-0.07485,0.10108,0.59671,-1.13264,2.18706,0.69335,9.18751,-1.19513,4.25626,0.41157,-0.23391,0.52941,0.70400,46.34656,170.60990,-27.58615
0.03886,0.64634,0.14286,0.01938,0.11746,0.62559,-0.20768,3.47828,0.03345,7.52401,3.18633,1.83550,0.45430,-0.21128,0.48135,0.71922,83.34354,134.14810,-88.45528
0.04457,0.65429,0.15021,0.09523,0.20020,0.60950,-0.06397,4.09099,-0.59633,4.20680,5.12994,-1.27030,0.47251,-0.18868,0.44246,0.73849,3.54135,45.12154,-43.43826
0.04891,0.66183,0.15636,0.13854,0.26195,0.57917,-0.10308,4.26421,-1.09112,2.94249,3.50704,-2.44924,0.48062,-0.17115,0.41055,0.75575,-14.08108,17.36138,-32.72743
0.05403,0.66863,0.16110,0.18588,0.30215,0.53380,-0.21584,4.14230,-1.44617,4.22378,1.56221,-2.81529,0.48287,-0.15850,0.38408,0.77084,-11.95560,-1.83821,-26.18972
0.06319,0.67461,0.16257,0.29775,0.30978,0.44550,-0.76717,3.49243,-0.97780,4.81321,-1.00882,-3.84561,0.47289,-0.14156,0.38707,0.77879,-20.03508,-24.73101,30.26490
0.07698,0.68154,0.17050,0.37761,0.28113,0.38349,-0.75575,3.42956,-0.72804,4.62500,-2.13336,-4.38565,0.48192,-0.10358,0.36249,0.79096,0.80978,-7.00507,20.10196
0.08703,0.68317,0.17150,0.44793,0.24634,0.32264,-0.50040,3.60541,-0.70948,4.86384,-2.49289,-4.68555,0.49480,-0.08386,0.34343,0.79385,16.55654,8.72323,-0.47441
0.09734,0.68464,0.17185,0.50693,0.21711,0.26513,-0.24322,3.81585,-0.76917,4.78561,-2.41991,-4.90299,0.50925,-0.06399,0.32042,0.79618,21.03973,15.90571,-9.79014
0.10922,0.68509,0.16980,0.57662,0.18132,0.18516,0.02492,4.00764,-0.83669,4.18781,-2.15752,-5.00391,0.52507,-0.04446,0.29579,0.79677,16.39437,12.69797,-10.59412
0.12056,0.68579,0.16733,0.62655,0.15734,0.11450,0.16118,4.05326,-0.82542,3.50955,-1.31627,-4.95136,0.53724,-0.02564,0.27525,0.79684,11.74147,4.92109,-4.40074
0.13202,0.68741,0.16392,0.66756,0.15127,0.04394,0.15914,3.96517,-0.75869,2.82651,0.24493,-4.91877,0.54499,-0.00772,0.25881,0.79746,3.95565,-4.12264,3.54126
0.14289,0.69093,0.16051,0.69592,0.16299,-0.01371,0.03161,3.83952,-0.72106,2.32253,1.13741,-4.50287,0.54824,0.00984,0.24334,0.80008,-6.50620,-9.81738,5.46130
0.15397,0.69617,0.15559,0.72706,0.18866,-0.08280,-0.20209,3.68528,-0.66022,1.98752,1.60066,-4.20088,0.54709,0.02786,0.23000,0.80437,-13.30304,-9.81957,8.17330
0.16544,0.70137,0.15053,0.75324,0.21375,-0.14117,-0.41306,3.56357,-0.60774,2.19672,1.70430,-4.31105,0.54509,0.04620,0.21628,0.80868,-13.92002,-7.51102,7.03078
0.17774,0.70644,0.14427,0.78540,0.23798,-0.20358,-0.58854,3.47328,-0.43819,2.79608,1.50227,-4.82273,0.54272,0.06692,0.20580,0.81156,-11.61484,-7.02713,12.60582
0.19061,0.71119,0.13734,0.81783,0.25337,-0.26246,-0.64338,3.46713,-0.23444,2.81726,1.05926,-5.27080,0.54286,0.08990,0.19590,0.81169,-3.96208,-2.07676,18.77498
0.20464,0.71580,0.12851,0.85731,0.26464,-0.33509,-0.56330,3.56921,-0.06258,2.73053,0.90720,-5.27843,0.54689,0.11505,0.18402,0.80859,6.73736,5.61807,12.35827
0.21916,0.72121,0.11807,0.90010,0.28619,-0.41678,-0.43946,3.85438,-0.02561,2.45631,1.99501,-4.88070,0.55350,0.14333,0.16525,0.80361,10.28204,16.22352,1.50266
0.23374,0.72827,0.10709,0.93620,0.32823,-0.49278,-0.47417,4.20764,-0.14380,2.15834,3.07861,-4.47279,0.55648,0.17296,0.13960,0.80058,-2.02917,22.05227,-7.40389
