posX, posY, posZ, velX, velY, velZ, angVelX, angVelY, angVelZ, accX, accY, accZ, rotX, rotY, rotZ, rotW, angAccX, angAccY, angAccZ
0.27891,1.01717,-0.40864,-0.45692,0.50683,-0.44592,0.12206,1.04209,0.78357,-0.56370,1.80196,0.76012,-0.00486,0.76099,-0.28587,0.58236,29.07713,-4.55136,-8.62413
0.27213,1.02601,-0.41504,-0.46664,0.53366,-0.44175,0.33806,0.97564,0.76586,-1.03119,2.38265,0.21692,-0.00506,0.76628,-0.27689,0.57976,18.58538,-4.78508,-4.73543
0.26444,1.03557,-0.42167,-0.48834,0.56809,-0.44331,0.44485,0.95048,0.83311,-2.00252,2.81246,-0.12420,-0.00888,0.77132,-0.26791,0.57724,9.23557,-2.21960,2.21650
0.25622,1.04578,-0.42855,-0.51369,0.60519,-0.44749,0.60012,0.96878,0.92630,-2.20027,3.19722,-0.40689,-0.01280,0.77760,-0.25625,0.57403,9.06057,0.06538,7.21090
0.24749,1.05704,-0.43571,-0.53971,0.64804,-0.45441,0.83263,1.03254,1.00819,-2.20146,3.69714,-0.54780,-0.01518,0.78578,-0.24122,0.56933,18.06524,5.10042,6.43507
0.23780,1.07000,-0.44323,-0.57441,0.70921,-0.46480,1.06634,1.12288,1.12186,-2.23693,4.01288,-0.57303,-0.01815,0.79485,-0.22371,0.56378,17.28374,6.28784,5.72445
0.22802,1.08284,-0.45126,-0.60517,0.75901,-0.47916,1.04440,1.21278,1.23078,-2.37305,3.68842,-0.89757,-0.02598,0.80213,-0.21147,0.55785,4.53574,6.85004,7.84436
0.21734,1.09645,-0.45991,-0.64185,0.80842,-0.50139,0.76489,1.27969,1.38725,-2.42224,2.87024,-1.54982,-0.04078,0.80691,-0.20487,0.55250,-16.20756,1.88680,11.72510
0.20609,1.10999,-0.46945,-0.68192,0.85071,-0.53156,0.67233,1.44964,1.46400,-2.71125,2.05865,-2.11067,-0.05274,0.81453,-0.19578,0.54354,-10.30530,7.49919,8.02681
0.19442,1.12338,-0.47929,-0.72083,0.88256,-0.56041,0.89872,1.71617,1.40141,-2.94213,1.85016,-2.02949,-0.05679,0.82647,-0.18096,0.53008,7.44493,18.04369,-1.71341
0.18219,1.13718,-0.48871,-0.75591,0.90864,-0.57998,1.24991,1.96719,1.27187,-3.00936,2.05395,-1.22298,-0.05559,0.84007,-0.16257,0.51454,23.29847,25.14927,-10.83734
0.16957,1.15113,-0.49817,-0.79228,0.93649,-0.59242,1.69664,2.18777,1.08950,-2.50659,1.74018,-0.30786,-0.04907,0.85457,-0.14068,0.49751,27.60679,21.02651,-14.26313
0.15684,1.16517,-0.50718,-0.82382,0.96146,-0.59462,2.22684,2.37002,0.78840,-1.92635,1.44605,0.42038,-0.03521,0.86927,-0.11649,0.47912,31.18544,16.92709,-21.23478
0.14414,1.17924,-0.51541,-0.84420,0.97538,-0.58950,2.44611,2.42279,0.58028,-1.78659,1.35741,0.87287,-0.02509,0.88064,-0.09713,0.46304,21.00809,12.72196,-21.89013
0.13113,1.19324,-0.52347,-0.86840,0.99087,-0.58010,2.60231,2.43312,0.33956,-1.52792,0.97799,0.63662,-0.01301,0.89074,-0.07946,0.44732,6.87223,2.64633,-15.04463
0.11783,1.20773,-0.53134,-0.89051,1.00836,-0.56951,2.85010,2.53020,0.06421,-1.87089,1.30190,1.01082,0.00295,0.90167,-0.05943,0.42831,10.18003,8.54588,-19.64985
0.10368,1.22292,-0.53806,-0.92029,1.03104,-0.54701,3.31488,2.69313,-0.26071,-2.44325,1.56978,1.93558,0.02589,0.91303,-0.03316,0.40573,23.49307,14.69577,-23.51727
0.08900,1.23882,-0.54366,-0.95402,1.06255,-0.51068,4.05182,2.94319,-0.67106,-2.56649,2.44619,3.09174,0.05848,0.92404,0.00186,0.37780,43.25395,22.94341,-32.24386
0.07401,1.25538,-0.54835,-0.98292,1.09455,-0.46906,4.71993,3.16622,-1.01884,-2.45143,2.94206,3.99347,0.09313,0.93219,0.03969,0.34753,52.50253,26.44338,-35.33040
0.05811,1.27278,-0.55114,-1.02073,1.13609,-0.40796,5.16405,3.29919,-1.25609,-2.20372,3.32869,4.63109,0.12547,0.93683,0.07592,0.31757,33.59868,17.37327,-22.97698
0.04256,1.28964,-0.55436,-1.04594,1.16287,-0.36437,4.87448,3.06839,-1.11049,-2.03500,2.70583,4.78431,0.13899,0.93860,0.09758,0.30031,-3.80766,-8.01994,-0.14691
0.02645,1.30645,-0.55647,-1.07315,1.18353,-0.31138,4.13155,2.52023,-0.72679,-1.89918,1.35974,4.13996,0.13730,0.93888,0.10733,0.29688,-49.06129,-41.58340,24.37188
0.01013,1.32379,-0.55626,-1.09813,1.20551,-0.23670,3.61341,1.97903,-0.47782,-1.49508,0.42562,3.64308,0.13790,0.93760,0.11874,0.29630,-34.87287,-37.29042,14.27139
-0.00562,1.34052,-0.55656,-1.10959,1.21402,-0.18421,3.78388,2.05225,-0.71429,-1.05858,0.49757,3.42955,0.15901,0.93679,0.14142,0.27775,-0.82557,-9.50969,-11.27903
-0.02131,1.35786,-0.55510,-1.11784,1.23096,-0.11448,4.49666,2.65671,-1.16826,-0.42883,1.06522,4.45570,0.19505,0.93463,0.17629,0.23946,43.61246,41.43728,-23.15814
-0.03697,1.37510,-0.55314,-1.12334,1.24419,-0.05170,4.93962,3.07615,-1.44908,-0.32123,1.27501,5.31664,0.22707,0.92958,0.20823,0.20239,36.02285,41.86968,-21.91872
-0.05311,1.39206,-0.55012,-1.13588,1.25371,0.01917,5.01029,3.25561,-1.46580,-0.91157,0.52810,5.07095,0.24954,0.92398,0.23427,0.17060,10.79226,13.11751,-1.12681
-0.06964,1.40930,-0.54680,-1.14878,1.25689,0.07346,4.85307,3.26084,-1.34464,-0.94203,0.43453,4.77318,0.26536,0.91857,0.25536,0.14357,-8.05874,1.35457,8.41892
-0.08610,1.42604,-0.54252,-1.16012,1.25894,0.13370,4.61991,3.23529,-1.13848,-0.69096,-0.00812,4.35888,0.27654,0.91365,0.27384,0.11743,-13.38429,-5.18604,17.80368
-0.10236,1.44243,-0.53785,-1.16430,1.25344,0.18831,4.46485,3.25282,-1.00242,-0.30915,-0.73682,3.46987,0.28855,0.90736,0.29213,0.08997,-11.67316,-4.66850,13.63265
-0.11840,1.45848,-0.53277,-1.16273,1.23804,0.23293,4.43836,3.46161,-1.00457,0.18772,-1.38770,2.79483,0.30523,0.89849,0.31046,0.05634,-0.73117,11.90579,4.73706
-0.13407,1.47415,-0.52797,-1.15683,1.21813,0.25984,4.27940,3.59891,-0.97537,0.81140,-2.08595,2.29085,0.31986,0.88981,0.32455,0.02430,-3.65852,14.15970,7.59144
-0.14893,1.48853,-0.52307,-1.13844,1.18217,0.28361,3.79096,3.69073,-0.94454,1.56331,-2.56760,1.56477,0.33275,0.88417,0.32789,-0.00422,-25.78491,7.39491,10.83260
-0.16316,1.50245,-0.51821,-1.11389,1.14712,0.30201,3.29953,3.69714,-0.92190,1.89235,-2.59629,1.53699,0.34494,0.87879,0.32846,-0.02942,-34.14952,1.70330,10.80398
-0.17713,1.51509,-0.51385,-1.09120,1.11393,0.32027,2.91696,3.69559,-0.89846,1.91488,-2.50445,2.00809,0.35682,0.87275,0.32871,-0.05419,-32.54918,0.11213,10.80582
-0.19075,1.52753,-0.50848,-1.06591,1.08299,0.34957,2.66269,3.74594,-0.87620,2.31708,-2.21745,3.21602,0.36901,0.86536,0.32928,-0.08100,-24.14045,3.83365,9.72794
-0.20264,1.53836,-0.49946,-1.01785,1.03500,0.43165,2.41839,3.58011,-0.79185,2.66186,-2.39730,5.18011,0.37744,0.85889,0.33083,-0.10196,-10.82565,-8.17819,5.75808
-0.21497,1.54995,-0.49022,-0.98748,1.00253,0.49427,2.30864,3.35982,-0.71474,2.76341,-2.78299,5.70102,0.38452,0.85129,0.33581,-0.12116,-9.76184,-17.02656,6.71448
-0.22681,1.56091,-0.47970,-0.95509,0.96663,0.56038,2.24756,3.06272,-0.64250,2.96491,-2.93058,5.67245,0.38988,0.84359,0.34287,-0.13708,-5.82670,-21.26388,2.55088
-0.23730,1.57072,-0.46712,-0.91018,0.91813,0.63994,2.11437,2.60115,-0.47432,2.97812,-3.15911,4.54362,0.38981,0.83902,0.35016,-0.14656,-7.48807,-31.27000,7.79923
-0.24714,1.58009,-0.45508,-0.86510,0.87228,0.69488,2.03089,2.29715,-0.42842,3.10822,-3.26170,3.48819,0.39260,0.83279,0.35725,-0.15715,-7.91546,-24.60682,3.44416
-0.25722,1.58975,-0.44360,-0.83369,0.83884,0.72586,2.01083,2.14963,-0.41879,3.00197,-3.27274,2.79353,0.39678,0.82498,0.36452,-0.17056,-3.56094,-17.72194,-1.07827
-0.26558,1.59751,-0.43127,-0.78447,0.78512,0.76228,1.92698,2.00521,-0.36375,3.27191,-3.38645,2.05958,0.39941,0.81862,0.37002,-0.18281,-3.58181,-8.87066,2.65804
-0.27338,1.60477,-0.41915,-0.73534,0.73437,0.78977,1.73168,1.71644,-0.24268,3.19042,-3.24787,1.71330,0.39867,0.81567,0.37385,-0.18968,-10.04256,-15.61101,5.47573
-0.28122,1.61187,-0.40712,-0.69673,0.69014,0.80952,1.51741,1.43131,-0.14989,2.33056,-2.83131,1.27161,0.39757,0.81382,0.37674,-0.19416,-17.14119,-24.15523,7.85197
-0.28914,1.61921,-0.39495,-0.66924,0.65762,0.82479,1.51386,1.38283,-0.11658,1.70335,-2.19645,1.03758,0.39859,0.80826,0.38189,-0.20496,-7.35351,-11.99743,3.14187
-0.29675,1.62595,-0.38279,-0.64253,0.62443,0.83783,1.67663,1.55341,-0.14755,1.64577,-2.06930,0.64211,0.40252,0.79811,0.38896,-0.22295,9.56319,8.06533,-0.69888
-0.30414,1.63283,-0.37094,-0.61858,0.60000,0.84292,1.86101,1.82752,-0.21857,2.01670,-1.88997,0.25213,0.40889,0.78499,0.39571,-0.24498,14.53618,20.13940,-4.46814
-0.31057,1.63944,-0.35908,-0.58713,0.57519,0.84494,2.05236,2.15729,-0.30285,2.43493,-1.80214,0.14358,0.41685,0.76915,0.40195,-0.27033,14.64256,25.64180,-5.23672
-0.31630,1.64564,-0.34729,-0.55161,0.54890,0.84530,2.07604,2.28745,-0.27014,2.61801,-1.90241,0.03911,0.42116,0.75702,0.40573,-0.29142,5.58034,12.13994,0.60127
-0.32187,1.65182,-0.33563,-0.52067,0.52749,0.84373,1.89419,2.15327,-0.13935,2.48437,-1.64566,-0.14387,0.42117,0.75129,0.40668,-0.30460,-9.48336,-7.17097,9.66835
-0.32659,1.65753,-0.32408,-0.48281,0.50303,0.84071,1.66084,1.95623,0.00883,2.34384,-1.49026,-0.17452,0.41964,0.74824,0.40620,-0.31470,-14.33937,-14.97282,10.21133
-0.33093,1.66297,-0.31246,-0.44661,0.47926,0.83951,1.54366,1.88027,0.08417,2.70353,-1.75631,-0.03536,0.41961,0.74268,0.40655,-0.32723,-9.11296,-7.67025,7.51830
-0.33438,1.66786,-0.30067,-0.40486,0.45247,0.84155,1.47620,1.80874,0.09802,3.22525,-2.04559,0.33538,0.42034,0.73610,0.40798,-0.33917,-4.95008,-3.67665,2.07660
-0.33868,1.67119,-0.29063,-0.36644,0.41933,0.84388,1.40484,1.60991,0.08856,2.91710,-2.49411,0.74933,0.41993,0.73086,0.41116,-0.34707,-5.14764,-12.29641,-1.23507
-0.34277,1.67375,-0.28017,-0.33241,0.38035,0.85088,1.38822,1.40977,0.07810,2.42011,-2.79844,0.99448,0.41855,0.72548,0.41591,-0.35428,-3.05946,-15.02724,-1.73280
-0.34608,1.67581,-0.26859,-0.30254,0.33718,0.86164,1.41975,1.20097,0.06869,2.16039,-3.14768,0.90629,0.41598,0.71994,0.42243,-0.36082,2.08127,-13.68667,-2.07721
-0.34852,1.67756,-0.25642,-0.27516,0.29431,0.86999,1.44665,0.98899,0.05748,1.75747,-2.86842,0.52274,0.41277,0.71477,0.42968,-0.36620,1.71748,-15.81662,-2.82132
-0.35114,1.67934,-0.24447,-0.25657,0.26109,0.87247,1.51998,0.86244,0.06349,1.23762,-2.63174,0.10632,0.40902,0.70851,0.43739,-0.37336,4.15207,-12.39044,-2.54367
-0.35364,1.68043,-0.23293,-0.24037,0.22444,0.86655,1.59101,0.78804,0.12642,1.02596,-2.67444,-0.81173,0.40388,0.70243,0.44435,-0.38213,6.65763,-6.30014,2.45049
-0.35607,1.68118,-0.22222,-0.22706,0.19003,0.84801,1.56609,0.69197,0.23565,1.03228,-2.54862,-1.78069,0.39766,0.69877,0.44908,-0.38976,1.61404,-6.12817,6.54301
-0.35845,1.68195,-0.21231,-0.21574,0.16320,0.82174,1.43583,0.58311,0.31469,0.90251,-2.27592,-2.50771,0.39250,0.69720,0.45157,-0.39488,-7.45072,-10.45574,7.18676
-0.35990,1.68197,-0.20414,-0.20009,0.13075,0.77617,1.24275,0.58248,0.39589,0.56149,-1.77558,-2.94332,0.38930,0.69625,0.45037,-0.40105,-12.69281,-4.26278,5.31504
-0.35995,1.68236,-0.19645,-0.18348,0.10870,0.73259,1.14728,0.71179,0.45563,0.77432,-1.28473,-3.08153,0.38740,0.69236,0.44879,-0.41127,-7.47026,8.07607,5.63360
-0.36019,1.68299,-0.18897,-0.16918,0.09485,0.69554,1.06527,0.82672,0.51798,0.93243,-1.10082,-2.95384,0.38541,0.68849,0.44660,-0.42188,-6.28925,9.14360,5.98807
-0.36064,1.68318,-0.18239,-0.15016,0.07802,0.65250,0.97343,0.89682,0.57512,1.36471,-1.08940,-2.40132,0.38328,0.68535,0.44390,-0.43168,-5.41449,5.37963,4.87182
-0.36127,1.68295,-0.17548,-0.12846,0.05857,0.62026,0.90984,0.84510,0.57781,1.58230,-1.23978,-1.73418,0.38044,0.68290,0.44353,-0.43839,-4.59187,-2.24789,0.92209
-0.36178,1.68268,-0.16810,-0.10953,0.04261,0.60182,0.88777,0.77639,0.56034,1.65867,-1.34960,-1.43463,0.37723,0.68014,0.44451,-0.44443,-2.06603,-6.19025,-1.36318
-0.36126,1.68179,-0.16121,-0.07925,0.02068,0.58000,0.88350,0.74578,0.49535,2.06148,-1.30835,-1.28111,0.37533,0.67616,0.44616,-0.45041,-0.59676,-2.38133,-2.81518
-0.36058,1.68099,-0.15411,-0.05301,0.00466,0.56572,0.90642,0.73431,0.40598,2.34680,-1.26812,-1.17719,0.37413,0.67103,0.44877,-0.45646,0.77087,-0.00639,-6.41146
-0.35868,1.67967,-0.14759,-0.01418,-0.01556,0.54576,0.93491,0.72211,0.25227,2.55379,-1.19107,-1.34223,0.37463,0.66467,0.45287,-0.46127,1.32531,-0.64623,-9.93494
-0.35645,1.67843,-0.14121,0.02202,-0.03084,0.52760,0.94494,0.66123,0.11715,2.76060,-1.13884,-1.29198,0.37482,0.65904,0.45749,-0.46462,0.81230,-0.73373,-10.32985
-0.35415,1.67704,-0.13481,0.05128,-0.04501,0.51372,0.91919,0.47326,0.02078,2.54025,-1.41187,-1.22775,0.37314,0.65622,0.46307,-0.46445,-0.59414,-10.54010,-9.23097
-0.35128,1.67505,-0.12888,0.08230,-0.06463,0.49594,0.84981,0.21318,-0.08203,2.00728,-1.47066,-1.39926,0.37104,0.65562,0.46945,-0.46055,-4.65626,-19.18496,-8.20550
-0.34804,1.67266,-0.12369,0.11291,-0.08652,0.47085,0.80775,0.10179,-0.19644,1.54869,-1.33138,-1.70344,0.37091,0.65293,0.47529,-0.45849,-3.63159,-8.73934,-7.89869
-0.34502,1.67016,-0.11903,0.13426,-0.10579,0.44250,0.77224,0.12040,-0.30152,1.27035,-1.32909,-2.26179,0.37269,0.64837,0.47991,-0.45869,-1.87746,-0.27763,-6.75646
-0.34215,1.66774,-0.11485,0.14894,-0.11953,0.41352,0.75531,0.24169,-0.40197,0.81469,-1.00029,-2.46569,0.37640,0.64173,0.48365,-0.46107,-2.81712,5.82069,-8.66049
-0.33928,1.66511,-0.11166,0.16029,-0.13347,0.37642,0.78150,0.53564,-0.49449,0.51664,-0.92644,-2.72367,0.38297,0.63098,0.48580,-0.46818,1.16198,19.43966,-5.69617
-0.33660,1.66227,-0.10945,0.16674,-0.14776,0.33227,0.78992,0.82451,-0.56879,0.39392,-0.86166,-2.82181,0.39052,0.61940,0.48686,-0.47624,1.82581,20.47683,-3.73500
-0.33427,1.65957,-0.10723,0.16669,-0.15716,0.29675,0.74572,0.87553,-0.57942,0.03857,-0.66781,-2.42279,0.39493,0.61208,0.48841,-0.48046,-1.36689,9.04264,-1.47964
-0.33248,1.65691,-0.10503,0.15879,-0.16419,0.26841,0.67654,0.71108,-0.52283,-0.68274,-0.49111,-1.91576,0.39523,0.60953,0.49095,-0.48087,-5.10384,-8.47718,2.15225
-0.33127,1.65435,-0.10291,0.14367,-0.16823,0.24413,0.61033,0.43058,-0.39963,-1.01339,-0.08278,-1.23293,0.39172,0.61060,0.49399,-0.47928,-5.56198,-17.62081,6.70525
-0.33028,1.65180,-0.10047,0.12822,-0.17134,0.22969,0.60935,0.16648,-0.28915,-1.14011,-0.24376,-0.94315,0.38644,0.61156,0.49842,-0.47774,-0.56203,-19.19485,7.30643
-0.32931,1.64927,-0.09806,0.11608,-0.17355,0.21782,0.60838,-0.04483,-0.22548,-0.97489,-0.09960,-1.04208,0.38145,0.61232,0.50325,-0.47570,0.00160,-19.20611,6.01104
-0.32843,1.64682,-0.09596,0.10537,-0.17402,0.20428,0.62864,-0.20151,-0.18761,-0.99223,0.10614,-1.16415,0.37644,0.61245,0.50859,-0.47384,0.02087,-15.26944,2.81045
-0.32797,1.64455,-0.09487,0.09076,-0.17177,0.17826,0.66338,-0.30702,-0.12104,-0.71168,0.13132,-1.69611,0.37065,0.61236,0.51347,-0.47327,2.51986,-5.82434,3.83484
-0.32724,1.64233,-0.09379,0.08274,-0.16903,0.15724,0.63774,-0.39063,-0.07993,-0.55610,0.15163,-1.91711,0.36602,0.61292,0.51738,-0.47188,-0.38145,-5.79879,3.17511
-0.32655,1.64022,-0.09322,0.07600,-0.16555,0.13382,0.54786,-0.51014,-0.04510,-0.44252,0.25687,-2.13538,0.36150,0.61563,0.52045,-0.46846,-4.96566,-8.98333,2.47368
-0.32581,1.63851,-0.09405,0.07152,-0.15672,0.09403,0.36296,-0.61215,-0.01545,-0.18094,0.63420,-2.18924,0.35855,0.62051,0.52122,-0.46339,-10.86365,-7.70684,1.49709
-0.32460,1.63683,-0.09453,0.07488,-0.14930,0.06742,0.29924,-0.48814,-0.02329,0.30010,0.89315,-2.00157,0.35852,0.62028,0.52166,-0.46324,-8.05448,4.59699,0.10194
-0.32302,1.63528,-0.09503,0.08253,-0.14172,0.04702,0.31474,-0.26209,-0.05786,0.76238,0.96502,-1.82111,0.36045,0.61634,0.52227,-0.46629,-2.09646,16.16146,-1.99782
-0.32038,1.63441,-0.09647,0.10530,-0.12700,0.01836,0.40523,0.17317,-0.13924,1.86561,0.71871,-1.22156,0.36689,0.60597,0.52208,-0.47499,5.65036,27.28589,-3.20372
-0.31733,1.63335,-0.09701,0.13059,-0.11825,0.00813,0.42778,0.26276,-0.25184,2.34937,0.47003,-0.41649,0.37036,0.60023,0.52487,-0.47652,2.62392,11.55269,-6.63012
-0.31408,1.63206,-0.09699,0.15219,-0.11418,0.00753,0.44070,0.24040,-0.36064,2.41518,0.36870,0.19184,0.37268,0.59583,0.52915,-0.47550,0.14573,0.67706,-9.74739
-0.30902,1.63090,-0.09631,0.19732,-0.10928,0.01642,0.54033,0.20187,-0.57534,2.82510,0.30879,0.71570,0.37580,0.58842,0.53761,-0.47277,4.82679,-1.45777,-12.19037
-0.30347,1.62978,-0.09521,0.24294,-0.10486,0.02980,0.63067,0.10515,-0.79873,3.08254,0.21821,0.90278,0.37846,0.58123,0.54764,-0.46800,5.47784,-4.68182,-13.98823
-0.29740,1.62852,-0.09384,0.28485,-0.10242,0.04426,0.71633,-0.01516,-1.00482,3.04636,0.21319,1.17261,0.38059,0.57404,0.55878,-0.46195,4.84044,-8.24410,-14.57449
-0.29075,1.62718,-0.09206,0.32523,-0.10119,0.06189,0.84626,-0.12243,-1.19471,2.70767,0.04303,1.36056,0.38193,0.56541,0.57157,-0.45580,8.19300,-7.67022,-14.82553
-0.28381,1.62579,-0.08993,0.36156,-0.10090,0.08094,0.98780,-0.23773,-1.34648,2.58625,0.08439,1.36392,0.38199,0.55636,0.58532,-0.44939,9.13429,-8.14195,-11.67382
-0.27639,1.62452,-0.08758,0.39705,-0.09883,0.09916,1.12869,-0.35544,-1.49267,2.53979,0.16685,1.27332,0.38146,0.54657,0.60019,-0.44217,9.73018,-8.26973,-11.11377
-0.26853,1.62330,-0.08518,0.43207,-0.09647,0.11439,1.24567,-0.50758,-1.63652,2.59128,0.10372,0.80430,0.38007,0.53695,0.61608,-0.43322,9.15763,-10.14997,-10.86741
-0.25980,1.62208,-0.08303,0.47359,-0.09470,0.12272,1.31501,-0.63116,-1.79011,2.49421,-0.02615,0.28812,0.37949,0.52715,0.63182,-0.42298,4.08864,-8.93261,-10.82016
-0.25118,1.62062,-0.08120,0.50409,-0.09697,0.12453,1.35975,-0.66819,-1.88404,2.49686,-0.41216,0.08230,0.37961,0.51677,0.64602,-0.41413,3.31233,-3.66538,-8.41909
-0.24216,1.61873,-0.07945,0.53357,-0.10492,0.12469,1.37014,-0.71468,-1.98500,2.52964,-0.97904,-0.09176,0.38008,0.50655,0.66015,-0.40392,2.73901,-2.71201,-7.44402
-0.23237,1.61630,-0.07776,0.56814,-0.11914,0.12406,1.35291,-0.77966,-2.15128,2.46284,-1.05526,0.03920,0.38170,0.49595,0.67504,-0.39072,-2.72605,-4.53501,-11.68759
-0.22181,1.61320,-0.07610,0.60673,-0.14039,0.12306,1.41892,-0.75517,-2.34110,2.25971,-1.51958,-0.04939,0.38450,0.48141,0.69080,-0.37842,4.51514,1.21102,-11.63809
-0.21130,1.60971,-0.07439,0.63737,-0.16325,0.12307,1.51180,-0.70936,-2.50350,2.11146,-1.68917,0.15345,0.38723,0.46523,0.70652,-0.36666,7.17471,3.87886,-10.97626
-0.20084,1.60598,-0.07246,0.66092,-0.18478,0.12630,1.65027,-0.67500,-2.61954,1.82083,-1.80972,0.51290,0.38858,0.44746,0.72270,-0.35566,10.10548,2.14053,-9.90491
-0.18981,1.60124,-0.06991,0.68742,-0.21655,0.13814,1.88462,-0.69795,-2.73453,1.62641,-2.14866,1.01713,0.38714,0.42665,0.74122,-0.34450,14.97356,-2.11158,-6.63799
-0.17889,1.59605,-0.06681,0.70738,-0.24904,0.15568,2.09258,-0.79746,-2.87766,1.46383,-2.52516,1.46585,0.38402,0.40530,0.76083,-0.33076,13.74855,-6.74050,-9.16328
-0.16816,1.59075,-0.06359,0.72051,-0.27558,0.17089,2.25201,-0.87897,-2.98935,1.23938,-2.75946,1.65735,0.38041,0.38362,0.77969,-0.31656,13.50288,-10.43022,-12.15958
-0.15651,1.58264,-0.05891,0.74372,-0.33841,0.20470,2.67238,-0.97006,-3.17967,0.97477,-3.50100,1.80789,0.37325,0.35281,0.80294,-0.30249,20.29811,-7.47972,-9.44790
-0.14529,1.57462,-0.05443,0.75681,-0.38898,0.22952,2.97529,-1.00765,-3.29458,0.79378,-3.72185,1.87932,0.36658,0.32265,0.82335,-0.28915,21.23936,-6.53810,-8.55584
-0.13414,1.56558,-0.04939,0.76619,-0.44444,0.25786,3.35728,-1.02306,-3.31456,0.26624,-4.23308,2.34420,0.35726,0.28902,0.84320,-0.27900,24.56910,-5.54347,-2.61566
-0.12358,1.55505,-0.04360,0.76430,-0.51096,0.29138,3.78498,-1.12156,-3.26015,-0.56509,-5.28245,2.48123,0.34295,0.25316,0.86317,-0.27062,29.26631,-11.94299,2.75851
-0.11373,1.54342,-0.03755,0.75214,-0.57881,0.32144,4.13113,-1.29172,-3.22192,-1.27491,-6.14685,2.56679,0.32550,0.21717,0.88257,-0.26070,25.19928,-18.80373,1.93803
-0.10525,1.52822,-0.03065,0.72194,-0.68642,0.35761,4.57339,-1.59256,-3.18987,-2.37803,-7.50427,2.05536,0.30093,0.17741,0.90292,-0.25039,23.21129,-23.64470,-0.88680
-0.09763,1.51224,-0.02438,0.68526,-0.78300,0.37683,4.96303,-1.85954,-3.15682,-3.82694,-8.61224,1.27864,0.27434,0.13619,0.92123,-0.23986,25.34792,-27.22131,-4.55636
-0.09248,1.49254,-0.01862,0.62006,-0.91316,0.38401,5.45415,-2.26266,-3.14905,-5.65018,-10.03238,-0.24705,0.23934,0.09032,0.93938,-0.22830,27.96979,-33.16979,-4.31653
-0.09046,1.46994,-0.01441,0.52194,-1.05919,0.36680,5.95376,-2.75475,-3.23155,-8.33161,-10.93652,-2.13545,0.19779,0.04104,0.95594,-0.21299,28.38729,-37.18864,-12.61950
-0.09247,1.44478,-0.01259,0.38443,-1.21266,0.31769,6.46869,-3.37148,-3.40768,-11.31001,-11.01424,-5.02168,0.14776,-0.01164,0.96996,-0.19290,31.29475,-41.81350,-22.56715
-0.09896,1.41788,-0.01445,0.20955,-1.35998,0.22436,6.87816,-4.05914,-3.68867,-13.53735,-10.14055,-8.66604,0.09109,-0.06423,0.97972,-0.16648,27.12462,-44.68338,-31.78738
-0.10974,1.39047,-0.02104,0.00765,-1.48409,0.08070,7.09545,-4.66436,-4.16530,-15.19702,-7.76112,-12.55435,0.03340,-0.11467,0.98424,-0.13041,20.56572,-32.76111,-44.38884
-0.12465,1.36418,-0.03329,-0.21331,-1.56600,-0.11680,7.17246,-5.11549,-4.78979,-16.31098,-3.99388,-16.38928,-0.02292,-0.16291,0.98266,-0.08551,16.10605,-15.48028,-50.99736
-0.14317,1.34076,-0.05171,-0.44168,-1.58866,-0.36423,7.16553,-5.35725,-5.48661,-16.27300,0.82092,-19.61083,-0.07547,-0.20909,0.97440,-0.03371,16.14883,1.38703,-50.97770
-0.16605,1.32301,-0.07896,-0.69045,-1.52138,-0.69550,7.09692,-5.32043,-6.25536,-15.05243,8.23820,-22.31684,-0.12076,-0.25304,0.95956,0.02524,19.65868,21.73927,-43.73762
-0.18953,1.31377,-0.11224,-0.90258,-1.33663,-1.05817,7.08303,-5.30436,-6.65940,-12.00143,15.56077,-23.07795,-0.16590,-0.29513,0.93782,0.07661,11.80352,14.72921,-23.87011
-0.20884,1.30654,-0.14223,-1.00342,-1.16375,-1.28783,7.10786,-5.41033,-6.69825,-8.89036,19.72156,-22.70526,-0.21350,-0.33601,0.90971,0.11806,6.60943,0.36093,-13.04325
-0.22888,1.31392,-0.18339,-1.09191,-0.81191,-1.63215,7.09135,-5.67856,-6.42185,-2.88964,25.21959,-20.21837,-0.26399,-0.37413,0.87664,0.14777,-10.62399,-17.60973,2.41626
-0.24441,1.32759,-0.22316,-1.09614,-0.43468,-1.88896,6.83634,-6.11832,-5.88949,1.74619,29.98758,-16.32708,-0.31746,-0.40472,0.84168,0.16428,-30.78271,-25.03223,10.58050
-0.25634,1.34561,-0.26112,-1.04553,-0.07731,-2.06013,6.23945,-6.85537,-5.31041,5.72218,31.11360,-11.96160,-0.38068,-0.42329,0.80452,0.16927,-65.94482,-41.51214,-0.87828
-0.26152,1.37762,-0.30019,-0.90511,0.41325,-2.21258,4.84856,-8.00453,-4.59195,11.57184,32.83764,-7.55815,-0.45859,-0.41631,0.77005,0.15300,-106.74620,-46.31831,-29.02228
-0.26149,1.41487,-0.33639,-0.71421,0.88724,-2.29298,3.22877,-8.94476,-4.14501,15.74989,35.89404,-3.90671,-0.53606,-0.39375,0.73478,0.13305,-116.85360,-29.85106,-52.01161
-0.25974,1.45136,-0.37017,-0.54345,1.23909,-2.31973,1.81379,-9.82967,-3.92191,17.07369,34.91626,-1.06077,-0.61494,-0.36364,0.69107,0.10972,-125.12950,-28.70343,-75.82302
-0.24351,1.50986,-0.40092,-0.19574,1.83961,-2.29496,-1.22810,-11.33613,-3.95048,21.78136,33.48224,3.97983,-0.71437,-0.27391,0.64162,0.05446,-141.09620,-57.62438,-122.66620
-0.22733,1.56636,-0.42743,0.08770,2.30267,-2.21262,-3.58188,-11.16178,-4.44459,21.78953,33.63582,7.24922,-0.77473,-0.17991,0.60572,0.02317,-101.19090,10.01649,-142.59380
-0.21205,1.62210,-0.45305,0.29223,2.64744,-2.13728,-5.19803,-10.52005,-5.10609,21.47551,36.53972,7.65006,-0.81674,-0.08546,0.57063,0.00408,-53.57330,48.21889,-160.62740
-0.17967,1.70674,-0.47560,0.70572,3.34413,-2.03439,-8.21270,-9.81049,-7.22454,25.70255,42.94925,2.83299,-0.84457,0.08753,0.52809,-0.01228,-31.03242,1.61428,-203.15500
-0.14080,1.79431,-0.50327,1.14307,3.96011,-2.02673,-10.46534,-9.78714,-9.56870,37.69521,45.47421,-1.82067,-0.85490,0.26422,0.44587,-0.02302,-47.01771,-71.60033,-218.01750
-0.08994,1.88604,-0.53441,1.65882,4.49636,-2.06911,-12.00484,-9.58518,-11.80179,50.99902,44.22311,-3.91752,-0.82982,0.43549,0.34807,-0.02453,-38.24097,-102.61560,-199.75880
0.00697,1.99803,-0.57109,2.77051,5.23063,-2.18733,-11.35048,-7.78953,-15.18538,75.92560,34.59050,-4.02559,-0.74947,0.59687,0.28326,0.04241,90.16715,-117.59670,-135.09300
0.11078,2.09486,-0.60518,3.76310,5.59496,-2.24275,-8.53284,-6.55183,-17.54987,93.07444,23.40154,0.16492,-0.66051,0.69893,0.23022,0.14904,164.07690,-234.39690,-59.11086
0.26021,2.18618,-0.63252,5.21288,5.78672,-2.18032,-3.85256,-6.36776,-20.21084,116.89070,0.86349,12.13133,-0.53779,0.75991,0.17026,0.32302,98.12221,-370.02990,-22.12376
0.46836,2.24500,-0.63621,7.26861,5.44206,-1.76811,0.15542,-7.91656,-23.56352,139.48470,-49.87947,38.35981,-0.35436,0.78647,0.05235,0.50315,-63.91349,-345.59720,-112.88290
0.67542,2.25701,-0.61598,8.86958,4.47058,-1.08634,0.41867,-7.75101,-26.12507,128.42870,-113.60040,68.79315,-0.14448,0.81395,-0.07531,0.55762,-36.69495,-149.79190,-210.81980
0.89530,2.17800,-0.54865,10.28509,2.35246,0.14648,1.70463,-4.32759,-27.79522,69.75632,-184.93950,100.86510,0.09678,0.82646,-0.11416,0.54274,201.91640,-118.65030,-100.59710
1.06995,2.01866,-0.44884,10.73429,-0.50952,1.59931,6.09615,-0.15009,-28.18356,-4.99132,-225.56870,102.49160,0.35425,0.78469,-0.05747,0.50544,163.84270,-348.43180,-56.85369
1.16596,1.75532,-0.33002,9.90413,-4.38337,3.04429,15.50706,6.01215,-29.56323,-103.22700,-266.28060,62.47641,0.69717,0.61567,0.10453,0.35210,118.22920,-443.70680,-422.69130
1.11604,1.52645,-0.27692,8.11716,-7.42314,3.57356,28.39939,11.08743,-29.56732,-190.42920,-241.21680,14.43356,0.92966,0.22240,0.28784,0.05851,219.99010,-144.06110,-958.77440
0.91364,1.28933,-0.29305,4.33243,-10.46674,2.96492,43.84711,4.84814,-25.44120,-253.43200,-109.12970,-70.68792,0.80176,-0.36349,0.44679,-0.15948,455.71970,663.73160,-954.99940
0.75241,1.18198,-0.34374,1.39039,-10.78537,1.63495,39.24691,-4.99494,-22.45098,-216.77930,36.53495,-107.83830,0.65302,-0.57859,0.48018,-0.09070,78.86996,966.75130,-302.13110
0.66247,1.11757,-0.38271,-0.65490,-9.50495,0.43580,25.57401,-5.55617,-19.72184,-89.78452,113.55650,-53.85221,0.68993,-0.53352,0.48286,0.07870,-520.54580,735.16990,518.73440
0.66430,0.99882,-0.37575,-1.33171,-8.08458,0.11410,15.38868,-3.69866,-16.16525,-13.73694,91.34925,-5.93561,0.72871,-0.44987,0.47140,0.21065,-425.96560,550.92180,506.01490
0.66177,0.91990,-0.35210,-1.40002,-7.19845,0.16957,10.60607,-3.29214,-11.81119,4.80669,70.79106,10.60611,0.72904,-0.39694,0.50188,0.24301,-420.33690,274.09440,359.12770
0.64917,0.86985,-0.31227,-1.46019,-6.29057,0.41143,6.32023,-3.17361,-7.46414,-11.50409,47.41175,17.72497,0.72075,-0.31409,0.55615,0.26938,-332.11720,-8.29521,253.43700
0.61950,0.82491,-0.27807,-1.66540,-5.58970,0.69113,2.15139,-0.75070,-5.90569,-15.59252,38.73966,15.33067,0.73712,-0.24265,0.52572,0.34843,-212.85580,229.09710,130.37650
0.58527,0.77362,-0.25510,-1.85025,-5.18000,0.83711,0.45975,0.94900,-5.68798,-13.52643,34.80693,10.47890,0.74740,-0.22736,0.47735,0.40229,-108.28580,225.80130,44.50697
0.55055,0.74663,-0.23278,-2.06445,-4.64346,0.96609,-0.16163,1.67385,-5.68640,-8.75732,36.04549,7.94340,0.74855,-0.23534,0.43806,0.43862,-22.07508,81.55398,1.40709
0.51620,0.71457,-0.21286,-2.15391,-4.16466,1.07318,-0.19568,0.92036,-5.32985,-1.51561,32.69221,8.86004,0.73404,-0.25920,0.43598,0.45158,-12.01600,-31.87607,16.22724
0.48656,0.67779,-0.19209,-2.15236,-3.86048,1.16434,-0.43465,0.18104,-4.86288,2.41970,27.55044,10.05806,0.71513,-0.27687,0.44218,0.46520,-33.05553,-66.50473,41.02273
0.46248,0.65112,-0.16518,-2.07168,-3.47679,1.32854,-1.46947,-0.90220,-3.66750,5.97803,19.64776,10.21371,0.68277,-0.26634,0.47893,0.48322,-78.83681,-44.00876,73.32154
0.43965,0.61981,-0.13953,-1.99442,-3.23741,1.44825,-2.61388,-1.49995,-2.59940,3.83210,15.35462,7.13119,0.64924,-0.24419,0.51173,0.50694,-98.20545,-21.66242,76.11743
0.41524,0.58767,-0.11572,-1.95481,-3.05613,1.51248,-3.41903,-1.57736,-1.73997,1.24305,16.52109,3.99139,0.62235,-0.21753,0.53393,0.52941,-84.74786,6.90677,65.15552
0.38963,0.56516,-0.09301,-1.94374,-2.77139,1.54724,-4.04548,-1.10101,-0.71677,-1.29650,26.12687,1.25744,0.60663,-0.17421,0.54831,0.54864,-53.89647,46.07442,56.56517
0.36055,0.55914,-0.07389,-1.99251,-2.30405,1.52822,-4.37762,0.08370,-0.24296,-7.29315,30.94418,-3.89289,0.60423,-0.12868,0.53765,0.57384,-28.35621,71.21094,29.08822
0.32833,0.55176,-0.05760,-2.06852,-1.95031,1.46618,-4.10424,1.85336,-0.80827,-8.25728,29.02909,-6.71645,0.61878,-0.10049,0.48752,0.60773,9.10385,112.11280,-60.47427
0.29322,0.55135,-0.04481,-2.16432,-1.57043,1.36741,-3.62864,3.59235,-1.83084,-4.73997,25.62837,-6.46134,0.63767,-0.08212,0.41390,0.64446,29.50470,121.39540,-122.12100
0.25780,0.55545,-0.03478,-2.24971,-1.19644,1.25436,-3.41216,4.00030,-2.68836,-3.67405,21.34652,-6.68405,0.63485,-0.07872,0.36298,0.67750,2.77403,16.01318,-65.00758
0.22464,0.55267,-0.02313,-2.28131,-0.99854,1.18164,-3.26214,4.10377,-3.14934,-2.52542,18.95133,-7.49391,0.62828,-0.07390,0.32134,0.70466,-5.09693,-4.80436,-48.16174
0.19172,0.55612,-0.01565,-2.29794,-0.75913,1.06671,-2.84677,4.10601,-3.76940,0.57086,16.32320,-8.91103,0.62451,-0.08112,0.27335,0.72710,9.70419,-6.28570,-51.95702
0.16213,0.56355,-0.01428,-2.26452,-0.50321,0.89220,-2.06624,3.23050,-4.26188,5.37082,12.66991,-9.83466,0.62020,-0.11331,0.24419,0.73681,20.07360,-56.36906,-35.46134
0.13603,0.56750,-0.01132,-2.18604,-0.34287,0.76184,-1.67099,1.60261,-3.86565,8.37715,10.29284,-8.40257,0.60573,-0.14530,0.25503,0.73955,10.73925,-105.57760,24.19997
0.11262,0.57130,-0.00852,-2.08041,-0.21989,0.66038,-1.60940,0.18545,-3.19151,9.85400,9.66059,-7.78846,0.58542,-0.16996,0.27849,0.74219,-20.09948,-122.43770,66.41991
0.09625,0.57751,-0.00845,-1.89472,-0.08771,0.54338,-1.48873,-0.65574,-2.45668,11.43981,7.09632,-5.88830,0.57096,-0.18501,0.30024,0.74137,-8.44239,-64.31957,59.02349
0.08218,0.58149,-0.00671,-1.71362,-0.01314,0.46698,-1.29033,-0.43962,-2.06413,12.51022,3.71744,-4.67170,0.56862,-0.18403,0.29664,0.74486,12.82447,8.25581,30.77679
0.06885,0.58322,-0.00557,-1.55216,0.01122,0.40135,-1.06105,-0.26474,-1.58588,11.04863,0.23330,-4.61891,0.56913,-0.18025,0.29635,0.74550,16.95391,20.57326,27.47334
0.05543,0.58375,-0.00596,-1.42604,0.01424,0.32591,-0.70976,-0.44076,-1.23231,8.42394,0.99360,-6.32995,0.57021,-0.18643,0.30133,0.74115,20.49825,-5.91327,35.24355
0.04297,0.58536,-0.00853,-1.31331,0.03186,0.22954,-0.29278,-0.88752,-1.04316,8.29473,1.49406,-7.24416,0.57064,-0.20385,0.30918,0.73296,26.39723,-31.76240,15.53331
0.03112,0.58754,-0.01276,-1.20762,0.04958,0.13074,0.06881,-1.52767,-0.78465,7.87006,0.71342,-6.32158,0.56903,-0.22644,0.32485,0.72069,25.55094,-42.85091,18.52267
0.02051,0.58980,-0.01730,-1.10696,0.06491,0.04732,0.22559,-2.27214,-0.42475,7.45279,0.99374,-4.96709,0.56186,-0.25013,0.34946,0.70684,9.58701,-54.53178,25.72357
0.01176,0.59256,-0.02121,-1.00352,0.08587,-0.01438,0.18829,-2.88341,-0.08141,7.29611,1.49790,-3.50318,0.55012,-0.27110,0.37642,0.69439,-6.38807,-49.29663,24.23533
0.00414,0.59612,-0.02456,-0.90117,0.11045,-0.05466,0.12938,-3.13035,0.08738,6.85505,1.80176,-1.93709,0.53949,-0.28768,0.39609,0.68506,-8.90318,-25.84449,15.27105
-0.00374,0.59937,-0.02675,-0.82900,0.12796,-0.07094,0.13596,-3.07446,0.10383,7.00024,1.65331,-1.06235,0.53256,-0.30096,0.40727,0.67818,-3.17916,-5.82006,4.62924
-0.00025,0.60156,-0.02491,-0.60343,0.12277,-0.02349,0.04662,-2.10187,0.43575,23.48729,-4.53828,9.96154,0.53846,-0.28564,0.40999,0.67851,-14.32462,23.76430,5.66838
0.01318,0.59924,-0.01544,-0.28344,0.05642,0.11960,0.20462,-0.30581,0.98504,19.14239,-4.02220,8.81060,0.56653,-0.24203,0.39781,0.67986,3.80806,138.85300,48.98674
0.02127,0.59841,-0.00753,-0.10782,0.02692,0.21004,0.09664,0.79462,1.04238,11.92470,-1.56047,6.43367,0.58076,-0.21039,0.38378,0.68642,0.14970,103.64720,17.63010
0.02965,0.59962,0.00006,0.03281,0.03860,0.27576,-0.10594,1.67423,0.81576,6.91464,2.21627,2.47783,0.58925,-0.18233,0.36360,0.69810,-15.41448,59.87523,-9.46511
0.03524,0.60340,0.00512,0.10973,0.08549,0.29326,-0.36322,2.17901,0.40821,3.43796,3.21614,-0.08955,0.59062,-0.16281,0.34289,0.71210,-21.40365,32.12991,-21.35295
0.03909,0.60717,0.00851,0.14581,0.12283,0.28295,-0.46407,2.55143,-0.10715,2.16445,2.31196,-1.39080,0.59235,-0.14914,0.31735,0.72538,-15.73062,25.83204,-32.66402
0.04246,0.61089,0.01143,0.17377,0.14429,0.26573,-0.52673,2.85781,-0.52708,3.10724,1.18986,-1.67169,0.59410,-0.13561,0.29049,0.73775,-11.77990,24.35346,-37.76664
0.04762,0.61424,0.01346,0.22224,0.15479,0.23879,-0.58289,3.20726,-0.85845,4.42943,0.18115,-2.42110,0.59619,-0.11916,0.26092,0.74986,-10.22436,23.83842,-26.48137
0.05492,0.61647,0.01428,0.28814,0.14990,0.20046,-0.56146,3.55663,-1.06057,5.40913,-0.88150,-3.27132,0.60037,-0.10024,0.23070,0.75913,-2.52594,24.53305,-17.01866
0.06405,0.61712,0.01380,0.36577,0.12999,0.15040,-0.44467,3.88302,-1.16138,6.08923,-1.82139,-4.21006,0.60716,-0.07978,0.20019,0.76480,5.70072,23.23314,-11.82621
0.07470,0.61667,0.01178,0.44901,0.09812,0.08801,-0.26068,4.16720,-1.17056,6.19713,-2.65007,-5.02938,0.61606,-0.05795,0.17036,0.76687,12.98505,20.43824,-6.77007
0.08635,0.61517,0.00812,0.52863,0.05761,0.01549,-0.03020,4.36475,-1.11628,5.59505,-3.11784,-5.62593,0.62637,-0.03620,0.14235,0.76556,17.18239,14.40405,-2.20171
0.09828,0.61287,0.00324,0.59767,0.01421,-0.06360,0.20495,4.46660,-1.04980,4.76319,-3.14846,-6.08487,0.63696,-0.01557,0.11581,0.76199,18.09208,8.10350,-1.50516
0.11080,0.60977,-0.00375,0.66203,-0.03237,-0.15940,0.45954,4.46307,-0.94941,3.78514,-2.73578,-6.23017,0.64818,0.00345,0.09223,0.75587,17.54707,-0.27291,0.55703
0.12254,0.60741,-0.01070,0.70043,-0.06045,-0.23120,0.60018,4.37286,-0.84135,3.03792,-2.15730,-5.91096,0.65683,0.02132,0.07156,0.75033,15.10464,-5.30225,2.27915
0.13414,0.60550,-0.01821,0.73301,-0.08069,-0.30564,0.65679,4.17877,-0.70576,2.12908,-1.06756,-5.38714,0.66336,0.03753,0.05510,0.74532,8.00193,-13.56697,7.61883
0.14578,0.60432,-0.02641,0.75815,-0.08603,-0.37520,0.64033,3.99165,-0.61682,1.79426,0.00278,-4.95974,0.66770,0.05277,0.03899,0.74153,1.14654,-13.43369,5.72076
0.15807,0.60415,-0.03610,0.78758,-0.07647,-0.45205,0.50379,3.73798,-0.44118,1.70288,0.70114,-3.92795,0.66854,0.06811,0.02779,0.74003,-4.47885,-14.57705,10.62061
0.17020,0.60424,-0.04467,0.80739,-0.06491,-0.49537,0.37826,3.60803,-0.30176,1.62548,1.02311,-3.68304,0.66867,0.08540,0.01477,0.73850,-7.59104,-12.93156,13.39927
0.18266,0.60472,-0.05385,0.82660,-0.05011,-0.53768,0.26071,3.53503,-0.18654,1.54485,1.39460,-3.69914,0.66788,0.10353,0.00132,0.73703,-7.27969,-8.25603,12.96569
0.19564,0.60567,-0.06482,0.84852,-0.02817,-0.59395,0.12652,3.50169,-0.06942,1.11526,1.35641,-3.45044,0.66561,0.12284,-0.01210,0.73602,-6.23353,-2.73284,10.13324
0.20847,0.60655,-0.07557,0.86244,-0.01027,-0.63739,0.02703,3.48364,0.01604,0.84923,1.33934,-3.12178,0.66316,0.14210,-0.02617,0.73440,-5.56464,-1.21498,7.35152
0.22116,0.60766,-0.08639,0.87123,0.00717,-0.67142,-0.05565,3.45690,0.09141,0.63404,1.59430,-2.92059,0.66017,0.16107,-0.03975,0.73256,-5.15734,-2.02792,7.43891
0.23385,0.60965,-0.09839,0.87900,0.03478,-0.71439,-0.17208,3.38776,0.21151,0.38912,1.85316,-2.81801,0.65537,0.18010,-0.05084,0.73176,-5.48390,-3.52480,9.02008
0.24657,0.61187,-0.11054,0.88444,0.06103,-0.75135,-0.24022,3.30705,0.35045,0.38611,1.90461,-2.81532,0.65073,0.19937,-0.06037,0.73018,-3.31577,-5.49143,9.45393
0.25923,0.61451,-0.12319,0.88803,0.08791,-0.78776,-0.25475,3.19612,0.52689,0.14601,1.91396,-2.71123,0.64656,0.21880,-0.06695,0.72774,1.23886,-7.27851,12.37426
0.27143,0.61773,-0.13580,0.88724,0.11515,-0.82103,-0.22349,3.06860,0.74139,-0.20735,1.95155,-2.55037,0.64282,0.23886,-0.07056,0.72439,5.21532,-8.09870,14.11768
0.28322,0.62168,-0.14849,0.88053,0.14677,-0.85438,-0.14603,2.90925,0.99840,-0.56026,2.02127,-2.17514,0.63965,0.25933,-0.07047,0.72016,8.30903,-9.76115,15.14607
0.29491,0.62558,-0.16141,0.87253,0.17240,-0.87768,-0.08218,2.78352,1.21041,-0.58949,2.08692,-2.10927,0.63607,0.27987,-0.07023,0.71565,8.81444,-8.68827,14.13191
0.30644,0.62986,-0.17511,0.86297,0.19928,-0.90075,0.01023,2.63336,1.47728,-0.96103,2.23253,-1.80615,0.63255,0.30136,-0.06579,0.71044,12.67652,-11.58111,19.62285
