posX, posY, posZ, velX, velY, velZ, angVelX, angVelY, angVelZ, accX, accY, accZ, rotX, rotY, rotZ, rotW, angAccX, angAccY, angAccZ
0.04025,1.25096,-0.41806,0.02673,0.09656,0.04317,0.61653,0.01156,-0.32264,-0.05757,0.90594,0.41227,0.17948,0.88992,0.09304,0.40887,-0.36081,-1.43620,1.55351
0.04046,1.25304,-0.41733,0.02438,0.11036,0.04676,0.55400,-0.03184,-0.27354,-0.22950,1.19408,0.25067,0.18088,0.88903,0.09501,0.40973,-4.16273,-3.03503,3.28582
0.04052,1.25540,-0.41667,0.02056,0.12615,0.04904,0.49302,-0.07056,-0.22564,-0.37132,1.51221,0.21437,0.18177,0.88818,0.09677,0.41077,-5.20647,-3.08510,3.89826
0.04024,1.25867,-0.41607,0.01255,0.15321,0.05053,0.41995,-0.13259,-0.15922,-0.64851,1.98398,-0.03188,0.18140,0.88714,0.09839,0.41280,-4.25051,-4.00639,4.04995
0.03961,1.26259,-0.41557,0.00043,0.18251,0.04865,0.39436,-0.14682,-0.09789,-1.07023,2.25120,-0.34656,0.18128,0.88651,0.10084,0.41360,-3.46792,-2.17823,4.74055
0.03841,1.26710,-0.41533,-0.01762,0.21673,0.04435,0.48248,-0.07913,-0.06142,-1.49293,2.69321,-0.59433,0.18318,0.88650,0.10577,0.41155,2.87043,2.17391,3.20525
0.03660,1.27247,-0.41521,-0.04119,0.25640,0.03915,0.66455,0.03604,-0.02382,-1.82969,3.02570,-0.28730,0.18659,0.88695,0.11385,0.40687,13.88761,8.77554,2.75606
0.03428,1.27866,-0.41513,-0.06761,0.29889,0.03361,0.71188,0.05735,0.03214,-2.00661,3.22911,-0.07133,0.18780,0.88694,0.11995,0.40458,7.96675,4.86524,3.61763
0.03159,1.28515,-0.41519,-0.09375,0.33777,0.02773,0.61592,-0.01073,0.09626,-2.40607,3.55710,-0.44383,0.18624,0.88639,0.12280,0.40564,-5.95608,-4.38700,4.31457
0.02775,1.29308,-0.41544,-0.13115,0.38920,0.02086,0.57334,-0.06866,0.17699,-2.94258,3.82348,-0.70858,0.18409,0.88581,0.12699,0.40660,-7.20153,-6.40838,6.12972
0.02302,1.30205,-0.41559,-0.17398,0.44444,0.01593,0.77786,-0.01823,0.24543,-3.21866,4.00702,-0.56179,0.18544,0.88552,0.13781,0.40307,10.13856,1.92673,5.26815
0.01715,1.31198,-0.41583,-0.22600,0.50637,0.01218,1.18121,0.11335,0.28067,-3.40528,3.67263,-0.23873,0.19094,0.88507,0.15485,0.39525,24.29213,8.25761,3.40981
0.01097,1.32176,-0.41600,-0.27213,0.55250,0.00969,1.59244,0.24368,0.25882,-3.32259,2.98845,-0.30973,0.19905,0.88379,0.17359,0.38621,27.32517,9.05304,0.84310
0.00433,1.33175,-0.41630,-0.31529,0.59072,0.00511,2.03665,0.41199,0.18295,-3.00342,2.46566,-0.45953,0.21070,0.88177,0.19459,0.37446,32.85413,12.66302,-4.31507
-0.00302,1.34152,-0.41746,-0.36044,0.62404,-0.00839,2.37000,0.58344,0.05831,-2.72642,1.95241,-0.91326,0.22401,0.87930,0.21387,0.36183,23.43782,12.39603,-6.91609
-0.00982,1.35105,-0.41867,-0.38732,0.64231,-0.02130,2.48757,0.69821,-0.02623,-2.70039,1.95218,-1.34461,0.23499,0.87714,0.22912,0.35059,14.05585,11.40701,-7.20934
-0.01819,1.36166,-0.42077,-0.43185,0.67334,-0.04499,2.61152,0.88679,-0.10744,-2.86106,2.12473,-1.38261,0.24738,0.87531,0.24435,0.33604,9.36700,13.13845,-4.46653
-0.02695,1.37240,-0.42305,-0.47399,0.70157,-0.06682,2.54106,0.96997,-0.09130,-3.06410,2.20627,-1.24619,0.25493,0.87427,0.25611,0.32416,-0.22671,8.80676,1.21132
-0.03604,1.38337,-0.42545,-0.51150,0.72547,-0.08566,2.35503,0.97124,-0.03522,-3.14365,2.01727,-1.53585,0.25910,0.87377,0.26489,0.31500,-14.10652,-0.22064,5.42840
-0.04593,1.39474,-0.42818,-0.55314,0.75052,-0.10598,2.18404,1.03611,0.01173,-2.93385,1.71957,-1.48216,0.26330,0.87410,0.27234,0.30407,-13.00869,2.50468,5.22394
-0.05600,1.40603,-0.43100,-0.58970,0.77132,-0.12264,2.07063,1.13492,0.01018,-2.56086,1.50507,-1.14246,0.26927,0.87422,0.27952,0.29172,-9.62220,5.91887,3.01574
-0.06611,1.41751,-0.43357,-0.61848,0.78875,-0.13225,2.08401,1.27269,-0.01228,-2.50932,1.61181,-0.82679,0.27750,0.87348,0.28890,0.27669,-2.49874,9.46917,-0.15353
-0.07728,1.42970,-0.43604,-0.65673,0.81227,-0.13925,2.15354,1.47763,-0.03171,-2.34290,1.45489,-0.09862,0.28714,0.87266,0.29906,0.25802,5.25630,13.85625,0.25070
-0.08844,1.44155,-0.43834,-0.68849,0.82953,-0.14105,2.05940,1.54881,-0.04746,-2.33900,1.23087,0.17545,0.29441,0.87216,0.30553,0.24354,-3.85712,7.64063,0.33925
-0.10035,1.45380,-0.44033,-0.72471,0.84837,-0.13760,1.97253,1.64443,-0.04427,-2.34797,1.37175,0.17665,0.30133,0.87197,0.31125,0.22800,-7.88804,4.19903,0.92956
-0.11240,1.46615,-0.44189,-0.75627,0.86386,-0.12937,1.99216,1.80477,-0.02771,-2.28570,1.10098,0.82521,0.30934,0.87124,0.31880,0.20885,1.29779,10.48441,2.12173
-0.12471,1.47844,-0.44294,-0.78513,0.87602,-0.11441,2.00315,1.92857,-0.00980,-1.99104,0.82653,1.41834,0.31708,0.87013,0.32615,0.18962,2.43845,10.40037,2.14488
-0.13743,1.49085,-0.44329,-0.81352,0.88443,-0.09258,1.87359,1.98244,0.00124,-1.62834,0.35737,1.59230,0.32331,0.86987,0.32992,0.17306,-6.88706,3.10779,2.80274
-0.14999,1.50285,-0.44313,-0.83443,0.88832,-0.06670,1.80113,2.05514,-0.00127,-1.59342,0.41292,2.13779,0.33028,0.86904,0.33393,0.15549,-6.77084,4.98601,0.90487
-0.16282,1.51495,-0.44241,-0.85412,0.89096,-0.03827,1.76974,2.10734,0.02406,-1.69220,0.38973,2.58828,0.33651,0.86781,0.33877,0.13745,-3.35409,3.96886,2.03768
-0.17633,1.52720,-0.44004,-0.87981,0.89442,0.00870,1.80272,2.18886,0.08447,-1.57476,0.15502,3.23875,0.34221,0.86616,0.34487,0.11716,2.41318,4.61697,3.87924
-0.18963,1.53938,-0.43739,-0.89659,0.89354,0.04805,1.80251,2.20664,0.12171,-1.21600,-0.21862,3.50418,0.34745,0.86411,0.35056,0.09851,2.51590,3.09433,3.68775
-0.20292,1.55115,-0.43362,-0.90957,0.88698,0.09545,1.76607,2.21308,0.15039,-0.73896,-0.67277,3.42484,0.35229,0.86214,0.35515,0.08043,-1.89280,-0.06368,3.37057
-0.21589,1.56230,-0.42871,-0.91433,0.87317,0.15184,1.80074,2.25865,0.12550,-0.04690,-0.96847,3.66347,0.35905,0.85867,0.36062,0.06100,1.14702,3.34020,-0.83639
-0.22860,1.57298,-0.42413,-0.91389,0.85856,0.19359,1.77065,2.24953,0.10364,0.22281,-1.26806,3.67818,0.36506,0.85538,0.36492,0.04347,1.54513,2.11453,-2.66063
-0.24128,1.58316,-0.41876,-0.91279,0.84038,0.23870,1.62868,2.16046,0.12995,0.07015,-1.18226,3.13293,0.36843,0.85370,0.36689,0.02925,-9.09966,-6.33734,1.64548
-0.25401,1.59336,-0.41290,-0.91279,0.82232,0.27899,1.51724,2.13802,0.19619,-0.03520,-1.23965,2.65825,0.37092,0.85240,0.36831,0.01314,-8.34157,-4.29041,5.11982
-0.26660,1.60284,-0.40651,-0.91029,0.79738,0.31879,1.44707,2.17532,0.26607,0.35356,-1.74020,2.27078,0.37350,0.85085,0.36950,-0.00502,-3.97120,0.95569,5.69873
-0.27888,1.61245,-0.40070,-0.90393,0.77800,0.34048,1.42343,2.20444,0.26292,0.82790,-2.07372,2.12770,0.37776,0.84789,0.37128,-0.02289,-3.25169,3.57824,3.27406
-0.29044,1.62071,-0.39412,-0.88721,0.74305,0.36979,1.31040,2.29043,0.23836,1.24859,-2.27070,1.75746,0.38316,0.84562,0.36936,-0.04114,-7.56054,5.28567,0.51686
-0.30171,1.62831,-0.38749,-0.86720,0.70517,0.39705,1.21258,2.35168,0.21556,1.46245,-2.41660,1.86784,0.38848,0.84304,0.36726,-0.05905,-6.01291,5.08696,-0.58105
-0.31292,1.63606,-0.38084,-0.85144,0.67636,0.41731,1.09417,2.32269,0.22358,1.45758,-2.44852,1.78338,0.39210,0.84114,0.36495,-0.07449,-8.19890,-0.90318,1.32556
-0.32324,1.64289,-0.37316,-0.82798,0.63794,0.44568,1.00978,2.33556,0.20968,1.44675,-2.32017,1.75148,0.39661,0.83861,0.36224,-0.09068,-7.44320,-0.30917,0.98008
-0.33343,1.64981,-0.36545,-0.80795,0.60849,0.46824,1.04824,2.40859,0.15883,1.74325,-2.42272,1.79366,0.40276,0.83369,0.36159,-0.10952,-0.03484,4.77104,-2.56314
-0.34283,1.65590,-0.35723,-0.78073,0.57346,0.49335,1.11981,2.51536,0.08401,2.09186,-2.62730,1.79777,0.41026,0.82717,0.36139,-0.12990,5.53996,9.04769,-6.06208
-0.35140,1.66077,-0.34921,-0.74891,0.53262,0.51740,1.07996,2.52479,0.05196,1.99914,-2.39095,1.65082,0.41614,0.82220,0.35938,-0.14716,-2.14910,1.70317,-2.73666
-0.36009,1.66589,-0.34143,-0.72553,0.50477,0.53412,1.05423,2.52430,0.06521,1.83542,-1.96754,1.58256,0.42063,0.81746,0.35739,-0.16461,-3.45497,-0.40969,0.91335
-0.36794,1.67026,-0.33315,-0.69390,0.47162,0.55547,1.07448,2.55769,0.08455,2.04958,-1.86184,1.38176,0.42491,0.81185,0.35589,-0.18355,1.03182,1.20589,1.66123
-0.37542,1.67491,-0.32447,-0.66108,0.44493,0.57303,1.08489,2.60396,0.06796,2.56490,-2.01649,1.35229,0.43018,0.80539,0.35392,-0.20259,1.75583,4.00982,-0.56221
-0.38225,1.67911,-0.31555,-0.62513,0.41681,0.59040,1.02196,2.55622,0.07165,2.80049,-2.00865,1.37640,0.43431,0.80024,0.35105,-0.21855,-3.18526,-0.64321,-0.49540
-0.38847,1.68316,-0.30623,-0.58755,0.39152,0.60861,0.94009,2.46936,0.09757,2.71167,-1.54976,1.37087,0.43733,0.79597,0.34778,-0.23286,-6.72809,-6.76736,2.51503
-0.39414,1.68714,-0.29644,-0.54951,0.37031,0.62925,0.91498,2.38610,0.14376,2.79055,-1.40927,1.54665,0.43920,0.79144,0.34555,-0.24762,-1.63657,-5.32964,2.65357
-0.39922,1.69089,-0.28634,-0.51097,0.35026,0.65038,0.90548,2.27805,0.19543,2.86241,-1.42885,1.53768,0.44002,0.78718,0.34404,-0.26146,-0.58083,-7.53944,3.15546
-0.40406,1.69459,-0.27608,-0.47679,0.33286,0.66798,0.89621,2.17190,0.24235,2.94007,-1.43216,1.46124,0.44033,0.78305,0.34267,-0.27480,0.36626,-9.05237,3.67782
-0.40747,1.69763,-0.26521,-0.42911,0.30980,0.69122,0.93896,2.02754,0.28256,3.06459,-1.42789,1.39188,0.43944,0.77876,0.34345,-0.28718,2.73727,-8.88356,1.66994
-0.41008,1.70043,-0.25423,-0.37800,0.28722,0.71195,1.01431,1.92853,0.27646,3.32614,-1.35791,1.18776,0.43928,0.77320,0.34518,-0.30007,4.09787,-7.08859,-0.21517
-0.41274,1.70337,-0.24340,-0.33682,0.27089,0.72533,1.09103,1.87011,0.23221,3.57043,-1.37524,1.01334,0.44013,0.76647,0.34732,-0.31333,5.92622,-4.12676,-4.56662
-0.41451,1.70570,-0.23254,-0.28274,0.24899,0.73846,1.17534,1.78431,0.16626,3.56198,-1.42819,0.57114,0.44098,0.75932,0.35088,-0.32537,5.16083,-5.69665,-4.83128
-0.41616,1.70804,-0.22199,-0.24099,0.23208,0.74348,1.23348,1.74603,0.10169,3.67517,-1.46062,0.25448,0.44243,0.75161,0.35382,-0.33785,4.06388,-2.32106,-6.18425
-0.41611,1.70982,-0.21150,-0.18621,0.20965,0.74513,1.24556,1.60234,0.07580,3.54565,-1.55838,-0.06531,0.44231,0.74563,0.35737,-0.34739,2.04184,-6.89066,-3.31394
-0.41576,1.71153,-0.20128,-0.14096,0.19041,0.74216,1.17750,1.39914,0.12038,3.18701,-1.36584,-0.34630,0.44028,0.74250,0.35961,-0.35432,-3.89579,-14.44679,1.55144
-0.41527,1.71320,-0.19129,-0.10382,0.17515,0.73672,1.12751,1.24230,0.14567,2.95763,-1.26265,-0.58116,0.43839,0.73920,0.36194,-0.36111,-4.39321,-14.71533,2.12867
-0.41355,1.71424,-0.18179,-0.05577,0.15378,0.72479,1.09817,1.15806,0.10766,2.86743,-1.26077,-0.88159,0.43816,0.73451,0.36450,-0.36831,-2.82426,-7.12233,-1.05091
-0.41200,1.71537,-0.17245,-0.02058,0.13851,0.71343,1.09923,1.14055,0.03612,2.80360,-1.26894,-0.95054,0.43929,0.72820,0.36736,-0.37655,-0.47166,-1.21734,-6.47931
-0.40950,1.71604,-0.16340,0.02170,0.11944,0.70043,1.14449,1.14584,-0.05640,2.53733,-1.04690,-0.72511,0.44095,0.72052,0.37134,-0.38538,1.31965,0.70153,-5.71061
-0.40729,1.71687,-0.15417,0.05044,0.10685,0.69217,1.19159,1.12482,-0.10689,2.37823,-1.06289,-0.73141,0.44153,0.71317,0.37572,-0.39405,3.55910,0.05907,-5.52274
-0.40452,1.71739,-0.14526,0.08133,0.09231,0.68138,1.22866,1.07639,-0.15655,2.18361,-1.12684,-0.86355,0.44191,0.70598,0.38068,-0.40174,2.98412,-2.79278,-4.26071
-0.40142,1.71766,-0.13676,0.11056,0.07724,0.66696,1.24069,1.00320,-0.19900,2.07194,-1.10225,-1.19323,0.44209,0.69936,0.38574,-0.40823,0.78186,-4.53933,-3.75909
-0.39811,1.71777,-0.12868,0.13676,0.06288,0.64862,1.19626,0.87936,-0.22038,1.80504,-1.02664,-1.45683,0.44184,0.69441,0.39034,-0.41255,-2.67147,-7.24474,-2.78592
-0.39454,1.71766,-0.12127,0.16184,0.04804,0.62410,1.12980,0.75565,-0.23055,1.31905,-0.87160,-1.59152,0.44144,0.69037,0.39446,-0.41584,-5.01102,-9.34562,-0.58435
-0.39105,1.71753,-0.11409,0.18071,0.03578,0.60104,1.12634,0.74096,-0.26528,1.16719,-0.81344,-1.68622,0.44197,0.68412,0.39880,-0.42143,-1.11427,-2.63498,-1.85108
-0.38744,1.71720,-0.10736,0.19751,0.02307,0.57590,1.14763,0.77863,-0.32353,1.11080,-0.96715,-1.90088,0.44345,0.67633,0.40334,-0.42807,1.31602,1.99321,-3.99956
-0.38351,1.71653,-0.10142,0.21575,0.00774,0.54357,1.14567,0.83998,-0.39208,1.20911,-1.00613,-2.11942,0.44603,0.66792,0.40725,-0.43483,0.04746,4.67610,-4.14534
-0.37963,1.71589,-0.09538,0.22928,-0.00377,0.52000,1.12537,0.84361,-0.43318,1.16747,-0.97906,-1.85980,0.44800,0.66049,0.41117,-0.44044,-1.85876,2.48900,-3.51382
-0.37556,1.71503,-0.08968,0.24272,-0.01610,0.49657,1.08593,0.73463,-0.45249,1.01091,-0.88452,-1.66241,0.44859,0.65504,0.41604,-0.44340,-1.92214,-4.50707,-2.84455
-0.37158,1.71416,-0.08414,0.25174,-0.02592,0.47570,1.01253,0.53455,-0.41034,0.49733,-0.61011,-1.43101,0.44697,0.65270,0.42086,-0.44393,-5.64065,-14.13893,1.85809
-0.36775,1.71332,-0.07883,0.25666,-0.03320,0.45563,0.97070,0.38362,-0.36298,0.12876,-0.42231,-1.46313,0.44484,0.65027,0.42574,-0.44499,-3.72930,-12.66463,2.44492
-0.36406,1.71250,-0.07398,0.25846,-0.03862,0.43286,0.94939,0.29185,-0.31990,0.00591,-0.38150,-1.74620,0.44273,0.64733,0.43039,-0.44690,-1.29651,-7.67979,2.34500
-0.36045,1.71161,-0.06968,0.25854,-0.04397,0.40656,0.92533,0.25926,-0.27808,-0.06265,-0.42210,-1.93888,0.44107,0.64403,0.43415,-0.44967,-1.67133,-3.66943,3.13519
-0.35690,1.71057,-0.06580,0.25786,-0.05045,0.37953,0.89541,0.23698,-0.23673,-0.02971,-0.60236,-1.92920,0.43943,0.64091,0.43747,-0.45250,-1.58094,-1.32204,2.66924
-0.35334,1.70917,-0.06220,0.25731,-0.06111,0.35395,0.86582,0.20185,-0.20483,0.02926,-0.92514,-1.79151,0.43765,0.63810,0.44090,-0.45486,-2.12390,-1.95346,2.81996
-0.34976,1.70749,-0.05864,0.25709,-0.07348,0.33333,0.81560,0.12065,-0.18703,0.07301,-1.17681,-1.77599,0.43566,0.63637,0.44464,-0.45556,-3.00394,-4.63362,1.45180
-0.34616,1.70538,-0.05586,0.25758,-0.08970,0.30553,0.69220,-0.08217,-0.15115,0.11959,-0.86480,-1.82822,0.43245,0.63830,0.44827,-0.45234,-8.08625,-12.86981,2.14114
-0.34241,1.70344,-0.05342,0.26016,-0.10016,0.27831,0.59288,-0.17439,-0.15234,0.06487,-0.55135,-1.98629,0.43087,0.63879,0.45132,-0.45013,-7.57635,-9.17507,-0.03833
-0.33857,1.70167,-0.05121,0.26348,-0.10562,0.25345,0.54381,-0.16956,-0.16350,0.25429,-0.27760,-2.04902,0.43019,0.63754,0.45401,-0.44985,-5.57958,-2.08299,-0.91702
-0.33427,1.69980,-0.05000,0.27313,-0.11175,0.21852,0.55718,-0.00530,-0.23852,0.61119,-0.34156,-1.66120,0.43245,0.63224,0.45641,-0.45272,-0.07772,8.59619,-3.91798
-0.32969,1.69762,-0.04824,0.28519,-0.12159,0.19880,0.66137,0.17042,-0.35726,1.18811,-0.82269,-1.21482,0.43515,0.62400,0.46093,-0.45696,6.71523,13.85379,-6.50843
-0.32461,1.69513,-0.04636,0.30254,-0.13401,0.18513,0.69490,0.11487,-0.48320,1.71712,-1.09791,-0.98768,0.43645,0.61863,0.46767,-0.45618,5.61876,3.07502,-10.03391
-0.31924,1.69246,-0.04432,0.32054,-0.14644,0.17682,0.63920,-0.16556,-0.58759,1.33863,-0.82029,-0.41705,0.43557,0.61790,0.47613,-0.44920,-4.07139,-17.62337,-8.66752
-0.31365,1.68983,-0.04211,0.33811,-0.15559,0.17298,0.64037,-0.43182,-0.69649,1.16069,-0.37545,-0.17433,0.43374,0.61677,0.48648,-0.44136,-2.25812,-20.42212,-8.46824
-0.30710,1.68750,-0.04012,0.36990,-0.15748,0.16555,0.79430,-0.64325,-0.90941,1.04347,0.34577,-0.25377,0.43201,0.61196,0.50078,-0.43370,5.81701,-5.18162,-7.00311
-0.29579,1.68339,-0.03571,0.38563,-0.15329,0.16248,0.90821,-0.66548,-1.00175,1.14255,0.17550,-0.18639,0.43020,0.60181,0.52064,-0.42624,9.63534,-0.27792,-6.96797
-0.28949,1.68147,-0.03344,0.39992,-0.14994,0.16266,0.98401,-0.75273,-1.06553,1.11683,0.23490,0.18817,0.42801,0.59648,0.53292,-0.42073,5.17247,-5.68165,-5.35126
-0.28306,1.67947,-0.03088,0.41307,-0.14874,0.16729,1.06133,-0.85886,-1.12550,1.26177,0.00882,0.48644,0.42501,0.59105,0.54611,-0.41446,6.11538,-6.69831,-4.63153
-0.27625,1.67746,-0.02794,0.42896,-0.14780,0.17642,1.08791,-1.12305,-1.19595,1.31332,-0.01263,0.66592,0.41971,0.58815,0.56137,-0.40348,2.98645,-15.62143,-6.17898
-0.26901,1.67548,-0.02459,0.44827,-0.14657,0.19005,1.10079,-1.44600,-1.29951,1.19488,0.21469,1.03817,0.41322,0.58605,0.57831,-0.38904,-2.01379,-21.15484,-7.57924
-0.26180,1.67356,-0.02114,0.46301,-0.14476,0.20241,1.14870,-1.63914,-1.37827,1.09643,0.10749,1.11248,0.40699,0.58214,0.59487,-0.37629,3.36100,-16.33056,-8.23879
-0.25456,1.67146,-0.01737,0.47487,-0.14608,0.21648,1.20704,-1.79414,-1.44522,0.79320,-0.29000,1.32910,0.40022,0.57755,0.61172,-0.36340,3.16731,-14.57501,-6.60000
-0.24716,1.66884,-0.01304,0.48615,-0.15469,0.23557,1.33002,-1.91735,-1.53578,0.65418,-0.80736,1.44843,0.39279,0.57052,0.63033,-0.35057,7.64080,-10.03544,-5.90048
-0.23971,1.66549,-0.00825,0.49611,-0.17238,0.25777,1.47638,-2.00672,-1.63579,0.61301,-1.28726,1.37942,0.38520,0.56166,0.64964,-0.33783,8.65332,-7.18458,-5.48039
-0.23207,1.66183,-0.00344,0.50715,-0.19123,0.27581,1.58163,-2.06056,-1.75772,0.92616,-1.43411,1.17596,0.37870,0.55184,0.66852,-0.32426,9.40918,-4.15115,-7.15891
-0.22397,1.65799,0.00140,0.52262,-0.20873,0.29071,1.66501,-2.06448,-1.91213,1.16441,-1.14208,0.99430,0.37386,0.54039,0.68711,-0.30997,6.96176,-1.42588,-9.95926
-0.21571,1.65413,0.00621,0.53703,-0.22273,0.30181,1.76132,-2.00936,-2.03130,1.03733,-1.17331,0.94086,0.36968,0.52727,0.70506,-0.29702,8.90640,3.22949,-9.29959
-0.20737,1.64987,0.01133,0.54959,-0.23963,0.31536,1.84448,-1.98262,-2.13718,0.81503,-1.40468,0.97783,0.36507,0.51356,0.72295,-0.28341,10.41487,3.85005,-6.22894
-0.19950,1.64502,0.01702,0.55237,-0.26177,0.33425,1.79692,-2.14550,-2.23506,-0.23362,-1.64953,1.26364,0.35754,0.50382,0.74064,-0.26416,-1.96972,-7.49260,-8.09425
-0.19240,1.63981,0.02296,0.54338,-0.28502,0.35341,1.74159,-2.30481,-2.27807,-1.02583,-1.60982,1.55185,0.34853,0.49501,0.75737,-0.24473,-6.65954,-11.56101,-6.91787
-0.18554,1.63446,0.02913,0.53321,-0.30524,0.37175,1.81426,-2.35452,-2.29314,-0.94970,-1.43179,1.67962,0.33937,0.48256,0.77446,-0.22842,0.03736,-7.91692,-2.68052
-0.17865,1.62863,0.03573,0.52555,-0.32793,0.39219,2.05000,-2.28372,-2.27777,-0.39419,-1.50498,1.33086,0.33033,0.46452,0.79250,-0.21690,15.12937,0.53581,3.50976
-0.17132,1.62245,0.04252,0.52595,-0.35152,0.41153,2.30499,-2.14101,-2.27183,0.26184,-1.55441,1.12540,0.32283,0.44350,0.81000,-0.20734,17.45327,5.86160,4.58279
-0.16377,1.61614,0.04915,0.52923,-0.37227,0.42468,2.50016,-2.03711,-2.25159,0.22734,-2.00817,1.08058,0.31481,0.42257,0.82660,-0.19763,15.94589,5.60162,4.63683
-0.15648,1.60809,0.05606,0.52790,-0.41433,0.43910,2.77046,-1.96707,-2.25287,-0.27274,-3.35747,0.73057,0.30548,0.39786,0.84433,-0.18838,18.74702,2.64223,4.65071
-0.14986,1.59883,0.06277,0.51697,-0.46616,0.44786,2.93063,-1.99768,-2.35085,-1.01241,-4.27271,0.50054,0.29557,0.37375,0.86176,-0.17413,12.25717,-2.64130,-3.99017
-0.14350,1.58920,0.06928,0.50487,-0.51129,0.45175,3.10781,-2.00752,-2.45222,-1.36335,-4.63172,0.44933,0.28565,0.34721,0.87884,-0.15963,13.10208,-2.55873,-8.30903
-0.13813,1.57636,0.07562,0.48150,-0.59228,0.45232,3.61084,-1.95566,-2.54284,-1.80337,-5.16843,-0.25693,0.27414,0.30873,0.89848,-0.14924,30.27257,-2.09319,-2.86453
-0.13346,1.56215,0.08103,0.45175,-0.67884,0.43906,4.21905,-1.85850,-2.50990,-2.17358,-5.56506,-1.35048,0.26090,0.26449,0.91716,-0.14424,38.06715,-2.24887,6.65715
-0.12879,1.54884,0.08604,0.42866,-0.73445,0.42346,4.58198,-1.81856,-2.45401,-2.54639,-5.67182,-1.78635,0.24686,0.22376,0.93269,-0.13812,37.15178,-3.36481,10.22920
-0.12681,1.53155,0.08937,0.37101,-0.83515,0.38637,5.11194,-1.90486,-2.38700,-3.81602,-5.75793,-2.38552,0.22670,0.17545,0.94873,-0.13318,29.45743,-10.62148,6.64678
-0.12605,1.51482,0.09238,0.30598,-0.90995,0.35150,5.32786,-2.13974,-2.43975,-5.21191,-5.28741,-2.72256,0.20384,0.13331,0.96233,-0.12080,16.41913,-15.92744,-5.67852
-0.12807,1.49675,0.09404,0.21196,-0.99048,0.30316,5.56547,-2.51688,-2.50483,-6.46462,-4.84322,-3.34064,0.17442,0.08955,0.97482,-0.10620,10.95869,-22.69672,-11.42318
-0.13129,1.47864,0.09488,0.11858,-1.05559,0.25181,5.83779,-2.91358,-2.57296,-7.00597,-4.39151,-3.89099,0.14111,0.04308,0.98487,-0.09094,15.82971,-25.72060,-12.86988
-0.13535,1.46059,0.09481,0.03366,-1.10536,0.19853,6.13634,-3.33188,-2.53894,-7.22294,-3.76606,-4.79228,0.10273,-0.00531,0.99162,-0.07819,17.69242,-33.53960,-10.73902
-0.14153,1.44213,0.09243,-0.06370,-1.15014,0.12296,6.38223,-3.80851,-2.50756,-6.85819,-2.68992,-6.14957,0.05891,-0.05373,0.99471,-0.06483,15.32483,-37.16536,-9.21310
-0.14949,1.42421,0.08729,-0.16866,-1.17794,0.02087,6.42599,-4.26437,-2.55843,-6.36029,-0.87507,-7.18850,0.01351,-0.09734,0.99400,-0.04812,2.92133,-26.78956,-14.16323
-0.15752,1.40770,0.08085,-0.25420,-1.17931,-0.08073,6.29156,-4.58068,-2.65633,-6.01875,0.76054,-7.75706,-0.02954,-0.13552,0.98990,-0.02935,-8.08731,-16.71466,-17.39014
-0.16636,1.39271,0.07226,-0.33389,-1.15740,-0.19325,6.04314,-4.85394,-2.73166,-5.59708,2.54891,-8.65941,-0.07297,-0.16860,0.98292,-0.01051,-14.19235,-12.29153,-18.86122
-0.17528,1.37923,0.06247,-0.39708,-1.11812,-0.29862,5.74792,-5.03183,-2.82297,-4.94895,4.14689,-9.44105,-0.11499,-0.19797,0.97340,0.00914,-20.29920,-8.26217,-18.88256
-0.18515,1.36840,0.04927,-0.46014,-1.04865,-0.43060,5.34222,-5.05486,-2.97862,-3.89383,5.53152,-9.81455,-0.15283,-0.22129,0.96264,0.03156,-22.65725,5.91375,-20.32215
-0.19480,1.35961,0.03331,-0.50723,-0.96304,-0.57762,4.98360,-4.67434,-3.21039,-1.43836,5.87472,-9.79399,-0.17821,-0.24349,0.95162,0.05802,-15.43573,19.43859,-13.14435
-0.20383,1.35434,0.01535,-0.53683,-0.83970,-0.72703,4.64805,-4.42835,-3.33585,-3.11591,12.02400,-10.98210,-0.20437,-0.26355,0.93914,0.08236,-10.40746,46.30490,-10.35622
-0.21295,1.35475,-0.00623,-0.56123,-0.65786,-0.89904,4.21695,-5.19117,-3.01877,-1.80604,14.20889,-12.01141,-0.25919,-0.27823,0.92074,0.08745,-37.95369,-29.94082,-6.45387
-0.22008,1.35976,-0.03222,-0.54979,-0.44242,-1.10397,3.79534,-6.57466,-2.45895,2.86045,13.58418,-13.28582,-0.33544,-0.29108,0.89270,0.07644,-51.45710,-87.18066,-6.35980
-0.22443,1.36491,-0.05799,-0.49894,-0.27045,-1.26197,3.57204,-7.29902,-2.03166,6.33369,15.35845,-13.65886,-0.39815,-0.30721,0.86171,0.06750,-39.59988,-73.95979,-0.07048
-0.22567,1.37438,-0.08602,-0.41461,-0.07510,-1.41594,3.31259,-7.67927,-1.66721,8.67157,17.32524,-12.68819,-0.45330,-0.32034,0.82982,0.05742,-37.55564,-44.34712,7.28633
-0.22163,1.39267,-0.11760,-0.26964,0.20972,-1.58975,2.81935,-7.88707,-1.39125,10.00606,18.55566,-9.49806,-0.50433,-0.32426,0.79902,0.04551,-34.81434,-12.18793,-1.29342
-0.21437,1.41557,-0.14821,-0.10245,0.51292,-1.71734,2.03354,-8.12212,-1.27898,10.91710,20.29325,-6.75365,-0.55663,-0.31553,0.76786,0.03167,-43.33185,-8.09765,-18.36351
-0.20677,1.43901,-0.17691,0.03445,0.75994,-1.78959,1.22536,-8.51183,-1.30653,11.40373,22.08912,-5.39775,-0.61291,-0.29907,0.73120,0.01587,-51.91383,-15.55383,-36.08709
-0.19451,1.47123,-0.20653,0.21034,1.08323,-1.85948,0.02419,-9.43163,-1.51436,12.76876,25.47962,-4.58574,-0.68252,-0.26197,0.68223,-0.00972,-61.79053,-46.26879,-58.87694
-0.17805,1.51169,-0.23644,0.41224,1.46216,-1.91927,-1.40073,-10.75320,-2.01334,15.26957,29.91304,-4.00533,-0.76069,-0.20367,0.61497,-0.04104,-65.91769,-83.47759,-85.43005
-0.16586,1.54822,-0.25757,0.62986,1.88286,-1.97096,-2.73743,-12.19863,-3.07179,13.01885,25.61721,-5.38043,-0.83834,-0.12425,0.52688,-0.06434,-58.71811,-103.41070,-114.51000
-0.16245,1.58345,-0.27613,0.88017,2.35316,-1.99829,-4.19762,-13.24352,-4.67285,24.03041,40.93029,0.78538,-0.90001,-0.01875,0.42861,-0.07698,10.70179,-134.70610,-112.85670
-0.16090,1.62731,-0.29176,1.18031,2.89976,-2.00030,-5.20938,-12.63793,-7.27108,24.92293,38.53042,0.99810,-0.92476,0.11270,0.35989,-0.05099,72.66728,-48.62847,-184.22800
-0.15438,1.67752,-0.30663,1.56627,3.46169,-1.99954,-4.76293,-11.30902,-9.87529,32.54614,39.62180,0.80617,-0.92384,0.23018,0.30550,0.01421,170.57990,-28.15089,-132.11360
-0.13490,1.73533,-0.32159,2.03470,3.97337,-1.96427,-3.74087,-9.60429,-12.07804,47.43178,44.71464,5.91387,-0.89777,0.33842,0.26552,0.09479,195.33910,-53.45919,-71.92844
-0.07701,1.80397,-0.32888,3.09123,4.73167,-1.79220,-1.06403,-7.40454,-15.44398,72.36898,37.62580,14.70509,-0.82276,0.45503,0.23914,0.24254,237.65920,-110.58240,-80.40170
0.00253,1.86881,-0.32947,4.25326,5.14218,-1.49070,0.90303,-6.76368,-17.57001,94.29122,20.24176,28.08430,-0.73275,0.54988,0.17469,0.36083,160.89120,-151.54520,-76.78434
0.09339,1.92811,-0.32368,5.25756,5.24828,-1.13434,1.99873,-6.53694,-18.94428,108.50800,1.14802,43.47118,-0.62596,0.62968,0.09733,0.44967,82.52704,-134.80370,-85.50246
0.22195,1.95152,-0.28144,7.00774,4.94037,-0.28088,4.19895,-6.54554,-20.59448,109.31700,-41.58795,66.65691,-0.47160,0.68182,0.01722,0.55895,58.36380,-132.14340,-81.62326
0.35939,1.94241,-0.21860,8.47026,4.09543,0.78707,7.14810,-7.22982,-21.20434,100.29570,-83.49374,91.27938,-0.30039,0.67668,-0.05594,0.66989,7.50802,-177.25460,-52.16916
0.49735,1.88186,-0.12458,9.65099,2.55702,2.15274,9.93905,-7.55897,-22.62618,69.98730,-141.35370,101.84210,-0.07532,0.64997,-0.12701,0.74548,-23.36438,-227.16420,-147.14770
0.61131,1.77419,-0.02128,10.14368,0.54425,3.39694,11.21630,-5.11585,-24.54981,17.49237,-196.27490,100.33220,0.16762,0.65646,-0.16542,0.71666,145.54860,-125.99750,-69.24586
0.61945,1.55359,0.09778,9.50953,-2.90296,4.79802,16.55829,2.31926,-24.90634,-90.06624,-233.84590,68.92506,0.47536,0.66620,-0.03191,0.57376,389.16080,-355.71700,-76.32363
0.54812,1.32380,0.17116,7.66389,-6.18677,5.37795,26.28180,8.31189,-21.42242,-167.19220,-238.10270,7.07123,0.75146,0.51910,0.22055,0.34235,314.02720,-469.03940,-542.77110
0.40679,1.08864,0.18492,4.94842,-9.35060,5.00947,39.96484,8.40133,-16.78992,-226.19540,-213.26960,-67.94505,0.88701,0.08425,0.45381,0.01315,454.02040,77.98154,-957.94120
0.41640,0.88426,0.12627,1.49118,-11.48272,3.04413,44.78492,-0.24394,-14.91324,-246.42580,-58.61901,-172.84640,0.79170,-0.34482,0.48579,-0.13532,533.39930,621.97320,-346.71390
0.51235,0.79413,0.02842,-1.41397,-11.00950,0.52337,35.29371,-6.66435,-15.74333,-156.31110,99.54312,-146.15750,0.73165,-0.49601,0.46730,-0.01703,-177.42670,820.40980,-18.79501
0.52274,0.76291,-0.03120,-2.60624,-9.50800,-0.70763,22.73934,-2.77804,-17.01443,-56.76149,132.33890,-61.02055,0.80989,-0.45120,0.34523,0.14598,-253.74070,693.87150,772.24690
0.51906,0.76029,-0.05687,-3.03750,-7.81416,-1.12475,13.97926,1.55253,-13.44688,0.62334,118.76240,-12.29051,0.87722,-0.31895,0.26467,0.24229,-224.26320,491.20550,745.67450
0.50066,0.73766,-0.06299,-3.09053,-6.68763,-1.08013,12.05410,0.20347,-8.33126,3.86162,83.58823,13.82561,0.87676,-0.28106,0.33928,0.19283,-272.84200,-195.76400,419.98380
0.46856,0.71788,-0.05062,-3.17112,-5.73544,-0.76225,8.73762,-4.46180,-6.44054,-11.01757,56.03534,26.56821,0.78929,-0.31987,0.47268,0.22647,-375.63070,-247.85540,-96.27995
0.42443,0.69868,-0.02730,-3.30079,-4.91971,-0.32773,4.18790,-5.07951,-6.52308,-10.18175,37.96667,20.46194,0.72724,-0.33241,0.50318,0.32779,-238.48960,74.43452,-101.95010
0.37693,0.66655,-0.01295,-3.37461,-4.41843,-0.07296,1.86265,-2.86815,-6.44415,-5.06886,37.79116,16.79256,0.72512,-0.32757,0.46138,0.39247,-103.08870,220.43980,-6.35975
0.32929,0.64634,0.00431,-3.43027,-3.84836,0.17595,0.39893,-1.05392,-6.28356,-0.38997,35.95263,14.63459,0.72317,-0.32420,0.41755,0.44450,-39.82148,160.95420,8.47967
0.28458,0.62321,0.01922,-3.41669,-3.42923,0.35017,-0.20619,-0.75166,-6.05406,3.53306,33.97295,15.28225,0.70649,-0.34085,0.40158,0.47268,-23.99755,81.46909,13.45647
0.24622,0.61304,0.04205,-3.33335,-2.91938,0.60525,-1.45794,-1.37270,-5.69796,5.80804,28.24760,16.25011,0.66521,-0.35250,0.41565,0.51037,-82.96486,-8.22905,17.31403
0.20951,0.59554,0.06361,-3.23656,-2.60861,0.79066,-2.72799,-1.55811,-5.22703,8.30736,22.75658,13.82963,0.62380,-0.35095,0.42667,0.55287,-106.82350,17.94450,10.14071
0.17674,0.58002,0.08608,-3.10533,-2.33131,0.95177,-4.09594,-1.54040,-4.13090,7.51850,19.71505,9.13341,0.58482,-0.32287,0.44916,0.59330,-104.83760,45.72196,69.00336
0.15423,0.58943,0.10571,-2.88506,-1.67710,1.05031,-5.05458,0.19536,-3.07405,7.28491,28.14119,-1.86279,0.57137,-0.26796,0.43699,0.64092,-7.48362,83.86213,9.06628
0.08533,0.57159,0.13019,-2.76908,-1.26626,0.99223,-4.79688,0.72372,-3.04879,8.40993,31.32801,-6.32260,0.52818,-0.25258,0.41237,0.69798,20.73277,36.47042,-7.83681
0.06506,0.58397,0.13295,-2.63337,-0.86151,0.87419,-3.94214,1.47651,-3.35344,8.81908,27.58045,-10.46483,0.52793,-0.25115,0.37413,0.71988,51.10181,26.73631,-30.91924
0.03860,0.59124,0.13580,-2.51000,-0.57937,0.74745,-2.76768,2.20051,-3.80968,10.59504,21.04252,-10.50898,0.53803,-0.25782,0.32295,0.73468,96.49475,29.04426,-60.10507
0.01773,0.59982,0.13578,-2.34580,-0.33693,0.61196,-1.73259,2.45372,-4.09578,13.22013,13.67003,-7.95826,0.54657,-0.27025,0.27816,0.74219,87.34853,1.85059,-50.20182
0.00245,0.60675,0.13475,-2.13251,-0.15749,0.48940,-1.23847,1.93929,-3.89285,14.21326,7.66858,-5.89597,0.54272,-0.28494,0.26183,0.74546,24.99575,-33.44421,-1.07892
-0.01355,0.61001,0.13570,-1.94484,-0.07492,0.40881,-1.40792,1.04776,-3.02917,13.81358,3.84288,-5.25696,0.52791,-0.28998,0.27753,0.74846,-10.54154,-45.82026,62.37329
-0.02430,0.61160,0.13477,-1.73062,-0.02845,0.32020,-1.69583,-0.14716,-1.94777,12.55383,2.62199,-5.57749,0.50748,-0.29767,0.31338,0.74542,-32.34949,-66.20509,78.57582
-0.03647,0.61240,0.13437,-1.57300,-0.00349,0.25501,-1.72376,-0.77314,-1.34335,12.01264,2.29496,-5.26533,0.49254,-0.30503,0.33439,0.74333,-17.61102,-53.01665,65.01559
-0.04420,0.61390,0.13252,-1.37457,0.02253,0.17926,-1.53346,-1.16130,-0.85817,11.55045,1.68343,-4.59566,0.48386,-0.31239,0.35148,0.73807,2.65800,-27.00039,37.76330
-0.05310,0.61501,0.13153,-1.23262,0.03498,0.13236,-1.19592,-1.13330,-0.71345,10.78191,0.91695,-3.29675,0.48158,-0.31830,0.35430,0.73569,22.50715,-4.65299,20.90113
-0.05905,0.61602,0.13056,-1.08037,0.04375,0.09597,-0.90636,-1.03815,-0.70002,10.73375,0.67801,-1.96524,0.47997,-0.32450,0.35280,0.73475,26.92718,8.13117,4.53486
-0.06340,0.61737,0.12968,-0.93056,0.05320,0.06687,-0.72156,-1.17558,-0.52238,10.21482,-0.81244,-0.20247,0.47598,-0.33288,0.35940,0.73039,17.51401,-13.27573,-1.81718
-0.06653,0.61747,0.13060,-0.78872,0.03737,0.06974,-1.14683,-1.07698,-0.08465,8.24385,-1.42601,0.11257,0.46306,-0.32359,0.37602,0.73449,-31.11157,3.88593,22.89919
-0.07176,0.61716,0.13144,-0.70699,0.02189,0.06946,-1.16721,-0.99181,0.07391,8.04390,-1.09683,-0.55355,0.45639,-0.32117,0.38444,0.73537,-18.63120,13.23933,23.95645
-0.07266,0.61608,0.13187,-0.58055,-0.00122,0.06338,-1.04964,-0.76891,0.27047,7.46701,-1.46202,-0.40416,0.45603,-0.31534,0.39062,0.73486,6.75259,14.28347,11.93513
-0.07298,0.61485,0.13206,-0.46815,-0.02318,0.05506,-0.85643,-0.50284,0.37175,6.47003,-1.25393,-0.62982,0.45856,-0.30970,0.39300,0.73441,10.07685,16.79799,7.49574
-0.07591,0.61398,0.13238,-0.41770,-0.03294,0.04968,-0.73586,-0.36168,0.37946,6.05204,-1.16175,-0.71329,0.45873,-0.30658,0.39488,0.73460,12.94204,17.94482,3.36748
-0.07461,0.61260,0.13184,-0.31658,-0.05147,0.03442,-0.45644,-0.07504,0.30419,5.35835,-1.02236,-0.89193,0.46529,-0.30271,0.38970,0.73485,15.21334,16.52702,-4.31327
-0.07370,0.61144,0.13104,-0.23592,-0.06469,0.01823,-0.28447,0.10272,0.23168,5.07928,-0.96970,-0.87733,0.46941,-0.29977,0.38584,0.73548,12.78413,12.69499,-5.24180
-0.07311,0.61022,0.13035,-0.17765,-0.07323,0.00604,-0.22457,0.19651,0.18832,4.90755,-0.73595,-0.96237,0.47101,-0.29681,0.38402,0.73661,5.61262,7.76762,-3.96398
-0.06971,0.60863,0.12898,-0.08780,-0.08605,-0.01324,-0.13256,0.38843,0.06843,5.14813,-0.86306,-1.14935,0.47424,-0.29289,0.37779,0.73932,4.23943,9.84698,-7.29187
-0.06696,0.60688,0.12769,-0.02552,-0.09786,-0.02798,-0.03036,0.53570,0.00616,5.47455,-1.17979,-1.24158,0.47844,-0.28893,0.37219,0.74101,7.38902,12.23327,-6.40894
-0.06157,0.60424,0.12587,0.06220,-0.11973,-0.04806,0.13883,0.75794,-0.02437,5.68790,-1.60123,-1.29498,0.48626,-0.28315,0.36443,0.74201,9.77039,13.40163,-3.09814
-0.05583,0.60129,0.12380,0.14139,-0.14379,-0.06694,0.33109,0.99371,-0.00307,5.85877,-1.88001,-1.37178,0.49652,-0.27584,0.35630,0.74191,12.39766,15.48725,0.58500
-0.04943,0.59797,0.12166,0.21164,-0.16719,-0.08326,0.53221,1.22023,0.02210,6.10443,-2.07262,-1.31666,0.50857,-0.26788,0.34706,0.74105,16.36660,18.58948,1.00379
-0.04097,0.59388,0.11918,0.29638,-0.19649,-0.10113,0.77201,1.51147,0.10391,6.36447,-2.20613,-1.19321,0.52449,-0.25687,0.33644,0.73874,17.97702,20.98890,3.10986
-0.03132,0.58958,0.11645,0.38311,-0.22304,-0.11887,0.94851,1.76251,0.28092,6.57609,-1.73824,-1.26722,0.54109,-0.24314,0.32829,0.73508,14.60864,18.62379,10.50446
-0.02026,0.58558,0.11351,0.47221,-0.23945,-0.13648,1.05680,2.00956,0.47981,6.49195,-0.85842,-1.04718,0.55767,-0.22660,0.32093,0.73121,11.49032,16.85446,14.78141
-0.00733,0.58269,0.11038,0.57308,-0.23965,-0.15536,1.08085,2.26997,0.68270,6.33911,0.55128,-1.21800,0.57330,-0.20686,0.31393,0.72800,3.27372,15.44407,14.69843
0.00497,0.58101,0.10746,0.64601,-0.22598,-0.16877,1.05348,2.47477,0.79128,6.27167,1.34780,-1.02776,0.58694,-0.18744,0.30578,0.72585,0.44896,15.61856,10.65984
0.01844,0.58021,0.10449,0.71863,-0.20247,-0.18053,0.99558,2.71842,0.88241,6.06598,2.17426,-0.86638,0.60016,-0.16511,0.29627,0.72441,-3.59042,17.20770,10.94489
0.03535,0.58136,0.10185,0.82561,-0.15318,-0.18444,0.92608,3.38191,0.77107,5.57947,3.23552,0.29978,0.61521,-0.13403,0.27303,0.72733,-6.44521,34.01039,-0.63688
0.05188,0.58323,0.09997,0.90773,-0.10332,-0.17728,0.87315,4.10904,0.53796,6.07323,3.73197,0.41005,0.62998,-0.10097,0.24165,0.73112,-8.72134,50.95808,-11.65468
0.06901,0.58560,0.09747,0.97917,-0.05524,-0.18117,0.76698,4.65261,0.40196,6.34754,3.91748,-1.20524,0.64201,-0.06682,0.21149,0.73392,-12.13104,51.74194,-8.47900
0.08772,0.58915,0.09325,1.05552,-0.00114,-0.20987,0.59730,5.07942,0.35545,5.19220,3.71193,-2.91255,0.65087,-0.03052,0.18272,0.73625,-13.45452,33.66668,2.34587
0.10735,0.59405,0.08711,1.13050,0.05863,-0.26315,0.48669,5.53505,0.15698,4.52261,3.85023,-3.98898,0.65877,0.00490,0.14699,0.73783,-11.41545,27.95942,-6.08572
0.12707,0.59912,0.07990,1.19104,0.11333,-0.32032,0.35838,5.83534,0.04501,4.55573,3.79182,-4.37873,0.66413,0.03976,0.11326,0.73792,-11.28682,26.51785,-7.68018
0.14736,0.60547,0.07172,1.24477,0.17287,-0.37956,0.10722,5.88259,0.14938,3.89849,4.21710,-4.37756,0.66429,0.07477,0.08847,0.73844,-12.05961,8.38692,8.80941
0.16781,0.61330,0.06262,1.28907,0.24046,-0.44049,-0.21991,5.73118,0.41785,2.93925,5.04672,-4.66927,0.65974,0.10960,0.07242,0.73992,-14.51639,-8.64228,25.11735
0.18820,0.62231,0.05226,1.32357,0.31616,-0.50580,-0.52973,5.52697,0.71680,2.11908,5.67630,-4.87085,0.65258,0.14415,0.06011,0.74145,-11.74416,-14.48312,28.51556
0.20861,0.63359,0.04104,1.34849,0.39897,-0.57556,-0.79903,5.35995,0.99398,1.19082,6.13168,-5.44544,0.64357,0.17920,0.04857,0.74252,-10.31791,-12.59654,27.93926
0.22857,0.64670,0.02823,1.36041,0.48863,-0.65419,-0.96566,5.27227,1.21595,0.07584,6.75189,-5.94627,0.63464,0.21480,0.03589,0.74148,-5.35468,-8.04967,21.73338
0.24757,0.66018,0.01467,1.35738,0.57162,-0.72334,-1.09764,5.25103,1.31768,-0.96142,7.14822,-5.68224,0.62486,0.24961,0.02010,0.73949,-5.13968,-2.77723,14.66551
0.26579,0.67722,-0.00021,1.33932,0.67641,-0.79782,-1.26877,5.22775,1.40477,-1.99052,7.72197,-4.98438,0.61221,0.28417,0.00408,0.73785,-9.44407,-0.27921,9.10588
