posX, posY, posZ, velX, velY, velZ, angVelX, angVelY, angVelZ, accX, accY, accZ, rotX, rotY, rotZ, rotW, angAccX, angAccY, angAccZ
0.40848,1.05258,-0.29471,0.00565,0.38074,-0.31291,0.78588,0.28495,0.74511,-0.62549,1.75823,-1.48960,0.08897,0.69011,-0.25567,0.67116,-2.45290,-0.53832,3.95423
0.40808,1.05928,-0.30027,-0.00372,0.40488,-0.33393,0.82212,0.30388,0.79228,-0.75325,1.59302,-1.62386,0.08816,0.69403,-0.24697,0.67049,1.90435,1.42465,3.93932
0.40749,1.06632,-0.30638,-0.01457,0.42959,-0.35974,0.92787,0.33036,0.80426,-0.66295,1.42172,-1.66508,0.08919,0.69861,-0.23723,0.66912,5.18795,1.60939,1.11704
0.40688,1.07349,-0.31262,-0.02271,0.45122,-0.38169,1.12180,0.35102,0.79524,-0.54971,1.46727,-1.63875,0.09269,0.70382,-0.22561,0.66719,11.39052,2.04931,-0.10565
0.40627,1.08093,-0.31898,-0.02907,0.47237,-0.40005,1.39128,0.38292,0.78516,-0.56397,1.84282,-1.60694,0.09859,0.71004,-0.21152,0.66437,19.11048,3.43194,-2.03153
0.40542,1.08922,-0.32577,-0.03813,0.50279,-0.42070,1.75369,0.40897,0.77482,-0.83632,2.44824,-1.45099,0.10766,0.71710,-0.19404,0.66071,25.49931,3.81643,-0.87832
0.40419,1.09830,-0.33274,-0.05088,0.53891,-0.43980,2.08557,0.39097,0.78308,-1.11321,2.84498,-1.26305,0.11769,0.72343,-0.17486,0.65744,24.56875,1.14920,-0.15914
0.40257,1.10855,-0.34004,-0.06944,0.58798,-0.46042,2.46112,0.34862,0.79745,-1.33614,3.45083,-1.41032,0.12995,0.72939,-0.15288,0.65401,23.99353,-2.05847,-0.47393
0.40048,1.11955,-0.34767,-0.09138,0.63851,-0.48208,2.71107,0.28473,0.77914,-2.18027,3.68533,-1.56739,0.14206,0.73406,-0.13193,0.65082,20.22257,-2.32021,1.31625
0.39664,1.13162,-0.35568,-0.13876,0.69533,-0.50481,2.98806,0.03881,0.98973,-3.93848,3.96776,-2.34217,0.15237,0.73565,-0.10468,0.65164,17.47515,-3.14437,-1.61003
0.39292,1.14447,-0.36449,-0.17075,0.75137,-0.53616,3.13507,0.30885,0.92066,-0.45443,6.47361,-2.68929,0.16402,0.74415,-0.08424,0.64206,18.95134,-2.60169,-5.11349
0.38926,1.16026,-0.37431,-0.19558,0.84395,-0.57704,3.27679,0.57073,1.14126,-3.01773,5.15302,-2.72332,0.16956,0.75419,-0.05797,0.63173,2.33928,16.73710,23.02489
0.38387,1.17628,-0.38429,-0.24333,0.91949,-0.61119,3.56472,0.77463,1.27611,-3.68445,5.59373,-2.20382,0.17935,0.76371,-0.02858,0.61949,22.70011,12.46735,11.46410
0.37777,1.19325,-0.39450,-0.29228,0.99378,-0.64108,3.60479,0.90915,1.38363,-3.63301,5.45487,-1.75507,0.18580,0.77191,-0.00270,0.60797,7.89716,9.67303,10.94399
0.37162,1.21009,-0.40452,-0.32863,1.04548,-0.65966,3.53812,0.99089,1.43847,-3.90704,5.23917,-1.70594,0.19089,0.77901,0.02053,0.59690,-4.42698,6.26928,8.00809
0.36291,1.22994,-0.41521,-0.40124,1.13612,-0.68532,3.36651,1.14194,1.55057,-4.29578,4.92662,-1.08653,0.19199,0.78750,0.04187,0.58415,-9.28820,6.35638,7.95065
0.35454,1.24895,-0.42531,-0.45160,1.19189,-0.69567,3.24669,1.23527,1.62236,-4.34311,4.43292,-0.71450,0.19363,0.79497,0.06323,0.57142,-10.77912,4.47453,8.93957
0.34488,1.26891,-0.43519,-0.51148,1.24958,-0.69915,3.17840,1.35367,1.70127,-4.40792,3.78131,0.01038,0.19494,0.80284,0.08517,0.55695,-6.83230,6.66786,7.83503
0.33426,1.28907,-0.44458,-0.57187,1.29679,-0.69342,3.12578,1.45779,1.75272,-4.43045,2.95182,0.74591,0.19639,0.81033,0.10682,0.54165,-3.30384,6.82857,6.03869
0.32297,1.30910,-0.45343,-0.63049,1.33167,-0.68016,3.05396,1.54988,1.74786,-4.22844,2.08353,1.14863,0.19824,0.81731,0.12675,0.52596,-6.22759,5.32991,2.89148
0.31136,1.32895,-0.46182,-0.67922,1.35430,-0.66212,3.04964,1.65412,1.72909,-4.09316,1.64834,1.72078,0.20130,0.82403,0.14730,0.50868,-3.46814,7.99652,0.24058
0.29775,1.34896,-0.46864,-0.75192,1.37475,-0.62182,3.08278,1.76946,1.68978,-4.13268,0.56484,2.65466,0.20549,0.83035,0.16798,0.48998,0.56479,6.91748,-0.67319
0.28436,1.36828,-0.47489,-0.80501,1.37877,-0.57992,3.13219,1.84978,1.60656,-3.70617,0.02488,3.31821,0.21114,0.83541,0.18834,0.47120,2.28861,6.94908,-4.23254
0.27115,1.38738,-0.48089,-0.84009,1.37752,-0.54517,3.15846,1.88984,1.54035,-3.56613,-0.30708,3.72800,0.21658,0.83952,0.20841,0.45262,2.53397,6.93185,-5.18618
0.25591,1.40596,-0.48420,-0.90046,1.36634,-0.47406,3.17098,1.92040,1.40657,-3.19771,-0.91714,4.28135,0.22381,0.84259,0.22688,0.43414,-0.54298,3.24897,-6.96251
0.24112,1.42422,-0.48707,-0.94078,1.35207,-0.41037,3.25640,1.94968,1.29281,-2.75484,-1.19387,4.68998,0.23212,0.84446,0.24684,0.41483,2.68654,3.15002,-8.11567
0.22596,1.44203,-0.48874,-0.97727,1.33368,-0.34115,3.41841,2.00930,1.17296,-2.58077,-1.50104,5.00172,0.24250,0.84511,0.26824,0.39374,8.88886,6.38590,-8.88559
0.21042,1.45941,-0.48927,-1.01142,1.31186,-0.26962,3.60715,2.10237,1.07389,-2.32067,-1.65477,5.24594,0.25391,0.84481,0.29057,0.37067,12.08447,8.59377,-7.48959
0.19464,1.47632,-0.48867,-1.04124,1.28718,-0.19587,3.73545,2.14151,0.98625,-2.02061,-1.92241,5.48225,0.26498,0.84319,0.31240,0.34816,10.32782,6.49936,-6.63222
0.17865,1.49263,-0.48713,-1.06729,1.25886,-0.12312,3.76556,2.12593,0.91027,-1.67405,-2.14754,5.23857,0.27493,0.84073,0.33257,0.32708,2.78551,1.56760,-6.38526
0.16278,1.50860,-0.48526,-1.08470,1.23229,-0.06329,3.73787,2.11354,0.84303,-1.33521,-2.36113,4.91411,0.28426,0.83792,0.35112,0.30627,-1.89903,-0.36432,-5.06139
0.14677,1.52364,-0.48205,-1.09997,1.19669,0.00384,3.70494,2.12161,0.74165,-0.93444,-2.72823,4.79316,0.29461,0.83432,0.36839,0.28531,-3.87643,1.37793,-5.37348
0.13098,1.53810,-0.47805,-1.10793,1.16008,0.06875,3.56339,2.20686,0.66025,-0.17310,-2.57297,4.79730,0.30447,0.83191,0.38200,0.26324,-5.34956,3.69303,-6.13713
0.11549,1.55226,-0.47368,-1.10918,1.12791,0.12412,3.39475,2.19466,0.58167,-0.13008,-2.87154,4.62390,0.31324,0.82892,0.39418,0.24372,-16.07067,3.35122,-1.42680
0.09996,1.56532,-0.46799,-1.11064,1.08603,0.18738,3.23947,2.18316,0.50555,0.01015,-3.07314,4.43034,0.32202,0.82560,0.40528,0.22460,-13.11482,0.08264,-4.31298
0.08470,1.57734,-0.46109,-1.10718,1.03552,0.25687,3.12222,2.19865,0.42703,0.40979,-3.20513,4.19701,0.33144,0.82170,0.41589,0.20490,-8.43683,0.99957,-3.56654
0.06966,1.58901,-0.45397,-1.10001,0.98939,0.31394,3.02256,2.20125,0.36329,0.62068,-3.45263,3.99234,0.34062,0.81728,0.42621,0.18541,-6.80502,1.25915,-3.64276
0.05485,1.59991,-0.44638,-1.09105,0.94127,0.36571,2.86069,2.13349,0.30204,0.75253,-3.54934,3.60578,0.34860,0.81297,0.43488,0.16861,-10.74768,-2.80895,-3.73368
0.04020,1.61005,-0.43841,-1.08136,0.89165,0.41163,2.68417,2.04948,0.25819,0.68683,-3.60315,3.00645,0.35566,0.80889,0.44246,0.15310,-13.34184,-6.12136,-2.89180
0.02562,1.61941,-0.43013,-1.07190,0.83978,0.44989,2.54384,1.98754,0.22613,0.81922,-3.67884,2.34359,0.36253,0.80461,0.44973,0.13753,-11.96093,-5.27615,-1.24230
0.01146,1.62782,-0.42197,-1.05789,0.78472,0.47755,2.43634,1.94516,0.16865,1.20707,-3.86524,1.46337,0.37013,0.79973,0.45661,0.12221,-9.58308,-4.31082,-2.56236
-0.00203,1.63557,-0.41415,-1.03700,0.73194,0.49500,2.44104,2.09003,0.11412,1.48192,-3.55941,0.64960,0.38053,0.79375,0.46347,0.10177,0.92768,4.54656,-6.69780
-0.01512,1.64273,-0.40671,-1.01425,0.68133,0.50190,2.38221,2.29871,0.10911,1.63220,-3.91711,0.32526,0.39077,0.78898,0.46755,0.07878,-2.87806,18.30515,5.20997
-0.02828,1.64995,-0.39966,-0.99870,0.64488,0.50142,2.25483,2.37300,0.09098,1.69163,-3.75020,-0.10153,0.39982,0.78456,0.47024,0.05911,-7.66392,10.37048,0.77347
-0.04035,1.65517,-0.39292,-0.96909,0.58439,0.49540,2.01692,2.52672,0.07837,1.69959,-3.08546,-0.37014,0.40952,0.78213,0.46804,0.03871,-14.14680,8.50620,2.05184
-0.05259,1.66076,-0.38605,-0.94850,0.54144,0.49263,1.86034,2.60756,0.10457,1.35020,-3.13836,-0.09226,0.41781,0.77904,0.46711,0.01841,-9.91947,6.65462,4.20987
-0.06488,1.66613,-0.37903,-0.93349,0.50562,0.49321,1.73180,2.64384,0.12327,1.30670,-2.81385,0.16733,0.42562,0.77570,0.46599,-0.00106,-12.03596,3.25405,4.41214
-0.07705,1.67028,-0.37208,-0.91434,0.46041,0.50167,1.71190,2.73393,0.15631,1.33086,-2.80448,0.81679,0.43373,0.77104,0.46565,-0.02319,-2.14808,5.37306,3.18908
-0.08936,1.67421,-0.36498,-0.89866,0.42174,0.51384,1.72392,2.77384,0.17131,1.41182,-2.74608,1.07375,0.44152,0.76535,0.46615,-0.04477,1.43604,3.43314,1.39695
-0.10123,1.67779,-0.35739,-0.88104,0.38557,0.52862,1.73305,2.80026,0.19147,1.51045,-2.56248,1.22156,0.44882,0.75933,0.46645,-0.06636,1.39527,2.43470,0.98923
-0.11539,1.68072,-0.35279,-0.87378,0.35237,0.53786,1.67422,2.76705,0.22620,1.50142,-2.58738,1.24230,0.45469,0.75409,0.46607,-0.08598,-1.57044,-0.97510,2.29039
-0.13121,1.68315,-0.34976,-0.87002,0.31937,0.54598,1.47950,2.59531,0.30551,1.50552,-2.15235,1.24717,0.45746,0.75168,0.46424,-0.10090,-10.07104,-9.77160,4.90980
-0.14519,1.68590,-0.34435,-0.86193,0.29417,0.55416,1.23992,2.41967,0.42466,1.36568,-1.84000,0.94789,0.45847,0.75132,0.46065,-0.11456,-14.81042,-14.49023,9.52483
-0.15594,1.68859,-0.33588,-0.84125,0.27068,0.56710,1.03173,2.27160,0.55679,1.49672,-1.56378,0.90328,0.45844,0.75185,0.45620,-0.12821,-14.14975,-12.59234,10.55285
-0.16630,1.69102,-0.32728,-0.81842,0.24814,0.57899,0.86291,2.13847,0.66661,1.78375,-1.61544,0.74727,0.45793,0.75253,0.45165,-0.14145,-10.48646,-10.17700,9.60229
-0.17567,1.69319,-0.31814,-0.79004,0.22616,0.58882,0.68172,2.02775,0.75505,2.01819,-1.60394,0.53434,0.45732,0.75390,0.44590,-0.15382,-11.48452,-9.54269,7.84450
-0.18248,1.69528,-0.30618,-0.75593,0.20671,0.60344,0.53858,1.93891,0.81470,2.11914,-1.52170,0.49649,0.45683,0.75520,0.43983,-0.16594,-12.02738,-7.99088,6.85886
-0.18727,1.69681,-0.29309,-0.70844,0.18192,0.62245,0.42238,1.86009,0.87053,2.33280,-1.34443,0.39322,0.45590,0.75669,0.43356,-0.17780,-8.01669,-7.03820,5.03919
-0.19385,1.69811,-0.28228,-0.66864,0.16118,0.63495,0.42708,1.84242,0.87190,2.61513,-1.41456,0.58430,0.45605,0.75589,0.42902,-0.19125,-1.21037,-1.30207,1.50795
-0.20113,1.69885,-0.27171,-0.63129,0.13948,0.64680,0.46475,1.86328,0.83098,2.77876,-1.48412,0.41513,0.45734,0.75373,0.42499,-0.20523,2.44908,0.16827,-2.56832
-0.20760,1.69929,-0.26122,-0.59024,0.11800,0.65573,0.52675,1.93256,0.75083,3.11488,-1.43324,0.30980,0.46013,0.74999,0.42110,-0.22016,2.73909,4.56901,-5.61824
-0.21316,1.69965,-0.25114,-0.54674,0.09791,0.66438,0.57625,1.95976,0.66688,3.22485,-1.45560,0.68893,0.46302,0.74584,0.41764,-0.23432,3.45869,4.85991,-6.58728
-0.21807,1.69979,-0.24067,-0.50450,0.07863,0.67695,0.59490,1.88645,0.60703,3.01081,-1.35946,0.76237,0.46463,0.74249,0.41503,-0.24612,1.37421,-4.35593,-5.05973
-0.22275,1.69984,-0.23019,-0.46892,0.06232,0.68804,0.62454,1.81741,0.55520,2.91761,-1.32277,0.76023,0.46603,0.73884,0.41295,-0.25769,1.49062,-5.41001,-4.48620
-0.22460,1.69953,-0.21927,-0.41678,0.04181,0.70065,0.67295,1.73073,0.47642,2.89002,-1.25418,0.55291,0.46765,0.73446,0.41212,-0.26840,2.86189,-5.57259,-5.63383
-0.22373,1.69942,-0.20806,-0.36162,0.02636,0.70839,0.72552,1.72140,0.38783,3.03805,-1.03922,0.21334,0.47033,0.72899,0.41088,-0.28025,2.58994,-2.07426,-5.79951
-0.22214,1.69931,-0.19716,-0.30492,0.01434,0.71221,0.78951,1.74820,0.27267,3.08945,-0.75291,-0.02936,0.47424,0.72211,0.40995,-0.29256,3.73478,2.66313,-9.30024
-0.22238,1.69902,-0.18714,-0.25473,0.00562,0.71098,0.84169,1.75224,0.19418,2.86609,-0.41713,-0.13415,0.47761,0.71529,0.40922,-0.30462,3.11675,1.70332,-5.67599
-0.22264,1.69897,-0.17720,-0.21501,0.00286,0.70978,0.87453,1.69153,0.18475,2.46773,-0.06176,-0.08477,0.47908,0.70973,0.40875,-0.31574,1.66885,-3.54649,-2.24005
-0.22284,1.69905,-0.16737,-0.18019,0.00337,0.70778,0.89460,1.57850,0.22369,2.36391,0.10028,-0.26282,0.47877,0.70532,0.40872,-0.32596,3.02169,-6.25873,0.90973
-0.22380,1.69929,-0.15781,-0.15399,0.00667,0.70272,0.85558,1.42842,0.28890,2.17495,0.25138,-0.55942,0.47730,0.70270,0.40813,-0.33442,-1.06042,-12.05858,4.38690
-0.22398,1.69969,-0.14865,-0.12082,0.01179,0.69136,0.80301,1.24754,0.37929,2.01009,0.42729,-0.80377,0.47432,0.70155,0.40758,-0.34165,-3.19862,-12.56033,5.48346
-0.22393,1.70018,-0.13965,-0.09129,0.01726,0.68065,0.83231,1.16021,0.41551,2.05941,0.54085,-0.70524,0.47201,0.69854,0.40795,-0.35046,0.77229,-7.52442,3.16585
-0.22377,1.70065,-0.13070,-0.06735,0.02115,0.67265,0.90129,1.10817,0.43032,1.91112,0.23095,-0.69585,0.46964,0.69454,0.40920,-0.35999,5.50523,-4.32718,0.07624
-0.22301,1.70106,-0.12212,-0.03883,0.02301,0.65942,0.94123,0.98209,0.47114,1.86089,-0.06931,-1.01701,0.46570,0.69187,0.41112,-0.36800,4.08477,-6.53706,0.97166
-0.22219,1.70128,-0.11384,-0.01570,0.02122,0.64389,0.88732,0.79354,0.52621,1.66563,-0.38589,-1.24525,0.46103,0.69150,0.41226,-0.37325,-1.79765,-12.28798,3.26314
-0.22130,1.70131,-0.10581,0.00284,0.01671,0.62829,0.80728,0.59456,0.57123,1.52887,-0.46019,-1.39618,0.45598,0.69232,0.41331,-0.37675,-5.38857,-16.23460,3.36375
-0.21995,1.70109,-0.09844,0.02488,0.00914,0.60510,0.68746,0.31205,0.62865,1.23869,-0.43082,-1.51107,0.44947,0.69563,0.41468,-0.37698,-7.30038,-19.11163,3.19846
-0.21859,1.70078,-0.09126,0.04197,0.00177,0.58399,0.65024,0.13189,0.64558,1.07882,-0.45168,-1.49309,0.44337,0.69743,0.41690,-0.37841,-3.51974,-14.78304,1.19200
-0.21712,1.70027,-0.08434,0.05710,-0.00734,0.56340,0.68624,0.02678,0.62265,0.93395,-0.64927,-1.43933,0.43770,0.69758,0.42033,-0.38093,1.35405,-8.43529,-1.37186
-0.21564,1.69958,-0.07751,0.06852,-0.01723,0.54640,0.75037,-0.01961,0.57520,0.86937,-0.87125,-1.41586,0.43264,0.69645,0.42440,-0.38427,4.67597,-4.22489,-3.48435
-0.21391,1.69830,-0.07143,0.08153,-0.03497,0.52041,0.81780,-0.13396,0.51327,0.65107,-1.13148,-1.54298,0.42690,0.69556,0.43013,-0.38593,4.12419,-5.57834,-4.03653
-0.21239,1.69694,-0.06547,0.08825,-0.05027,0.49800,0.81473,-0.27181,0.47900,0.45141,-1.13844,-1.72984,0.42087,0.69603,0.43515,-0.38608,1.32758,-8.72418,-2.88268
-0.21101,1.69553,-0.05979,0.09085,-0.06255,0.47627,0.77465,-0.42935,0.47482,0.09454,-1.07885,-1.94149,0.41409,0.69782,0.43985,-0.38485,-1.49490,-12.46297,-1.85305
-0.20971,1.69391,-0.05483,0.09141,-0.07516,0.44797,0.71095,-0.59195,0.48665,-0.05263,-0.79679,-2.08567,0.40677,0.70072,0.44420,-0.38239,-4.43833,-12.65215,-0.13062
-0.20850,1.69222,-0.05031,0.09030,-0.08593,0.41895,0.67212,-0.69388,0.47343,-0.26344,-0.66874,-2.04165,0.40006,0.70293,0.44866,-0.38019,-3.47006,-8.81412,-1.15053
-0.20732,1.69053,-0.04595,0.08901,-0.09424,0.39458,0.67937,-0.68547,0.43365,-0.18642,-0.56991,-1.96793,0.39465,0.70331,0.45311,-0.37986,-0.81420,-2.16534,-2.18681
-0.20603,1.68857,-0.04233,0.08996,-0.10485,0.36345,0.74630,-0.59322,0.32596,0.16038,-0.60829,-1.92127,0.39126,0.70094,0.45865,-0.38110,4.06146,5.53009,-5.57411
-0.20448,1.68662,-0.03881,0.09506,-0.11318,0.33762,0.85166,-0.42886,0.17886,0.36943,-0.48571,-1.74950,0.38980,0.69605,0.46490,-0.38399,6.33933,10.21662,-8.95790
-0.20269,1.68465,-0.03539,0.10277,-0.11968,0.31620,0.94891,-0.23603,0.03301,0.77593,-0.56554,-1.88027,0.38982,0.68958,0.47109,-0.38808,9.32260,16.14702,-10.70672
-0.20064,1.68269,-0.03249,0.11278,-0.12444,0.29212,0.99238,-0.10639,-0.10927,1.01640,-0.43411,-2.20328,0.39071,0.68318,0.47722,-0.39098,6.05982,14.06397,-11.66216
-0.19809,1.68077,-0.03092,0.12867,-0.12725,0.25134,0.89724,-0.07970,-0.25820,1.14145,-0.08162,-2.44505,0.39295,0.67893,0.48198,-0.39030,-3.65307,3.99374,-8.47098
-0.19571,1.67915,-0.02892,0.13820,-0.12476,0.22718,0.78209,-0.14818,-0.32245,1.00462,0.34324,-2.49590,0.39325,0.67714,0.48631,-0.38774,-10.22308,-4.50493,-7.31070
-0.19289,1.67794,-0.02820,0.15265,-0.11628,0.18810,0.59785,-0.22384,-0.40737,0.81761,0.71289,-2.35241,0.39511,0.67665,0.48933,-0.38289,-12.19258,-5.62288,-5.62151
-0.18990,1.67689,-0.02750,0.16670,-0.10698,0.15707,0.50238,-0.17391,-0.49864,0.92552,0.75466,-2.03665,0.39842,0.67383,0.49230,-0.38060,-7.59763,1.64006,-5.84846
-0.18662,1.67593,-0.02691,0.18216,-0.09844,0.13126,0.47553,-0.04381,-0.61620,1.11289,0.62797,-1.62571,0.40352,0.66859,0.49567,-0.38010,-2.71361,8.67592,-7.99394
-0.18289,1.67502,-0.02645,0.20222,-0.09083,0.10883,0.49895,0.11609,-0.77883,1.04094,0.39258,-0.84106,0.41029,0.66116,0.49995,-0.38024,0.46449,9.12080,-8.66555
-0.17940,1.67391,-0.02534,0.21353,-0.08822,0.10189,0.58259,0.20609,-0.88512,0.95564,0.32474,-0.34297,0.41537,0.65335,0.50567,-0.38066,4.94463,7.71266,-8.88284
-0.17571,1.67289,-0.02401,0.22553,-0.08486,0.10065,0.70563,0.24587,-0.98792,0.95719,0.20390,0.09120,0.41978,0.64453,0.51310,-0.38092,9.28672,5.35697,-7.79087
-0.17192,1.67195,-0.02226,0.23648,-0.08064,0.10664,0.78585,0.06533,-1.05497,0.85567,0.16407,0.51997,0.42102,0.63830,0.52260,-0.37710,5.99093,-8.00308,-5.45499
-0.16832,1.67104,-0.02028,0.24168,-0.07701,0.11515,0.78122,-0.24000,-1.07030,0.46661,0.24880,0.75840,0.41969,0.63542,0.53242,-0.36964,-0.40395,-21.79249,-3.04899
-0.16478,1.67028,-0.01802,0.24449,-0.07183,0.12606,0.76180,-0.63869,-1.06941,0.11076,0.44465,0.71513,0.41556,0.63472,0.54379,-0.35880,-3.21765,-28.02021,-1.39737
-0.16137,1.66963,-0.01578,0.24456,-0.06608,0.13399,0.74306,-0.93745,-1.05289,-0.20598,0.54809,0.64632,0.41103,0.63413,0.55476,-0.34811,-4.49423,-27.33042,-0.27178
-0.15804,1.66916,-0.01344,0.24333,-0.05868,0.14167,0.78525,-1.20830,-1.05889,-0.19505,0.51784,0.38644,0.40534,0.63266,0.56739,-0.33692,0.60754,-18.75601,-0.67974
-0.15466,1.66871,-0.01132,0.24336,-0.05267,0.14402,0.89234,-1.28920,-1.10713,-0.11042,0.60647,0.04942,0.40169,0.62782,0.58018,-0.32845,5.79937,-9.38095,-2.82603
-0.15109,1.66843,-0.00945,0.24631,-0.04512,0.14161,1.06042,-1.22084,-1.16781,0.21238,0.58037,-0.28423,0.39967,0.61972,0.59314,-0.32311,11.90771,2.14949,-3.14268
-0.14732,1.66829,-0.00776,0.25206,-0.03693,0.13695,1.18512,-1.15697,-1.22486,0.65038,0.46223,-0.35854,0.39805,0.61120,0.60581,-0.31777,11.45094,5.87760,-2.45513
-0.14331,1.66822,-0.00607,0.26041,-0.02963,0.13343,1.20961,-1.20712,-1.28571,0.84727,0.35785,-0.18870,0.39572,0.60451,0.61832,-0.30926,4.08316,-1.11597,-4.26360
-0.13910,1.66813,-0.00418,0.27009,-0.02444,0.13402,1.20462,-1.32853,-1.37283,0.68567,0.35199,0.34086,0.39278,0.59841,0.63153,-0.29799,-1.72907,-7.44435,-6.47295
-0.13500,1.66790,-0.00203,0.27549,-0.02263,0.13875,1.24175,-1.43447,-1.43114,0.51531,0.17925,0.61532,0.38882,0.59155,0.64541,-0.28693,1.23737,-9.49993,-6.83262
-0.13069,1.66770,0.00075,0.28300,-0.02079,0.15238,1.34207,-1.66516,-1.55173,0.41872,0.14796,0.91792,0.38247,0.58341,0.66273,-0.27228,4.76712,-12.33749,-7.01521
-0.12640,1.66751,0.00379,0.28889,-0.01912,0.16791,1.48405,-1.85784,-1.67151,0.29786,0.23573,1.07086,0.37554,0.57354,0.68091,-0.25764,7.07631,-13.02616,-7.77874
-0.12209,1.66736,0.00689,0.29376,-0.01722,0.18056,1.65671,-1.93454,-1.74152,0.24555,0.24048,1.12362,0.36877,0.56169,0.69882,-0.24526,11.99178,-9.76254,-6.41816
-0.11760,1.66712,0.01042,0.30039,-0.01732,0.19757,1.97741,-1.94860,-1.79922,0.31089,-0.14255,1.03068,0.36103,0.54520,0.71899,-0.23553,20.18711,-3.19782,-1.58930
-0.11321,1.66659,0.01396,0.30400,-0.02224,0.21105,2.25572,-1.95265,-1.80973,0.23318,-0.58350,0.89500,0.35246,0.52797,0.73865,-0.22677,20.86084,-1.64163,1.09340
-0.10891,1.66589,0.01740,0.30510,-0.02864,0.21931,2.40586,-2.00507,-1.82344,0.15177,-0.90854,0.71227,0.34319,0.51176,0.75736,-0.21619,17.30235,-4.57090,1.28340
-0.10475,1.66442,0.02112,0.30354,-0.04621,0.23008,2.58739,-2.13230,-1.86456,-0.17676,-1.43602,0.62454,0.33166,0.49375,0.77757,-0.20395,11.09619,-8.44316,-2.07961
-0.10076,1.66244,0.02484,0.29970,-0.06827,0.23857,2.70714,-2.28454,-1.92623,-0.23505,-1.83427,0.61210,0.31928,0.47573,0.79733,-0.18976,9.36493,-10.66348,-4.13361
-0.09699,1.65992,0.02875,0.29296,-0.09396,0.24819,2.75944,-2.50671,-2.05043,-0.57464,-1.95392,0.73478,0.30562,0.45786,0.81703,-0.17152,4.05037,-13.63498,-9.07438
-0.09352,1.65700,0.03287,0.28294,-0.12035,0.25902,2.81956,-2.71693,-2.15715,-0.88243,-1.77559,0.80094,0.29063,0.43909,0.83638,-0.15232,2.70719,-14.73217,-11.86978
-0.09032,1.65351,0.03721,0.27071,-0.15062,0.27134,2.98655,-2.86926,-2.19396,-0.86136,-1.87094,0.79934,0.27401,0.41726,0.85586,-0.13537,8.38553,-10.64612,-3.41869
-0.08712,1.64994,0.04150,0.26114,-0.17510,0.27980,3.14239,-2.95669,-2.18316,-0.88437,-2.15109,0.66635,0.25702,0.39434,0.87410,-0.11998,11.81037,-9.72502,1.04453
-0.08423,1.64547,0.04593,0.24900,-0.20841,0.28849,3.33712,-3.03699,-2.13307,-1.00797,-2.60596,0.57190,0.23833,0.36928,0.89197,-0.10591,11.95130,-8.72424,3.06094
-0.08168,1.64008,0.05022,0.23395,-0.24920,0.29276,3.50200,-3.14184,-2.13607,-1.12273,-3.30378,0.06039,0.21868,0.34296,0.90907,-0.09022,11.33513,-9.18739,2.34845
-0.07969,1.63323,0.05419,0.21295,-0.30539,0.29094,3.65800,-3.24509,-2.15094,-1.34290,-3.86820,-0.29389,0.19822,0.31533,0.92510,-0.07399,8.54326,-7.43938,0.09692
-0.07769,1.62599,0.05793,0.19683,-0.35492,0.28578,3.81466,-3.31464,-2.22774,-1.36572,-4.45197,-0.62932,0.17830,0.28553,0.93995,-0.05630,11.21594,-7.42773,-3.70532
-0.07642,1.61652,0.06089,0.17240,-0.43010,0.26866,4.10088,-3.35507,-2.34831,-1.81762,-4.94611,-1.50128,0.15842,0.25011,0.95441,-0.03806,17.43096,-4.04781,-5.00623
-0.07587,1.60585,0.06265,0.14070,-0.51013,0.23426,4.42195,-3.36619,-2.52486,-2.13091,-5.17448,-2.89198,0.13921,0.21090,0.96737,-0.01833,22.35122,-2.88930,-4.84022
-0.07551,1.59526,0.06367,0.11346,-0.56968,0.19585,4.65612,-3.32652,-2.69326,-2.47692,-4.87046,-3.71524,0.12144,0.17123,0.97772,0.00223,21.95608,2.36230,-9.47402
-0.07616,1.58345,0.06285,0.07589,-0.63449,0.13604,5.02263,-3.29059,-2.68882,-3.20377,-4.08396,-4.55309,0.10218,0.12646,0.98653,0.01832,25.07383,0.74589,-0.02000
-0.07781,1.57126,0.06041,0.03030,-0.69044,0.06321,5.48238,-3.38077,-2.39784,-3.62654,-3.38530,-5.61833,0.07716,0.07768,0.99364,0.02637,26.66436,-13.90577,19.54403
-0.08043,1.55912,0.05620,-0.02061,-0.73247,-0.02221,5.96628,-3.59931,-2.02938,-3.84440,-2.26718,-6.45105,0.04690,0.02527,0.99811,0.03046,26.04419,-27.54884,26.00313
-0.08357,1.54775,0.05098,-0.06749,-0.75138,-0.10308,6.30695,-3.92802,-1.65975,-4.01040,-0.76301,-7.02277,0.01159,-0.02647,0.99905,0.03269,21.82150,-36.84840,23.04464
-0.08825,1.53744,0.04247,-0.12902,-0.74832,-0.21960,6.59862,-4.51414,-1.14234,-3.81036,1.26121,-7.68021,-0.03410,-0.07868,0.99590,0.02878,10.23504,-46.93403,19.30731
-0.09302,1.52890,0.03288,-0.17849,-0.71627,-0.32849,6.67145,-5.09678,-0.78236,-3.35939,3.33681,-8.07712,-0.08270,-0.12659,0.98815,0.02621,0.37894,-49.36112,9.46551
-0.09782,1.52210,0.02243,-0.21635,-0.66379,-0.42491,6.58697,-5.62629,-0.56817,-2.94978,5.42620,-8.24881,-0.13322,-0.17010,0.97606,0.02496,-8.18280,-48.29536,-0.84216
-0.10345,1.51920,0.00889,-0.25894,-0.55929,-0.54988,6.29794,-6.27232,-0.56252,-1.90353,7.41452,-7.96236,-0.19034,-0.20637,0.95939,0.02746,-15.19599,-41.70324,-18.42885
-0.10840,1.51836,-0.00470,-0.28087,-0.44336,-0.64827,5.94119,-6.39494,-1.05115,0.20174,8.28900,-7.31423,-0.23671,-0.23728,0.94113,0.04398,-15.37357,-9.76667,-38.75177
-0.11202,1.51992,-0.01898,-0.27588,-0.31442,-0.73543,5.70154,-5.61320,-1.91497,-0.02836,10.10125,-5.92532,-0.25860,-0.26675,0.92521,0.07720,11.10726,67.80170,-36.88046
-0.11511,1.52427,-0.03410,-0.26306,-0.16928,-0.81638,5.43332,-4.98638,-2.60874,1.74670,10.89426,-5.87182,-0.28047,-0.29176,0.90764,0.11138,-0.45957,58.02236,-41.17934
-0.11666,1.53332,-0.05094,-0.22698,0.02409,-0.90849,5.17344,-4.19776,-3.28404,2.16443,13.97890,-5.30870,-0.29449,-0.31323,0.89019,0.15073,11.19372,70.12416,-26.71928
-0.11705,1.54464,-0.06799,-0.17929,0.21259,-0.98404,4.67197,-4.36418,-3.48186,3.13594,14.31495,-4.49684,-0.32854,-0.32829,0.86832,0.17408,-21.17523,18.25065,-22.76306
-0.11551,1.55944,-0.08565,-0.10941,0.41556,-1.05131,3.97253,-5.07130,-3.58534,5.83955,15.79060,-4.37328,-0.37846,-0.33587,0.84163,0.18873,-47.14901,-28.18837,-30.83818
-0.11179,1.57676,-0.10323,-0.02080,0.60989,-1.10077,3.19138,-5.91232,-3.66300,8.31571,17.35258,-3.54271,-0.43633,-0.33669,0.81076,0.19728,-63.58467,-42.94260,-42.47293
-0.10249,1.60137,-0.12130,0.14137,0.88061,-1.14618,1.96729,-7.16138,-3.79190,11.89290,16.83157,-1.98593,-0.51070,-0.32137,0.77333,0.19462,-79.62155,-57.96494,-51.35369
-0.08995,1.62731,-0.13806,0.32271,1.11492,-1.16014,0.85821,-7.88928,-4.02604,14.94234,17.14801,-0.37853,-0.57786,-0.29918,0.73441,0.19291,-75.79745,-40.69146,-55.21297
-0.07454,1.65536,-0.15392,0.50640,1.32527,-1.15506,0.02791,-8.13532,-4.42503,16.95541,17.76363,0.87992,-0.63658,-0.27218,0.69411,0.19724,-56.96150,-11.28046,-62.06656
-0.05044,1.69101,-0.16840,0.79329,1.61362,-1.12772,-0.84673,-8.14776,-5.16880,19.80033,18.11191,2.51535,-0.69219,-0.23106,0.65137,0.20786,-26.57035,7.75097,-67.10731
-0.02467,1.72636,-0.18181,1.04038,1.82945,-1.08894,-1.39439,-8.02978,-5.85173,21.99728,18.16047,4.02668,-0.74113,-0.18905,0.60501,0.22125,-11.77081,12.22696,-68.78329
0.00914,1.76689,-0.19276,1.35889,2.07705,-1.01904,-1.86874,-7.68918,-6.92220,24.49989,17.00395,6.24760,-0.78362,-0.13280,0.55526,0.24492,6.22827,15.95145,-81.94795
0.04928,1.80973,-0.20055,1.70867,2.30565,-0.91323,-1.72955,-6.83047,-8.00061,27.39110,14.86584,9.36722,-0.80848,-0.07738,0.50922,0.28473,51.02146,26.76265,-74.79977
0.09361,1.85278,-0.20562,2.04115,2.48239,-0.78904,-1.13795,-5.77278,-8.83017,29.67788,13.82908,11.77309,-0.81798,-0.02753,0.46712,0.33459,100.32490,36.57832,-47.66081
0.15324,1.89946,-0.20366,2.54710,2.67695,-0.57906,-0.36260,-4.65761,-10.00861,33.83304,11.25382,14.51527,-0.81378,0.03229,0.42162,0.39869,104.39490,21.71872,-45.99231
0.18155,1.93478,-0.20306,3.04200,2.77330,-0.36762,0.01353,-4.41569,-11.06362,42.10235,6.23901,19.54906,-0.81320,0.09631,0.35483,0.45114,57.13209,-60.65226,-89.73473
0.22183,1.97394,-0.19674,3.65308,2.80270,-0.06107,0.01762,-3.64039,-12.36392,44.83854,-2.00031,23.30977,-0.79522,0.18184,0.29376,0.49826,63.83596,43.41467,-71.69637
0.26786,2.00839,-0.19067,4.28807,2.70462,0.29380,0.27347,-2.95987,-13.61851,46.95709,-12.64360,28.39087,-0.76127,0.26930,0.22621,0.54477,49.19748,22.37883,-85.95936
0.32043,2.03346,-0.17859,5.03611,2.41536,0.78046,1.37031,-2.38844,-14.49721,47.38581,-25.35129,34.87150,-0.70511,0.34110,0.15856,0.60111,74.70724,-30.35144,-57.77429
0.38376,2.05073,-0.15770,5.59556,2.05799,1.22623,2.91375,-1.92395,-14.99446,45.68863,-36.35950,40.14027,-0.62935,0.39795,0.09588,0.66058,103.40190,-60.67144,-27.57531
0.45238,2.05586,-0.12609,6.10730,1.56157,1.72785,4.75334,-1.90691,-15.41904,39.63233,-48.52287,44.81619,-0.53199,0.43918,0.02725,0.72344,95.93265,-108.94480,-35.31328
0.51614,2.02713,-0.06947,6.67988,0.49864,2.57391,7.20976,-1.50853,-16.37949,25.84988,-72.35635,50.23056,-0.38966,0.48152,-0.03815,0.78412,90.17743,-101.28600,-60.13136
0.58706,1.98629,-0.00758,6.87010,-0.48456,3.15448,8.74073,-0.04232,-17.19423,8.90247,-91.92843,46.12505,-0.23636,0.54127,-0.08303,0.80267,154.07360,-50.46448,-56.31424
0.62009,1.88637,0.05968,6.68236,-2.40389,3.88591,12.02701,3.14347,-17.19444,-29.64690,-120.80840,31.25891,-0.03098,0.60658,-0.06182,0.79201,234.68560,-70.21590,-14.03368
0.64989,1.78394,0.11470,6.14903,-3.88832,4.13946,14.99402,5.36719,-15.92651,-58.79033,-128.61840,10.82283,0.16302,0.63796,-0.01403,0.75249,279.11840,-149.54690,0.56289
0.63322,1.65117,0.14354,5.11578,-5.68614,4.10326,18.95196,6.03373,-13.70070,-91.35474,-127.17890,-16.11332,0.36762,0.61154,0.07289,0.69683,223.69780,-229.57430,-77.93403
0.56614,1.50654,0.13729,3.47302,-7.56461,3.58977,23.80220,4.28558,-11.00690,-114.54620,-107.80430,-47.53871,0.56970,0.50212,0.19009,0.62224,134.95260,-207.25170,-209.27920
0.75643,1.25257,0.23522,1.98036,-8.68949,2.83241,28.01592,2.03343,-9.32330,-126.29380,-79.19508,-80.60684,0.74323,0.34237,0.29528,0.49315,174.30960,-175.04170,-337.49950
0.78633,1.03580,0.23802,0.11164,-9.39930,1.46443,31.78627,-1.76200,-6.35036,-127.08520,-17.87541,-107.36070,0.83267,0.12698,0.43009,0.32490,217.77780,-132.96920,-355.11940
0.72141,0.89594,0.18061,-1.56397,-9.20624,-0.08634,31.74413,-7.52850,-4.28999,-103.04100,43.13479,-100.87990,0.81245,-0.10210,0.53552,0.20670,88.46765,-33.27197,-447.99300
0.64441,0.81542,0.10691,-2.68529,-8.28179,-1.39293,27.74985,-11.72788,-5.24926,-61.04712,82.00559,-73.93208,0.75089,-0.29257,0.56714,0.17006,-28.62389,209.10620,-395.26220
0.58037,0.77438,0.04119,-3.21024,-6.99679,-2.20064,22.16667,-10.51114,-7.66409,-20.86127,97.34438,-37.16482,0.73577,-0.39492,0.51733,0.18720,-161.59540,424.24530,-81.23138
0.53010,0.75486,-0.00110,-3.34363,-5.69148,-2.40930,17.36489,-7.56919,-8.10645,0.72397,87.52554,5.07330,0.74220,-0.43477,0.46796,0.20279,-213.23860,329.53400,160.45110
0.49292,0.75341,-0.00886,-3.28483,-4.51636,-2.06264,12.18760,-5.94744,-6.95928,10.16417,59.54862,36.01999,0.73121,-0.43871,0.46474,0.23850,-264.63210,214.83100,85.66581
0.45031,0.72725,-0.00563,-3.20276,-3.87582,-1.49745,7.05797,-5.94443,-5.97885,4.10692,34.63894,42.86809,0.68679,-0.44022,0.49967,0.29130,-346.44740,119.24810,-28.68902
0.40622,0.69319,0.00220,-3.18436,-3.53680,-1.00806,3.21837,-4.56402,-5.40122,-4.13247,27.80594,38.62973,0.65939,-0.42786,0.50763,0.35279,-324.00850,164.75850,-20.92953
0.35776,0.66610,0.01965,-3.23886,-3.16296,-0.48026,-0.17454,-1.35718,-5.56664,-5.38646,29.45983,35.74913,0.65152,-0.39460,0.46674,0.44940,-162.86780,285.64800,-17.97019
0.30960,0.64801,0.03860,-3.27357,-2.72810,-0.05115,-2.38087,2.10838,-5.99163,2.62454,35.57684,25.73767,0.64833,-0.35585,0.39310,0.54636,-87.93603,305.82140,-57.09862
0.26833,0.63866,0.05407,-3.19018,-2.25172,0.22015,-3.19978,4.31761,-6.29485,12.34424,35.18981,14.66819,0.64065,-0.33046,0.31867,0.61548,-7.22674,194.28260,-55.21661
0.23469,0.63457,0.06366,-2.98702,-1.79882,0.33874,-2.95696,5.32555,-6.01286,21.07179,31.57891,4.16949,0.63855,-0.31450,0.25852,0.65308,26.53903,95.94093,-28.05928
0.20578,0.62880,0.06902,-2.76138,-1.48652,0.35670,-2.72233,4.89110,-5.32510,21.26773,21.42115,0.46027,0.62989,-0.30873,0.23293,0.67355,57.82693,-9.27930,41.98357
0.18575,0.62634,0.07263,-2.44918,-1.19282,0.33906,-2.84803,3.76104,-4.00013,19.50879,15.41493,-1.50581,0.61720,-0.29837,0.24214,0.68659,-4.05120,-60.17894,91.53892
0.16719,0.62140,0.07576,-2.18339,-1.00116,0.31710,-2.75906,3.54605,-2.72827,16.88902,13.32929,-1.74210,0.61532,-0.27343,0.24072,0.69905,12.81562,-20.72305,101.26850
0.14899,0.61634,0.07864,-1.97782,-0.85792,0.29491,-2.23340,4.16336,-2.04459,15.37798,11.83062,-2.08086,0.62482,-0.24299,0.21342,0.71064,53.33955,34.56266,55.41334
0.13364,0.61315,0.08029,-1.77829,-0.71989,0.25760,-1.67776,4.86607,-1.55000,13.36253,7.98373,-3.84097,0.63761,-0.20857,0.17865,0.71975,62.73450,62.94275,10.13082
0.11758,0.61159,0.07782,-1.62829,-0.58469,0.16155,-1.23789,4.38221,-1.03216,8.37508,9.57122,-8.13104,0.64411,-0.19218,0.16835,0.72101,33.02065,-17.22848,29.34097
0.09856,0.60996,0.07459,-1.56402,-0.48225,0.07542,-0.89918,3.62663,-0.89954,6.43303,11.48713,-9.39527,0.64589,-0.18979,0.16120,0.72168,33.45988,-59.33821,18.97352
0.08266,0.61970,0.06391,-1.46511,-0.21196,-0.11463,-0.36580,1.47979,-1.04262,3.16696,12.12830,-6.75668,0.64316,-0.22673,0.17807,0.70939,17.50662,-102.15370,-6.19330
0.06444,0.62492,0.05854,-1.42579,-0.07129,-0.17823,-0.33136,0.43352,-1.26726,3.34239,11.07964,-3.55037,0.63462,-0.24923,0.18194,0.70854,2.23815,-95.07545,-15.42898
0.04847,0.63272,0.05439,-1.35786,0.07712,-0.20479,-0.48570,-0.32810,-1.50559,5.54819,9.73726,0.26138,0.62161,-0.27168,0.18512,0.71100,-13.06058,-66.69208,-17.35957
0.03662,0.64179,0.05304,-1.23495,0.21390,-0.17658,-0.72372,-0.35464,-1.75383,8.28864,6.64129,4.10284,0.60861,-0.28340,0.17747,0.71957,-15.87280,-16.44770,-19.85995
0.02625,0.64839,0.05363,-1.11699,0.27560,-0.12303,-0.78162,0.14317,-1.86085,10.24436,3.76943,5.38023,0.60170,-0.28317,0.16076,0.72933,-7.26867,35.72195,-9.28439
0.01966,0.65416,0.05662,-0.96513,0.30784,-0.04263,-0.89539,0.82967,-1.87024,11.60995,1.16273,5.96845,0.59537,-0.27437,0.14007,0.74205,2.33293,51.97948,-5.14168
0.01611,0.65848,0.05973,-0.79777,0.30757,0.01982,-0.83526,1.27608,-1.76583,13.10914,-1.56998,3.62174,0.59203,-0.26584,0.12197,0.75097,0.75889,36.69962,-3.52083
0.01498,0.66071,0.06331,-0.62948,0.27238,0.07605,-0.87945,1.48759,-1.16328,12.39197,-3.18769,3.36630,0.59070,-0.25007,0.11835,0.75798,9.67164,25.07355,40.76246
0.01618,0.66208,0.06663,-0.46124,0.23154,0.11408,-1.05218,1.36357,-0.58781,12.38460,-2.99395,2.18152,0.58563,-0.23792,0.12367,0.76494,-7.82566,-3.46362,40.00879
0.01966,0.66328,0.06980,-0.29258,0.19478,0.13882,-1.29297,1.18867,0.07155,12.01563,-2.60322,1.44182,0.57922,-0.22319,0.13610,0.77212,-12.56473,-8.78411,47.71041
0.02368,0.66439,0.07292,-0.15761,0.16610,0.15726,-1.51108,1.08130,0.61691,9.77215,-2.03929,2.43340,0.57199,-0.20684,0.14959,0.77953,-14.79175,-7.55668,50.69694
0.03153,0.66505,0.07647,0.00946,0.13708,0.17841,-1.59762,1.21169,1.16256,9.61580,-1.43954,0.78311,0.56788,-0.18365,0.16192,0.78585,-3.29855,5.57429,45.00108
0.03962,0.66551,0.07932,0.14249,0.11191,0.18353,-1.37789,1.52710,1.30949,8.98647,-1.60077,0.04859,0.56913,-0.16184,0.16185,0.78975,12.97560,25.12593,6.38119
0.04768,0.66625,0.08187,0.24243,0.09793,0.18279,-1.23970,1.78052,1.42773,7.91767,-0.68296,-0.35777,0.56962,-0.13928,0.16186,0.79368,13.50423,24.09322,6.53309
0.05804,0.66761,0.08370,0.35721,0.09745,0.16997,-1.05534,2.13882,1.43008,6.40643,0.54963,-1.16619,0.57186,-0.11465,0.15661,0.79706,9.37161,22.24568,0.69764
0.06854,0.66971,0.08490,0.45132,0.10830,0.14851,-0.86077,2.49727,1.26239,5.41849,0.96062,-1.60435,0.57443,-0.09132,0.14586,0.80026,8.97033,23.99552,-12.74750
0.07831,0.67214,0.08589,0.51086,0.12260,0.12900,-0.77155,2.69468,1.11319,4.76512,1.34198,-1.72682,0.57502,-0.06980,0.13618,0.80370,6.29771,18.64206,-14.31552
0.08948,0.67558,0.08622,0.57941,0.15018,0.10317,-0.77881,2.82875,0.96762,4.21536,1.83307,-1.49775,0.57349,-0.04883,0.12610,0.80797,-0.64227,10.14282,-12.30626
0.10064,0.67978,0.08663,0.63211,0.18261,0.08394,-0.95598,2.83692,0.94622,3.58917,2.36168,-1.25318,0.56763,-0.02783,0.12037,0.81396,-11.05694,-0.23472,-0.17000
0.11155,0.68392,0.08706,0.66692,0.20668,0.07071,-1.08294,2.88247,0.91963,3.20984,2.47695,-1.51028,0.56159,-0.00606,0.11362,0.81956,-13.72672,0.41401,1.87318
0.12419,0.68922,0.08623,0.72206,0.24303,0.03932,-1.15691,3.13877,0.61359,2.53629,1.84513,-1.97323,0.55570,0.01612,0.09625,0.82563,-8.82488,11.67036,-14.35127
0.13649,0.69389,0.08509,0.76014,0.25948,0.00921,-1.06249,3.53065,0.13878,2.36584,0.99526,-2.36750,0.55330,0.03838,0.06978,0.82917,-3.20278,22.27119,-31.34701
0.14865,0.69800,0.08379,0.78590,0.26404,-0.01527,-0.94742,3.88473,-0.29533,2.38786,0.20540,-2.53711,0.55161,0.06071,0.03983,0.83093,0.21746,30.63085,-43.68665
0.16177,0.70172,0.08117,0.82077,0.25985,-0.05557,-0.77298,4.37305,-0.89755,2.09227,-0.80961,-2.70349,0.55154,0.08356,-0.00103,0.82995,1.39112,30.32977,-43.94310
0.17475,0.70499,0.07809,0.84544,0.24790,-0.09577,-0.66896,4.63399,-1.23714,1.50164,-1.04900,-2.63915,0.54980,0.10577,-0.03629,0.82778,1.54922,18.09801,-26.37531
0.18739,0.70817,0.07505,0.85895,0.23926,-0.12525,-0.63076,4.70876,-1.31650,1.20663,-0.87304,-2.56505,0.54629,0.12794,-0.06486,0.82522,1.57914,8.58443,-12.96400
0.20027,0.71154,0.07111,0.87318,0.23369,-0.16395,-0.63527,4.65628,-1.17379,0.91677,-0.30510,-2.55332,0.54122,0.15070,-0.08675,0.82271,1.67617,-1.87857,5.51186
0.21306,0.71528,0.06689,0.88254,0.23496,-0.19887,-0.67708,4.54407,-0.91810,0.51388,0.16624,-2.61760,0.53446,0.17390,-0.10383,0.82057,1.67580,-6.88164,17.79533
0.22563,0.71914,0.06206,0.88595,0.24033,-0.23505,-0.71458,4.41166,-0.65637,-0.10260,0.55674,-2.59070,0.52692,0.19692,-0.11848,0.81825,2.39870,-8.24696,19.61703
0.23780,0.72323,0.05709,0.88199,0.24870,-0.26440,-0.75872,4.28851,-0.46811,-0.62695,0.86409,-2.33015,0.51853,0.21908,-0.13296,0.81575,1.48054,-9.16978,18.16873
0.24945,0.72783,0.05135,0.87027,0.26252,-0.29995,-0.86291,4.18735,-0.34937,-1.03791,1.02397,-2.13994,0.50806,0.24022,-0.14803,0.81379,-3.78893,-6.98921,10.67830
0.26052,0.73258,0.04516,0.85132,0.27775,-0.33560,-1.00001,4.14401,-0.31723,-1.43686,0.90483,-2.22353,0.49594,0.26083,-0.16544,0.81157,-7.48986,-2.46828,4.12898
0.27138,0.73741,0.03905,0.83335,0.28730,-0.36183,-1.09784,4.11010,-0.30289,-1.65392,0.56658,-2.23852,0.48365,0.28092,-0.18297,0.80851,-7.96433,-1.96797,2.84757
0.28160,0.74229,0.03237,0.80820,0.29408,-0.39045,-1.14947,4.04855,-0.22938,-2.07608,0.28751,-2.00854,0.47120,0.30098,-0.19832,0.80502,-4.33293,-3.28440,5.43538
0.29073,0.74709,0.02535,0.76990,0.29994,-0.41815,-1.19124,3.94633,-0.16162,-2.84857,0.45552,-1.53115,0.45860,0.31972,-0.21243,0.80146,-0.48942,-6.10121,6.31752
0.29948,0.75186,0.01857,0.73467,0.30422,-0.43516,-1.26464,3.86792,-0.20074,-3.19375,0.38424,-1.27425,0.44532,0.33663,-0.22886,0.79749,-4.89962,-6.58140,0.53426
0.30749,0.75666,0.01169,0.69647,0.30801,-0.44902,-1.33891,3.77097,-0.22801,-3.30869,0.22649,-1.11346,0.43147,0.35226,-0.24480,0.79361,-7.47519,-7.27135,-1.44708
0.31400,0.76150,0.00455,0.64243,0.31343,-0.46402,-1.40228,3.60105,-0.18091,-3.44034,0.25508,-0.89467,0.41730,0.36630,-0.25777,0.79072,-4.03783,-10.00973,3.60715
0.32018,0.76632,-0.00251,0.59427,0.31737,-0.47487,-1.44310,3.44069,-0.08188,-3.51481,0.13961,-0.74269,0.40274,0.38038,-0.26869,0.78799,-1.66431,-10.97540,8.34123
0.32599,0.77097,-0.00958,0.55225,0.31797,-0.48308,-1.45272,3.30444,0.01227,-3.59444,-0.14974,-0.68955,0.38839,0.39426,-0.27863,0.78491,-0.16031,-10.14497,9.06091
0.33030,0.77524,-0.01675,0.49498,0.31221,-0.49123,-1.42476,3.15528,0.13228,-3.82603,-0.49686,-0.27477,0.37456,0.40776,-0.28635,0.78195,3.60041,-8.85839,8.94739
0.33392,0.77916,-0.02353,0.43832,0.30208,-0.49151,-1.48010,3.06888,0.10709,-4.57033,-0.61919,0.39286,0.35973,0.41970,-0.29785,0.77828,0.04457,-6.57900,2.69720
0.33728,0.78284,-0.02996,0.39269,0.29156,-0.48572,-1.60155,2.98311,-0.02123,-4.84489,-1.06653,0.82010,0.34418,0.42882,-0.31260,0.77456,-9.80368,-7.53846,-5.41495
0.33820,0.78332,-0.03562,0.30760,0.25975,-0.46648,-1.83968,2.76006,-0.34915,-4.95394,-2.09482,1.09426,0.32902,0.43001,-0.33258,0.77215,-16.28052,-13.72268,-13.22547
0.34016,0.77962,-0.04131,0.24038,0.21203,-0.44991,-1.72543,2.53743,-0.51130,-4.08041,-3.90774,0.43172,0.32006,0.43370,-0.34654,0.76771,-2.85046,-17.24717,-12.16376
0.34232,0.77839,-0.04734,0.20820,0.18009,-0.44543,-1.48660,2.44355,-0.55042,-4.28226,-4.57179,0.25603,0.31336,0.44156,-0.35717,0.76109,17.94545,-13.03496,-6.43673
0.34072,0.77386,-0.05274,0.12392,0.08900,-0.43180,-0.88151,2.16010,-0.75582,-4.13831,-3.77167,1.56984,0.32184,0.44715,-0.36425,0.75086,30.30709,-15.78324,-11.02184
0.33963,0.77180,-0.05745,0.07172,0.03212,-0.40968,-0.84236,1.90744,-0.86267,-3.78456,-4.18338,1.53230,0.31868,0.44832,-0.37534,0.74604,-0.70472,-16.50461,-8.31840
0.33831,0.76952,-0.06194,0.02938,-0.01403,-0.38928,-0.60879,1.60004,-0.79210,-3.50679,-4.41184,1.35977,0.31949,0.45041,-0.37944,0.74235,8.59543,-23.31355,-1.30127
0.33561,0.76583,-0.06592,-0.02628,-0.07335,-0.36515,0.13245,1.15147,-0.52934,-3.61093,-3.74278,1.41211,0.33246,0.45571,-0.36966,0.73834,44.05178,-29.99887,13.76066
0.33265,0.76207,-0.06956,-0.07417,-0.12050,-0.34017,0.78927,0.71032,-0.36254,-3.46386,-2.80934,2.24885,0.34861,0.45959,-0.35838,0.73404,50.29333,-31.49266,10.18338
0.32928,0.75831,-0.07219,-0.11705,-0.15600,-0.30358,1.21020,0.21554,-0.23634,-2.89009,-1.87971,3.02601,0.36465,0.45913,-0.34637,0.73230,34.96613,-35.57576,5.74627
0.32583,0.75496,-0.07400,-0.15191,-0.17582,-0.26225,1.52808,-0.27526,-0.00663,-2.10213,-0.92509,2.91834,0.37986,0.45724,-0.33025,0.73319,22.32079,-37.42899,9.31556
0.32241,0.75242,-0.07568,-0.17762,-0.17685,-0.22880,1.85070,-0.70101,0.41424,-1.05134,0.33915,1.82785,0.39379,0.45730,-0.30697,0.73591,21.28557,-33.89864,22.87944
0.31955,0.75085,-0.07811,-0.18562,-0.16101,-0.21643,2.31146,-0.93887,1.06748,0.25254,1.47201,0.19488,0.40663,0.46423,-0.27406,0.73759,30.53476,-27.36093,42.07314
0.31714,0.74995,-0.08160,-0.18640,-0.13773,-0.22554,2.65146,-0.99381,1.68952,-0.20692,1.74934,-0.90527,0.41585,0.47483,-0.23943,0.73775,25.76800,-9.70858,48.22136
0.31471,0.74873,-0.08531,-0.18647,-0.12588,-0.23571,2.93156,-1.02629,2.07007,-0.25080,0.59605,-0.64683,0.42609,0.48440,-0.20613,0.73574,19.85787,-8.45623,39.09628
0.31213,0.74648,-0.08908,-0.18843,-0.13462,-0.24416,3.03488,-0.92576,2.01371,-0.37454,-0.56881,0.03432,0.43769,0.49181,-0.18307,0.73010,16.12408,2.94159,10.22179
0.30948,0.74289,-0.09285,-0.19200,-0.16349,-0.25156,2.58664,-0.56151,1.39139,-0.65937,-1.74813,0.20430,0.44439,0.49518,-0.18420,0.72345,-20.47830,24.50638,-30.46317
0.30680,0.73848,-0.09631,-0.19469,-0.19844,-0.25184,1.83057,-0.19928,0.60042,-0.51813,-2.99936,0.24234,0.44613,0.49363,-0.20035,0.71914,-57.08865,36.32066,-58.37352
0.30365,0.73230,-0.09982,-0.20404,-0.25496,-0.25295,0.87703,0.25986,-0.55053,-0.35898,-3.26573,-0.55253,0.44634,0.48627,-0.23612,0.71315,-56.13940,31.82499,-66.51987
0.30047,0.72670,-0.10363,-0.21262,-0.29009,-0.25849,0.39900,0.51555,-1.13872,-0.54990,-2.55118,-0.68403,0.44836,0.48197,-0.25920,0.70675,-38.37416,25.60894,-44.67350
0.29751,0.72129,-0.10742,-0.21462,-0.31316,-0.26199,0.26056,0.59857,-1.38689,-0.03636,-2.15264,-0.91115,0.45298,0.47910,-0.27355,0.70032,-23.01835,13.68249,-28.64339
0.29465,0.71591,-0.11150,-0.21504,-0.32993,-0.26960,0.46634,0.54669,-1.42368,0.33096,-0.68464,-0.55241,0.46288,0.47797,-0.27873,0.69253,10.03060,-2.11764,-5.50137
0.29226,0.71146,-0.11535,-0.20774,-0.32717,-0.27179,0.66582,0.44795,-1.26728,0.87618,0.78100,-0.07748,0.47159,0.47845,-0.27839,0.68643,17.70900,-8.84246,7.49851
0.29027,0.70807,-0.11912,-0.19584,-0.30794,-0.27190,0.83004,0.32444,-1.02137,1.25294,2.31605,0.10778,0.47914,0.47981,-0.27428,0.68189,14.53172,-12.03514,16.42310
0.28918,0.70670,-0.12255,-0.17175,-0.26004,-0.26682,0.93028,0.15136,-0.59650,1.62399,3.60206,0.52593,0.48333,0.48268,-0.26437,0.68082,7.59236,-13.04938,26.61167
0.28832,0.70620,-0.12593,-0.15025,-0.20860,-0.26291,0.86458,0.08492,-0.27810,1.75952,3.79346,0.42793,0.48410,0.48569,-0.25787,0.68063,-2.27128,-8.29759,22.98136
0.28826,0.70639,-0.12884,-0.12029,-0.15695,-0.25178,0.68477,0.07092,-0.01325,1.72278,2.97850,1.09124,0.48165,0.48884,-0.25333,0.68182,-8.67115,-3.17012,19.85684
0.28798,0.70618,-0.13171,-0.09810,-0.12358,-0.24195,0.47420,0.11159,0.06477,1.46901,2.11173,0.52311,0.47913,0.49067,-0.25329,0.68230,-16.56728,1.97758,7.16806
0.28780,0.70593,-0.13470,-0.08002,-0.09908,-0.23688,0.31047,0.18771,0.07481,1.03107,1.45514,0.18851,0.47692,0.49271,-0.25491,0.68177,-12.47395,4.85556,2.44753
0.28753,0.70544,-0.13790,-0.06753,-0.08443,-0.23655,0.19514,0.27457,0.03887,0.98372,0.56296,-0.14026,0.47528,0.49479,-0.25773,0.68035,-10.49566,6.39283,-1.96965
0.28776,0.70447,-0.14091,-0.04940,-0.08172,-0.23290,0.10577,0.34076,-0.02735,1.31640,-0.10497,0.40828,0.47424,0.49633,-0.26128,0.67860,-4.68167,4.92038,-3.34030
0.28812,0.70321,-0.14396,-0.03391,-0.08413,-0.23131,0.07326,0.37763,-0.09274,0.85919,-0.32458,-0.41669,0.47414,0.49759,-0.26456,0.67646,-6.57691,3.74293,-5.92502
0.28858,0.70190,-0.14739,-0.01917,-0.08692,-0.23594,0.18825,0.38253,-0.09094,0.83102,-0.20818,-0.34612,0.47631,0.50017,-0.26438,0.67309,7.38943,0.53911,-0.21834
0.28916,0.70058,-0.15078,-0.00829,-0.08951,-0.23916,0.30781,0.34074,-0.06887,0.63209,-0.18623,-0.25509,0.47910,0.50240,-0.26277,0.67008,8.24461,-1.93509,0.91993
0.28983,0.69928,-0.15411,0.00162,-0.09118,-0.24051,0.41150,0.29879,-0.03210,0.63234,-0.05404,0.06943,0.48199,0.50477,-0.26036,0.66716,9.41258,-3.89788,2.26852
0.29034,0.69796,-0.15739,0.00799,-0.09243,-0.23989,0.43700,0.26801,-0.03238,0.35176,-0.03567,0.13065,0.48423,0.50637,-0.25926,0.66475,3.48066,-2.85961,0.87506
0.29094,0.69660,-0.16057,0.01362,-0.09453,-0.23858,0.41344,0.26407,-0.06703,0.25748,-0.03005,0.22677,0.48597,0.50758,-0.25964,0.66241,0.08950,-0.75276,-0.57353
0.29146,0.69531,-0.16378,0.01704,-0.09477,-0.23768,0.32159,0.31658,-0.12096,0.26747,0.07075,0.15743,0.48625,0.50889,-0.26253,0.66005,-6.28792,3.35179,-5.37350
0.29199,0.69410,-0.16692,0.02020,-0.09332,-0.23554,0.19852,0.37182,-0.15503,0.25650,0.04785,0.24826,0.48524,0.51015,-0.26634,0.65829,-8.66548,3.73477,-2.64338
0.29261,0.69306,-0.17001,0.02350,-0.09382,-0.23227,0.10882,0.40683,-0.18117,0.09085,-0.24082,0.03506,0.48432,0.51132,-0.27000,0.65658,-7.32648,3.20923,-1.52351
0.29315,0.69188,-0.17316,0.02521,-0.09507,-0.23063,0.13395,0.40519,-0.17919,0.06694,-0.14520,0.04861,0.48516,0.51296,-0.27138,0.65410,0.18486,0.58784,-0.41114
0.29363,0.69069,-0.17631,0.02597,-0.09587,-0.22937,0.14094,0.42078,-0.17820,0.06118,-0.07701,0.21790,0.48566,0.51483,-0.27315,0.65152,2.04694,0.27282,0.17558
0.29424,0.68968,-0.17935,0.02790,-0.09805,-0.22614,0.12108,0.45669,-0.20728,0.08717,-0.24818,0.22170,0.48590,0.51652,-0.27622,0.64870,-1.20690,2.11187,-1.60064
0.29478,0.68847,-0.18240,0.02899,-0.10011,-0.22402,0.11481,0.47710,-0.22554,0.04560,-0.25147,0.17785,0.48629,0.51819,-0.27902,0.64587,-1.53891,2.38626,-1.97707
0.29526,0.68736,-0.18536,0.02832,-0.10147,-0.22100,0.10390,0.51811,-0.25107,-0.19295,0.03427,0.29480,0.48653,0.52014,-0.28246,0.64262,0.03498,2.03683,-1.21033
0.29566,0.68636,-0.18819,0.02644,-0.10104,-0.21668,0.02647,0.56583,-0.27264,-0.15447,-0.03103,0.41235,0.48531,0.52179,-0.28725,0.64008,-4.86677,3.86775,-1.46713
0.29603,0.68536,-0.19084,0.02445,-0.10107,-0.21027,-0.02206,0.58584,-0.26941,-0.19361,-0.12551,0.29683,0.48411,0.52345,-0.29129,0.63779,-3.93616,1.87900,-0.48798
0.29628,0.68429,-0.19352,0.02149,-0.10063,-0.20590,0.00587,0.57542,-0.25126,-0.37340,0.04799,0.20303,0.48413,0.52537,-0.29366,0.63511,0.98750,-0.71805,1.17749
