posX, posY, posZ, velX, velY, velZ, angVelX, angVelY, angVelZ, accX, accY, accZ, rotX, rotY, rotZ, rotW, angAccX, angAccY, angAccZ
0.19855,1.33249,-0.41285,0.02199,0.05229,-0.03377,0.00230,-0.06990,-0.00382,-1.17115,0.77379,0.23527,0.01831,0.85354,0.07232,0.51566,-1.47467,-3.37171,3.05718
0.19835,1.33373,-0.41349,0.00572,0.06273,-0.03023,0.01440,-0.08307,0.02805,-1.13741,0.67396,0.23852,0.01786,0.85306,0.07285,0.51639,0.18874,-1.85941,2.72317
0.19777,1.33531,-0.41413,-0.01094,0.07333,-0.02626,0.05402,-0.08335,0.02302,-0.99091,0.60266,0.25315,0.01815,0.85254,0.07382,0.51710,1.91588,-0.12252,-0.07267
0.19702,1.33701,-0.41459,-0.02229,0.08066,-0.02301,0.11186,-0.06560,-0.02301,-1.00791,0.53941,0.20665,0.01988,0.85218,0.07501,0.51746,3.26322,0.56024,-2.09200
0.19573,1.33924,-0.41493,-0.03632,0.08982,-0.01789,0.26349,0.01064,-0.11620,-1.07832,0.67399,0.34434,0.02548,0.85245,0.07829,0.51628,9.00732,4.13987,-5.69406
0.19429,1.34108,-0.41490,-0.05283,0.10178,-0.01125,0.46661,0.09762,-0.23278,-1.38834,1.02923,0.52831,0.03335,0.85307,0.08273,0.51411,14.44644,6.79075,-7.96433
0.19247,1.34327,-0.41475,-0.07108,0.11551,-0.00548,0.62060,0.13491,-0.31399,-1.72418,1.34357,0.56248,0.04105,0.85318,0.08732,0.51261,14.34733,4.50171,-7.62854
0.18956,1.34625,-0.41448,-0.10293,0.13829,0.00040,0.78887,0.14052,-0.38451,-2.22552,1.67088,0.24087,0.04970,0.85271,0.09307,0.51163,10.76214,0.44425,-4.96658
0.18612,1.34962,-0.41441,-0.13659,0.16279,0.00162,0.91270,0.14963,-0.40589,-2.53738,1.92098,-0.03225,0.05734,0.85227,0.09913,0.51041,8.98431,0.39722,-1.70330
0.18231,1.35337,-0.41443,-0.16820,0.18731,0.00110,1.06283,0.18160,-0.42596,-2.71339,2.13688,-0.19804,0.06598,0.85194,0.10652,0.50843,9.64769,0.80919,-1.62202
0.17757,1.35800,-0.41443,-0.20733,0.22054,0.00153,1.41297,0.30290,-0.45928,-2.85069,2.40998,-0.17694,0.07903,0.85206,0.11960,0.50343,20.94571,6.00116,-1.76081
0.17189,1.36356,-0.41431,-0.25355,0.26201,0.00384,2.00736,0.57173,-0.54441,-2.91361,2.63788,0.09944,0.09899,0.85298,0.13964,0.49308,36.57719,15.28920,-3.85927
0.16628,1.36915,-0.41415,-0.28800,0.29431,0.00607,2.47823,0.78538,-0.66563,-3.08369,2.60746,0.25525,0.12060,0.85304,0.15912,0.48215,41.19361,17.55306,-6.16241
0.15952,1.37554,-0.41414,-0.33392,0.33310,0.00678,2.99778,0.99361,-0.66193,-4.18225,2.23091,0.39762,0.14231,0.85231,0.18392,0.46849,37.79488,18.75546,-1.54163
0.15185,1.38261,-0.41449,-0.38392,0.37443,0.00105,3.27364,1.22850,-0.65814,-3.22305,3.89091,-0.52365,0.16248,0.85223,0.20515,0.45300,28.86666,9.14700,-6.40205
0.14353,1.39079,-0.41524,-0.43312,0.42369,-0.00973,3.31840,1.32463,-0.61395,-3.91627,3.46555,-0.61819,0.17836,0.85164,0.22262,0.43971,7.09738,9.08343,5.50732
0.13400,1.39943,-0.41627,-0.49107,0.47001,-0.02223,3.31697,1.42457,-0.57655,-4.41165,3.36329,-1.07069,0.19362,0.85102,0.23878,0.42575,-0.83391,4.01943,3.15168
0.12437,1.40804,-0.41729,-0.53553,0.50373,-0.03183,3.32838,1.55759,-0.53434,-4.49546,3.52105,-0.93943,0.20892,0.85058,0.25504,0.40966,2.40930,9.88040,5.48104
0.11178,1.41902,-0.41880,-0.61683,0.56705,-0.04705,3.20742,1.73884,-0.42404,-4.68153,3.63552,-0.57770,0.22078,0.85210,0.26838,0.39135,-4.79796,9.39738,8.42312
0.09908,1.42982,-0.42018,-0.68412,0.61553,-0.05697,2.98479,1.80878,-0.27802,-4.93398,3.44488,-0.43598,0.22895,0.85361,0.27941,0.37531,-11.31444,4.93646,11.94183
0.08646,1.44037,-0.42149,-0.73311,0.64747,-0.06392,2.72318,1.79788,-0.15110,-4.90823,3.08262,-0.41465,0.23490,0.85502,0.28833,0.36143,-19.17062,-0.15193,15.09505
0.07103,1.45244,-0.42311,-0.81466,0.69556,-0.07441,2.24142,1.75815,0.03122,-4.29527,2.29422,-0.69925,0.23467,0.85905,0.29089,0.34978,-27.18496,-5.40514,13.07628
0.05584,1.46406,-0.42449,-0.87740,0.72735,-0.07959,2.05710,1.89077,0.14534,-3.76992,1.63311,-0.50270,0.23917,0.86256,0.29711,0.33244,-13.41945,4.80963,9.96030
0.04068,1.47533,-0.42574,-0.92634,0.74643,-0.08163,2.05065,2.10579,0.19820,-3.41570,1.14720,-0.21800,0.24706,0.86529,0.30551,0.31127,-2.03322,13.53988,6.31923
0.02509,1.48648,-0.42685,-0.97109,0.75938,-0.08063,2.09807,2.36985,0.24266,-3.12024,0.70833,0.21039,0.25613,0.86792,0.31438,0.28683,3.18512,17.47998,5.55800
0.00907,1.49745,-0.42763,-1.01273,0.76627,-0.07435,2.16661,2.63221,0.29642,-2.90003,0.26338,0.72885,0.26537,0.87018,0.32356,0.26014,5.83844,19.05091,5.39355
-0.00735,1.50816,-0.42801,-1.05113,0.76732,-0.06278,2.14078,2.80649,0.34217,-2.56328,-0.16048,1.26928,0.27338,0.87230,0.33072,0.23449,1.10961,14.17681,5.46064
-0.02392,1.51758,-0.42905,-1.08435,0.76112,-0.04754,2.03881,2.89071,0.37248,-2.17930,-0.61445,1.60428,0.28013,0.87418,0.33600,0.21080,-5.50229,7.01638,4.39301
-0.04076,1.52648,-0.42989,-1.11318,0.74865,-0.02913,1.85117,2.90653,0.38597,-1.89470,-0.97111,1.74142,0.28572,0.87630,0.33856,0.18934,-12.19374,1.65166,3.35595
-0.05763,1.53547,-0.42990,-1.13483,0.73485,-0.00868,1.72259,2.92345,0.39983,-1.73723,-1.16853,1.97625,0.29131,0.87788,0.34117,0.16751,-12.17946,0.34468,3.55142
-0.07555,1.54433,-0.42738,-1.16487,0.70930,0.03182,1.57968,2.93676,0.42440,-1.44990,-1.74860,2.42361,0.29618,0.87963,0.34248,0.14573,-7.42340,0.61664,3.38151
-0.09279,1.55323,-0.42525,-1.17816,0.69132,0.05734,1.51577,2.93206,0.41720,-1.11697,-1.94409,2.61002,0.30186,0.88012,0.34478,0.12411,-7.24410,0.18778,1.65094
-0.11014,1.56108,-0.42190,-1.19151,0.66202,0.09598,1.45763,2.92716,0.38416,-0.75054,-2.29767,2.81899,0.30807,0.88004,0.34644,0.10297,-4.75760,-0.37721,-1.13104
-0.12740,1.56839,-0.41793,-1.20007,0.62963,0.13546,1.40075,2.91721,0.33881,-0.48140,-2.41446,2.71268,0.31459,0.87946,0.34760,0.08224,-4.34403,-1.12420,-2.29211
-0.14459,1.57524,-0.41363,-1.20600,0.59731,0.17124,1.32788,2.93856,0.30179,-0.31830,-2.31721,2.33126,0.32118,0.87884,0.34752,0.06099,-5.90051,0.12615,-1.39786
-0.16154,1.58167,-0.40899,-1.20722,0.56581,0.20509,1.30798,3.05459,0.23940,-0.01661,-2.19474,2.34296,0.32967,0.87721,0.34707,0.03695,-3.98118,6.95820,-2.46553
-0.17840,1.58786,-0.40355,-1.20643,0.53571,0.24138,1.31881,3.20191,0.17578,0.15957,-2.16088,2.64407,0.33910,0.87454,0.34651,0.01115,-0.08275,11.10903,-3.84711
-0.19504,1.59359,-0.39692,-1.20249,0.50451,0.28887,1.35191,3.34708,0.11795,0.40686,-1.87849,3.14962,0.34885,0.87081,0.34604,-0.01561,1.18951,9.84922,-3.78844
-0.21122,1.59941,-0.38955,-1.19683,0.48084,0.33607,1.32000,3.38278,0.14501,0.63052,-1.64627,3.62615,0.35562,0.86775,0.34483,-0.04047,-0.01639,5.75087,-0.11945
-0.22641,1.60564,-0.38029,-1.18601,0.46198,0.38915,1.14947,3.24629,0.26857,0.92695,-1.46629,3.74094,0.35781,0.86699,0.34151,-0.06057,-7.26415,-6.68130,8.01731
-0.24122,1.61172,-0.37040,-1.17261,0.44581,0.44233,0.90516,3.00595,0.46000,0.73390,-1.24888,3.36396,0.35592,0.86845,0.33649,-0.07673,-14.94871,-19.18240,15.33998
-0.25637,1.61702,-0.36111,-1.15607,0.42875,0.48993,0.77928,2.92149,0.59259,1.31345,-1.12396,3.15369,0.35525,0.86864,0.33174,-0.09597,-9.02617,-9.95732,12.73453
-0.27095,1.62186,-0.35125,-1.12877,0.41040,0.54197,0.68863,2.86180,0.71782,2.05099,-1.07274,3.42513,0.35402,0.86856,0.32692,-0.11572,-4.18069,-3.36116,8.39815
-0.28517,1.62684,-0.34127,-1.10276,0.39844,0.58352,0.65507,2.81151,0.78953,2.31018,-0.88037,3.53184,0.35321,0.86754,0.32294,-0.13535,-3.23214,-6.10372,8.20039
-0.29833,1.63165,-0.32999,-1.06710,0.38647,0.63492,0.73244,2.81702,0.82192,2.65769,-0.73887,3.66128,0.35306,0.86466,0.32106,-0.15694,4.08630,-0.52563,1.95613
-0.31039,1.63619,-0.31767,-1.02063,0.37245,0.69233,0.81568,2.80278,0.87279,3.34955,-0.98506,3.55948,0.35183,0.86143,0.31978,-0.17858,6.66886,0.66119,1.89059
-0.32211,1.64067,-0.30559,-0.97933,0.36083,0.73250,0.82421,2.71402,0.91089,3.77190,-1.08911,3.34082,0.34990,0.85884,0.31775,-0.19749,3.11597,-4.80353,2.67429
-0.33247,1.64480,-0.29270,-0.92621,0.34637,0.77613,0.79658,2.54814,0.96039,3.99694,-1.05337,3.04074,0.34651,0.85711,0.31574,-0.21354,-0.10136,-11.38388,3.06857
-0.34232,1.64883,-0.27972,-0.87769,0.33367,0.81085,0.79593,2.41264,0.98260,4.07028,-1.06546,2.76598,0.34324,0.85487,0.31432,-0.22932,-0.12867,-12.51963,2.52448
-0.35029,1.65231,-0.26575,-0.80983,0.31508,0.85351,0.85987,2.31449,0.95700,4.30375,-1.20128,2.56396,0.34073,0.85127,0.31464,-0.24545,3.65017,-7.22879,-1.92848
-0.35983,1.65489,-0.25423,-0.75530,0.29466,0.88055,0.95028,2.21896,0.90241,4.52081,-1.43462,2.33419,0.33859,0.84681,0.31637,-0.26111,5.76343,-4.77182,-4.98026
-0.36878,1.65734,-0.24242,-0.70812,0.27548,0.89892,1.00984,2.14047,0.84613,4.36097,-1.51943,1.84521,0.33671,0.84214,0.31794,-0.27628,5.70431,-6.96429,-5.38299
-0.37524,1.65910,-0.22987,-0.63537,0.24738,0.91796,1.06887,2.06192,0.78865,4.29753,-1.61206,0.91713,0.33485,0.83710,0.32010,-0.29098,3.64401,-3.81274,-4.50600
-0.38043,1.66124,-0.21694,-0.57607,0.22578,0.92434,1.05363,1.97238,0.77413,4.34502,-1.55651,0.25234,0.33233,0.83304,0.32056,-0.30471,-0.28125,-5.24573,-1.30933
-0.38525,1.66329,-0.20429,-0.52484,0.20780,0.92391,1.00550,1.88374,0.76964,4.22066,-1.55416,-0.10134,0.32967,0.82945,0.32023,-0.31747,-2.19847,-8.61664,-1.96610
-0.38845,1.66464,-0.19174,-0.45835,0.18213,0.92092,0.97595,1.76961,0.75461,4.16309,-1.71769,-0.20007,0.32676,0.82597,0.32055,-0.32901,-2.43498,-6.68901,-0.90955
-0.39140,1.66565,-0.17907,-0.40144,0.15636,0.91704,0.96729,1.64535,0.72743,4.05563,-1.93223,-0.44379,0.32373,0.82241,0.32169,-0.33964,-0.35113,-8.48294,-1.87211
-0.39357,1.66618,-0.16667,-0.34463,0.12860,0.90978,0.98107,1.57497,0.66290,3.95962,-2.01976,-0.68318,0.32175,0.81791,0.32342,-0.35057,-0.15324,-6.85208,-3.82428
-0.39440,1.66613,-0.15467,-0.27859,0.09618,0.89579,1.01741,1.60284,0.51491,4.11784,-2.09552,-1.22325,0.32264,0.81125,0.32583,-0.36278,1.89224,1.31272,-8.63324
-0.39519,1.66621,-0.14286,-0.22861,0.07225,0.87989,1.01253,1.64185,0.38181,4.12342,-2.08947,-1.62163,0.32445,0.80436,0.32742,-0.37488,-0.85387,4.10314,-10.69832
-0.39482,1.66576,-0.13172,-0.17225,0.04545,0.85661,0.99585,1.73505,0.21004,3.79501,-1.87537,-1.89893,0.32869,0.79604,0.32872,-0.38759,-2.57473,5.69701,-11.68130
-0.39397,1.66499,-0.12115,-0.12026,0.02097,0.83060,0.99803,1.86743,0.04588,3.61179,-1.70532,-2.02676,0.33406,0.78629,0.33007,-0.40150,-1.72610,10.54929,-11.46429
-0.39259,1.66402,-0.11113,-0.07207,-0.00130,0.80109,0.97052,1.91170,-0.06485,3.52964,-1.65457,-2.41183,0.33875,0.77739,0.33112,-0.41385,-1.61279,6.69233,-9.16073
-0.39109,1.66302,-0.10158,-0.03339,-0.01815,0.77200,0.89124,1.84993,-0.10849,3.27613,-1.40096,-2.59477,0.34211,0.77059,0.33125,-0.42359,-5.76181,-2.18000,-4.42182
-0.38877,1.66174,-0.09285,0.01004,-0.03523,0.73788,0.80655,1.75320,-0.16840,2.93697,-1.08368,-2.37731,0.34586,0.76436,0.33159,-0.43148,-7.43838,-8.01631,-2.73957
-0.38595,1.66043,-0.08436,0.05114,-0.04918,0.70697,0.78839,1.74873,-0.26319,2.76181,-0.74643,-2.19682,0.35084,0.75605,0.33291,-0.44100,-3.20391,-1.60874,-5.96551
-0.38242,1.65922,-0.07628,0.09503,-0.05842,0.67633,0.79709,1.72714,-0.36139,2.68265,-0.43102,-1.77810,0.35588,0.74728,0.33520,-0.45006,-0.45812,-0.07098,-6.65549
-0.37778,1.65830,-0.06808,0.13536,-0.06358,0.65128,0.85101,1.68208,-0.43160,2.11667,-0.29183,-1.60116,0.35981,0.73834,0.33876,-0.45894,2.39263,-2.96014,-5.41849
-0.37362,1.65744,-0.05989,0.16063,-0.06587,0.63335,0.89268,1.61088,-0.43306,1.91686,-0.28259,-1.68094,0.36210,0.73031,0.34200,-0.46751,3.36242,-3.45423,-2.72719
-0.36935,1.65646,-0.05239,0.18440,-0.06889,0.60913,0.90363,1.40447,-0.37624,1.60579,-0.26610,-2.01462,0.36178,0.72517,0.34567,-0.47303,1.50768,-12.28615,2.36483
-0.36541,1.65541,-0.04589,0.20739,-0.07034,0.57640,0.86682,1.14589,-0.29826,1.34974,-0.11801,-2.04155,0.36030,0.72229,0.34887,-0.47620,-2.28902,-16.58735,4.27717
-0.36146,1.65434,-0.03952,0.22530,-0.07194,0.54833,0.84508,0.95374,-0.27029,1.13566,-0.01239,-1.95847,0.35947,0.71888,0.35256,-0.47927,-2.11729,-15.87830,2.70119
-0.35734,1.65334,-0.03328,0.24183,-0.07193,0.52518,0.85291,0.88834,-0.31064,1.32608,0.18074,-1.82300,0.36041,0.71338,0.35671,-0.48369,-0.80681,-8.64478,-0.84628
-0.35259,1.65245,-0.02772,0.26466,-0.07000,0.49601,0.89749,0.91660,-0.43710,1.22242,0.14465,-1.80529,0.36365,0.70522,0.36217,-0.48914,2.11894,0.91674,-7.95744
-0.34793,1.65161,-0.02235,0.28103,-0.06772,0.47005,0.93588,0.96489,-0.52535,1.18008,0.13710,-1.95265,0.36689,0.69658,0.36722,-0.49530,2.49758,5.39287,-7.14562
-0.34336,1.65079,-0.01723,0.29203,-0.06572,0.44643,0.91703,0.90013,-0.55501,1.04777,0.00527,-2.13831,0.36892,0.69028,0.37183,-0.49915,0.87545,-0.57320,-4.17550
-0.33880,1.64992,-0.01281,0.29997,-0.06493,0.41707,0.84849,0.70985,-0.53316,0.39330,0.03722,-2.21207,0.36925,0.68724,0.37624,-0.49980,-4.56281,-13.12419,-0.24300
-0.33427,1.64916,-0.00890,0.30568,-0.06269,0.38626,0.77183,0.57887,-0.52246,0.24877,0.16592,-2.07048,0.37019,0.68421,0.38004,-0.50039,-6.52227,-11.69273,0.60539
-0.32971,1.64835,-0.00516,0.31058,-0.06162,0.35962,0.73073,0.52407,-0.54413,0.25210,0.12335,-1.75191,0.37200,0.67988,0.38409,-0.50186,-3.76825,-4.02846,-0.97806
-0.32518,1.64752,-0.00162,0.31395,-0.06127,0.33584,0.70994,0.49532,-0.58177,0.12049,0.01260,-1.70514,0.37420,0.67493,0.38851,-0.50348,-1.79406,-2.61536,-2.57600
-0.32080,1.64672,0.00156,0.31396,-0.06026,0.31148,0.70659,0.51156,-0.62563,-0.18065,0.24757,-1.76874,0.37696,0.66903,0.39299,-0.50583,-1.27096,0.19582,-3.42594
-0.31672,1.64619,0.00432,0.30919,-0.05521,0.28585,0.71512,0.54254,-0.65366,-0.59412,0.50018,-1.87019,0.37958,0.66272,0.39738,-0.50873,0.52632,1.98318,-2.26201
-0.31318,1.64600,0.00642,0.29654,-0.04561,0.25478,0.72421,0.58375,-0.63054,-0.70866,0.69370,-2.03682,0.38144,0.65656,0.40091,-0.51255,1.39697,3.78799,1.15763
-0.30973,1.64592,0.00834,0.28505,-0.03616,0.22748,0.68924,0.46823,-0.58354,-0.74176,0.69917,-2.02875,0.38171,0.65338,0.40490,-0.51327,-0.78906,-5.20021,-0.74710
-0.30642,1.64616,0.00988,0.27409,-0.02375,0.20026,0.65216,0.29857,-0.50777,-0.76572,0.90644,-1.86893,0.38029,0.65212,0.40892,-0.51273,-3.42592,-11.88990,7.36991
-0.30319,1.64654,0.01119,0.26439,-0.01192,0.17566,0.61174,0.11929,-0.46232,-0.64205,0.95418,-1.69729,0.37871,0.65163,0.41344,-0.51091,-3.65218,-13.36718,3.30646
-0.29997,1.64718,0.01224,0.25670,0.00156,0.15233,0.58371,-0.00583,-0.45229,-0.52083,1.05671,-1.62689,0.37770,0.65060,0.41826,-0.50904,-2.11817,-9.92930,0.60478
-0.29656,1.64811,0.01299,0.25414,0.01687,0.12956,0.57384,-0.02740,-0.47902,-0.06999,1.22335,-1.52338,0.37802,0.64793,0.42296,-0.50832,-1.76369,-4.34619,-0.80115
-0.29281,1.64923,0.01349,0.25763,0.03151,0.10773,0.57708,0.03360,-0.55436,0.40811,0.95690,-1.52785,0.38023,0.64323,0.42783,-0.50858,0.50990,4.14582,-4.85074
-0.28869,1.65034,0.01387,0.26661,0.04262,0.08921,0.57893,0.06580,-0.64491,0.94519,0.65614,-1.13249,0.38290,0.63831,0.43328,-0.50814,0.05660,4.16669,-5.83168
-0.28413,1.65139,0.01441,0.28079,0.05012,0.07765,0.59938,0.02050,-0.75159,1.20957,0.53739,-0.57853,0.38509,0.63377,0.44045,-0.50601,0.49115,-2.27041,-7.54067
-0.27913,1.65249,0.01524,0.29906,0.05681,0.07364,0.66467,-0.03189,-0.88323,1.42872,0.59726,-0.03227,0.38721,0.62824,0.44946,-0.50336,2.78651,-3.92419,-8.99664
-0.27375,1.65379,0.01632,0.31921,0.06535,0.07458,0.75956,-0.09782,-1.02062,1.51072,0.65879,0.06590,0.38893,0.62193,0.46015,-0.50020,7.31052,-3.77602,-10.43685
-0.26811,1.65538,0.01740,0.33905,0.07665,0.07529,0.83889,-0.19826,-1.13810,1.38178,0.92438,-0.06101,0.39004,0.61604,0.47165,-0.49589,5.56297,-6.93739,-9.48937
-0.26224,1.65734,0.01823,0.35738,0.09147,0.07139,0.87651,-0.31606,-1.21371,1.37644,1.01025,-0.50711,0.39061,0.61108,0.48297,-0.49065,3.72671,-7.49760,-6.59575
-0.25613,1.65949,0.01880,0.37631,0.10582,0.06432,0.83985,-0.52246,-1.26955,1.57054,0.93160,-0.59417,0.39043,0.60875,0.49418,-0.48247,-2.49292,-12.37419,-4.00298
-0.24979,1.66164,0.01933,0.39491,0.11700,0.05856,0.78388,-0.73109,-1.33103,1.65583,0.92429,-0.42486,0.39017,0.60732,0.50557,-0.47257,-5.65247,-16.59242,-5.60624
-0.24256,1.66414,0.01994,0.42357,0.13130,0.05529,0.75695,-0.95874,-1.46889,1.36478,0.85507,0.10106,0.39019,0.60540,0.51923,-0.46005,-3.62631,-14.07816,-8.33503
-0.23540,1.66656,0.02071,0.44518,0.14140,0.05542,0.82647,-0.96975,-1.59351,1.44166,0.73071,0.14191,0.39147,0.59934,0.53273,-0.45137,4.23149,-3.17813,-9.39136
-0.22796,1.66904,0.02166,0.46628,0.15017,0.05841,0.93177,-0.96631,-1.71492,1.58048,0.51752,0.17424,0.39258,0.59179,0.54718,-0.44302,8.03780,1.31679,-8.49743
-0.22044,1.67141,0.02260,0.48362,0.15472,0.06054,0.98702,-1.04006,-1.81552,1.52381,0.22576,0.19059,0.39287,0.58531,0.56201,-0.43269,6.38115,-4.04074,-7.92492
-0.21250,1.67371,0.02385,0.50364,0.15707,0.06753,1.07633,-1.17610,-1.94525,1.06269,0.02220,0.61916,0.39204,0.57827,0.57898,-0.42035,4.54475,-8.05119,-8.66988
-0.20485,1.67581,0.02534,0.51435,0.15566,0.07687,1.14481,-1.39406,-2.03828,0.72623,-0.31411,0.60207,0.38906,0.57237,0.59680,-0.40602,5.41853,-12.57299,-7.12913
-0.19751,1.67775,0.02698,0.51714,0.15179,0.08648,1.13002,-1.71094,-2.12336,0.13674,-0.45986,0.82037,0.38439,0.56899,0.61501,-0.38764,-1.66453,-21.62598,-8.38041
-0.19064,1.67949,0.02910,0.51152,0.14556,0.10183,1.13049,-2.14025,-2.23871,-0.86160,-0.20809,1.14879,0.37677,0.56663,0.63556,-0.36475,-4.88359,-27.66977,-10.29243
-0.18435,1.68124,0.03141,0.49728,0.14087,0.11701,1.27004,-2.38386,-2.30459,-1.49650,-0.11438,1.17728,0.36811,0.56051,0.65665,-0.34516,5.25821,-21.13532,-5.43099
-0.17853,1.68312,0.03375,0.47873,0.13954,0.12886,1.54073,-2.38960,-2.32724,-2.42790,0.44947,1.13828,0.35993,0.54916,0.67783,-0.33078,14.88901,-11.29939,-2.87079
-0.17399,1.68536,0.03615,0.44315,0.14463,0.13867,2.16348,-2.15219,-2.24805,-2.36918,0.38051,-0.16881,0.34962,0.52784,0.70163,-0.32691,40.47668,9.66339,14.33938
-0.16948,1.68823,0.03788,0.41535,0.15925,0.13509,2.36929,-2.17940,-2.00948,-1.22832,0.72044,-0.81751,0.33560,0.51547,0.72072,-0.31972,18.05769,-1.05937,22.09005
-0.16471,1.69091,0.03914,0.39879,0.16662,0.12475,2.30221,-2.38419,-1.98429,-1.13649,0.09455,-1.65916,0.32259,0.50727,0.73924,-0.30355,3.25380,-13.64995,7.49478
-0.16021,1.69390,0.03904,0.38195,0.17772,0.09466,1.95859,-2.81333,-2.09524,-0.72396,0.61889,-1.73895,0.30870,0.50603,0.75637,-0.27665,-21.93895,-21.92515,-13.50634
-0.15529,1.69659,0.03892,0.37536,0.18117,0.07048,1.80807,-3.00983,-2.17031,-0.46545,0.11002,-1.58314,0.29584,0.50055,0.77312,-0.25343,-13.86177,-13.90025,-10.44179
-0.15010,1.69881,0.03867,0.37486,0.17590,0.04977,1.79233,-3.07279,-2.24464,0.11069,-0.59424,-1.28372,0.28377,0.49156,0.78995,-0.23202,-3.71204,-5.59083,-6.74234
-0.14452,1.70040,0.03837,0.38116,0.16119,0.03312,1.89406,-3.02273,-2.32667,0.54783,-1.15347,-0.92051,0.27294,0.47855,0.80707,-0.21243,5.94033,1.07744,-4.83670
-0.13828,1.70146,0.03817,0.39706,0.14127,0.02212,2.15438,-2.82012,-2.34187,1.36258,-1.43001,-0.58959,0.26339,0.46023,0.82442,-0.19785,17.39043,8.58592,1.96360
-0.13117,1.70197,0.03811,0.42369,0.11664,0.01606,2.49726,-2.51514,-2.30056,2.18298,-1.99473,-0.16132,0.25538,0.43751,0.84149,-0.18777,25.55508,16.85256,9.60400
-0.12354,1.70198,0.03838,0.45236,0.08997,0.01689,2.79666,-2.25464,-2.25958,2.55181,-2.51531,0.32452,0.24766,0.41321,0.85795,-0.17843,26.87021,16.57027,10.79639
-0.11530,1.70031,0.03928,0.48398,0.04138,0.02816,3.12593,-2.09762,-2.29541,1.70917,-3.85081,1.07898,0.23903,0.38545,0.87534,-0.16756,25.09028,10.61034,7.68543
-0.10811,1.69777,0.04089,0.49124,-0.01094,0.04873,3.22882,-2.24401,-2.50176,0.02519,-4.05621,1.84079,0.22697,0.36115,0.89247,-0.14679,9.88011,-5.46663,-13.58102
-0.10171,1.69462,0.04297,0.48386,-0.06045,0.07184,3.35391,-2.44077,-2.66154,-1.07671,-4.12238,2.17375,0.21198,0.33553,0.90935,-0.12477,7.74736,-13.52920,-17.25881
-0.09643,1.68962,0.04589,0.45926,-0.12865,0.10334,3.66961,-2.68361,-2.74950,-2.20621,-4.09805,1.93528,0.19233,0.30409,0.92725,-0.10370,16.08047,-17.29411,-8.72017
-0.09196,1.68418,0.04865,0.42730,-0.18976,0.12538,4.14816,-2.83165,-2.63471,-2.80025,-4.28632,1.51833,0.17025,0.26702,0.94430,-0.08948,26.44596,-17.18010,5.43542
-0.08812,1.67804,0.05115,0.39239,-0.24747,0.13766,4.66909,-2.96789,-2.43108,-3.24016,-5.07097,0.74130,0.14520,0.22548,0.96012,-0.07906,35.22612,-21.35491,18.98072
-0.08574,1.67006,0.05314,0.34253,-0.32072,0.13844,5.20085,-3.19669,-2.29170,-3.67130,-5.65775,-0.61895,0.11589,0.17935,0.97460,-0.06757,35.11326,-25.91273,14.58107
-0.08488,1.66019,0.05384,0.27825,-0.40941,0.11776,5.69561,-3.49472,-2.27468,-4.22094,-5.81777,-2.21815,0.08364,0.12993,0.98659,-0.05252,28.49757,-23.60416,1.79720
-0.08485,1.64992,0.05303,0.21414,-0.48531,0.07660,5.97987,-3.76643,-2.42908,-4.72074,-5.36928,-3.72618,0.05177,0.08212,0.99477,-0.03182,21.89837,-19.94831,-9.33124
-0.08604,1.63928,0.05054,0.14466,-0.54962,0.01714,6.14315,-4.01183,-2.68988,-5.28479,-4.09889,-5.19292,0.01964,0.03505,0.99917,-0.00644,16.36679,-13.41167,-20.46475
-0.08962,1.62848,0.04496,0.04974,-0.60225,-0.08201,6.29223,-4.30749,-2.95150,-6.58764,-2.28408,-7.26015,-0.01540,-0.01269,0.99958,0.02107,10.64547,-11.37988,-21.00684
-0.09351,1.61910,0.03821,-0.02764,-0.61858,-0.17693,6.45667,-4.58689,-2.99794,-6.79701,0.18572,-8.30004,-0.05281,-0.06138,0.99574,0.04401,12.43972,-17.77580,-15.30907
-0.09923,1.61187,0.02844,-0.11598,-0.59462,-0.29810,6.63329,-5.17775,-2.65371,-6.63657,4.33952,-8.31253,-0.10205,-0.11074,0.98699,0.05640,5.99178,-37.88507,1.84608
-0.10524,1.60830,0.01744,-0.18828,-0.51554,-0.41116,6.55233,-6.21197,-1.86214,-4.62937,7.92496,-7.32471,-0.16832,-0.15341,0.97227,0.05309,-20.10541,-79.40326,14.85393
-0.11067,1.60852,0.00601,-0.23445,-0.39254,-0.50544,5.99485,-7.49004,-1.03208,-2.21833,10.01307,-6.61585,-0.24730,-0.18180,0.95084,0.04107,-53.14515,-101.88130,6.59588
-0.11506,1.61095,-0.00547,-0.25238,-0.26383,-0.57760,5.18772,-8.31882,-0.80455,0.39052,11.11501,-6.90134,-0.32097,-0.19781,0.92540,0.03861,-67.56676,-86.05874,-27.20580
-0.11801,1.61941,-0.01953,-0.24244,-0.06590,-0.67558,4.00806,-8.45149,-1.34287,2.49232,13.14221,-6.85388,-0.38078,-0.19410,0.90241,0.05470,-49.78647,-0.83273,-65.48419
-0.11904,1.63021,-0.03424,-0.20314,0.12776,-0.76319,3.15200,-7.98115,-2.11354,3.97448,14.33578,-6.46110,-0.42433,-0.18925,0.88176,0.08141,-28.62108,45.95052,-71.16867
-0.11908,1.64119,-0.04889,-0.15844,0.27480,-0.82747,2.67768,-7.62952,-2.57357,4.68744,15.45103,-6.29773,-0.46622,-0.18898,0.85787,0.10478,-11.39086,59.34364,-63.64709
-0.11410,1.66266,-0.06759,-0.04279,0.55711,-0.94195,1.67732,-7.69398,-2.93185,7.18192,17.24159,-6.13630,-0.51717,-0.16994,0.83018,0.12022,-34.61806,12.52054,-42.00872
-0.10821,1.68332,-0.08544,0.06278,0.76649,-1.01877,0.76223,-8.03327,-3.12051,9.90113,18.79746,-6.77683,-0.57426,-0.14792,0.79500,0.12776,-57.47881,-9.22736,-49.84562
-0.09709,1.71111,-0.10596,0.22679,1.03948,-1.11976,-0.35135,-8.43303,-3.49904,13.84251,20.74394,-7.77599,-0.63399,-0.11120,0.75347,0.13407,-60.17100,-14.13133,-62.95904
-0.08033,1.74417,-0.12852,0.44386,1.33548,-1.23093,-1.37061,-8.70700,-4.15568,14.38713,17.77968,-8.34238,-0.69017,-0.06470,0.70592,0.14542,-50.72898,-7.70881,-75.52531
-0.05644,1.78239,-0.15290,0.72809,1.64892,-1.34554,-1.99212,-8.80995,-4.97964,26.25261,25.69074,-8.20518,-0.74005,-0.01788,0.65155,0.16579,1.34584,-39.42163,-70.47015
-0.01975,1.82968,-0.17857,1.15784,2.04113,-1.45719,-2.81593,-8.33099,-6.26271,28.61193,22.96376,-5.91258,-0.77291,0.05159,0.60191,0.19404,-1.14785,28.17458,-98.31094
0.02300,1.87740,-0.20299,1.59578,2.35707,-1.52416,-3.15738,-7.99168,-7.74030,35.42150,22.14948,-3.37216,-0.79823,0.12262,0.54126,0.23415,34.26276,0.46020,-101.23230
0.07770,1.92769,-0.22568,2.12921,2.64218,-1.54757,-3.04849,-7.56340,-9.38657,40.33520,17.47189,-0.42231,-0.80838,0.19670,0.47445,0.28764,62.41581,0.12498,-104.65030
0.14710,1.97829,-0.24451,2.78269,2.86720,-1.50147,-2.82545,-6.66402,-11.08730,53.70868,14.14798,6.44187,-0.79589,0.27924,0.41067,0.34631,79.81338,-16.59310,-95.12837
0.23374,2.02569,-0.25762,3.56731,2.98665,-1.37247,-2.50468,-5.74960,-12.80944,59.97047,3.46564,11.58504,-0.76326,0.36758,0.34191,0.40673,97.60371,-8.35609,-112.24150
0.33829,2.06489,-0.26392,4.46602,2.94448,-1.16132,-2.10927,-5.14543,-14.46270,69.29268,-10.18170,20.11811,-0.71374,0.45470,0.26085,0.46453,73.21536,-22.36906,-102.91050
0.46072,2.09103,-0.25870,5.44996,2.69817,-0.80926,-1.12485,-4.34810,-15.97742,72.47592,-26.67659,31.96772,-0.63663,0.53292,0.18351,0.52633,83.98833,-42.93524,-89.50769
0.59823,2.09874,-0.23809,6.45384,2.20649,-0.28655,0.53922,-3.66279,-17.48483,71.27039,-45.76923,44.59499,-0.52766,0.59698,0.10681,0.59480,119.08360,-80.15093,-84.16153
0.74554,2.08160,-0.19957,7.38684,1.42070,0.40820,2.96888,-3.16122,-19.27748,61.37901,-69.48420,53.36631,-0.37464,0.64228,0.02844,0.66806,117.52620,-158.64580,-96.68929
0.84671,2.03449,-0.14371,8.09282,0.20803,1.22045,4.90517,-2.40316,-20.52381,40.08844,-106.19710,63.78085,-0.20586,0.67439,-0.04070,0.70793,90.09805,-83.19766,-103.41760
0.94505,1.94638,-0.06456,8.42408,-1.46200,2.10668,7.66261,-1.37713,-21.33947,9.42302,-137.02780,62.45626,-0.00676,0.68015,-0.08074,0.72858,109.48670,-163.11200,-65.52169
1.02564,1.82461,0.01990,8.30818,-3.26276,2.79132,10.68578,0.41761,-22.53605,-28.26721,-169.66180,49.31200,0.22918,0.67201,-0.10255,0.69668,164.13330,-176.97340,-116.30890
1.08508,1.61763,0.08674,7.40748,-5.79483,3.26381,16.01121,3.26213,-23.09298,-98.69357,-188.21860,11.77847,0.50961,0.62152,-0.05422,0.59251,228.78070,-240.14170,-225.30190
1.09720,1.33208,0.11203,5.07437,-8.53106,3.05783,26.32079,6.14701,-19.74136,-179.40340,-149.76690,-42.58707,0.77810,0.47362,0.15934,0.38060,297.42340,-379.68980,-420.77510
1.02379,1.10956,0.10500,2.67843,-9.99605,2.32578,36.27697,3.50731,-15.37865,-210.16760,-91.10703,-83.87218,0.90308,0.16062,0.37684,0.12898,351.39430,-177.01740,-836.85470
0.83868,0.93744,0.00543,-0.80104,-10.40429,0.22569,37.86455,-6.18089,-13.20562,-164.91830,45.78057,-113.08960,0.84321,-0.19614,0.49900,0.03896,123.36880,285.21950,-580.26220
0.72619,0.86839,-0.08305,-2.39235,-9.13233,-1.24867,28.50828,-6.49365,-15.35774,-67.91107,117.32960,-73.03394,0.84660,-0.31074,0.42087,0.09786,-260.03640,675.56520,88.75682
0.66853,0.85651,-0.12655,-2.84661,-7.49596,-1.71584,21.42913,-3.18709,-13.05053,2.63950,113.73730,-0.10328,0.87431,-0.30433,0.36316,0.10526,-305.12180,299.38430,524.28480
0.63033,0.82964,-0.12467,-2.82058,-6.21892,-1.29277,15.68605,-8.21109,-7.68229,7.41274,71.88550,45.33665,0.78974,-0.30679,0.51699,0.12210,-599.78360,-146.26900,-51.33530
0.58838,0.78629,-0.10677,-2.86603,-5.51149,-0.71990,11.34718,-11.99162,-5.65758,-16.67453,48.67897,49.44902,0.67575,-0.34797,0.63512,0.13747,-402.33910,-190.20820,-410.17070
0.52555,0.74835,-0.07377,-3.24380,-4.87376,-0.03261,3.31976,-8.65688,-6.60030,-43.99974,35.95282,32.82804,0.64391,-0.31887,0.62340,0.30833,-323.13290,258.29420,-265.72860
0.45381,0.71194,-0.05113,-3.69824,-4.35436,0.33827,-2.24595,0.62007,-7.94122,-29.25635,44.59370,20.97825,0.71059,-0.23761,0.44603,0.48955,-100.03300,798.17130,-187.73920
0.38180,0.68987,-0.03105,-4.04632,-3.71402,0.58176,-4.24180,6.60311,-9.70429,-11.05746,52.13186,15.45042,0.72681,-0.20426,0.25279,0.60508,58.93953,515.71010,-237.23030
0.32140,0.67450,-0.01383,-4.11455,-3.12142,0.72539,-3.84016,7.86361,-10.32138,12.55249,50.42340,11.18988,0.71460,-0.21853,0.13848,0.64994,57.40117,196.80000,-180.34980
0.28129,0.67333,0.00674,-3.86152,-2.44418,0.87518,-3.41866,4.58271,-8.84285,24.14238,34.22868,8.11751,0.68583,-0.25477,0.16081,0.66247,-25.80986,-174.95500,126.07650
0.24872,0.66140,0.02477,-3.53953,-2.08529,0.96036,-3.82751,2.43901,-7.26086,27.97246,25.39946,5.53902,0.65026,-0.26904,0.18520,0.68591,-96.49283,-144.97030,172.89990
0.22586,0.65020,0.04187,-3.13641,-1.80015,1.01368,-4.50530,0.65050,-4.65661,25.25626,17.39986,1.13282,0.61789,-0.25399,0.24113,0.70396,-79.73823,-73.98190,203.58370
0.20645,0.64102,0.05453,-2.78050,-1.54044,0.97999,-4.13509,1.09317,-2.54908,14.42389,19.29420,-5.52766,0.61789,-0.21380,0.25414,0.71268,15.72235,38.94360,148.27670
0.17889,0.63341,0.06340,-2.62394,-1.31151,0.89565,-3.07262,2.31545,-2.19206,7.85290,21.96790,-9.09246,0.63051,-0.19038,0.21763,0.72031,94.86570,92.52755,33.41049
0.14783,0.63451,0.06777,-2.55534,-0.99951,0.76327,-1.66342,3.31876,-2.92699,2.70088,23.23447,-9.63879,0.64723,-0.19021,0.15443,0.72185,112.71810,67.46912,-70.74249
0.11482,0.64393,0.07067,-2.53757,-0.61701,0.63672,-1.22041,2.71149,-4.05234,3.44582,21.64732,-6.37815,0.63539,-0.22354,0.11197,0.73060,23.59641,-34.76431,-86.65486
0.08539,0.65406,0.07405,-2.45945,-0.29991,0.54522,-1.82248,1.04956,-4.00530,7.93834,16.34076,-5.91541,0.60351,-0.25655,0.11863,0.74557,-63.01829,-92.23659,5.05426
0.05858,0.65978,0.07715,-2.34041,-0.13399,0.47059,-2.05304,0.07151,-3.46202,11.50622,11.60730,-5.97715,0.58171,-0.27554,0.12889,0.75437,-51.41645,-84.50727,45.60541
0.03812,0.66517,0.07814,-2.15410,-0.01224,0.38042,-1.80909,-0.49831,-2.58271,13.00022,7.49430,-6.51263,0.57400,-0.28456,0.14334,0.75433,-7.21359,-40.54584,71.78657
0.01878,0.66886,0.07920,-1.99252,0.05395,0.31316,-1.19199,-0.65365,-2.08347,12.87953,5.86793,-4.58247,0.57662,-0.29318,0.14526,0.74863,38.10739,-22.63193,56.02121
0.00518,0.67589,0.08052,-1.77036,0.15860,0.26698,-0.47183,-0.50552,-1.84884,13.58335,7.56139,-0.56065,0.58512,-0.29989,0.13678,0.74094,48.83721,-0.87121,23.49071
-0.00691,0.68484,0.08480,-1.57330,0.27259,0.28084,-0.30521,-0.23329,-1.91888,14.34126,7.93034,2.83398,0.58301,-0.30563,0.12217,0.74281,26.71691,19.51929,-6.52349
-0.01607,0.69556,0.09178,-1.37238,0.38937,0.33523,-0.74192,-0.03033,-2.08621,14.47306,7.61195,5.37811,0.56685,-0.31079,0.11003,0.75497,-15.99070,13.26968,-6.96541
-0.02184,0.70673,0.10015,-1.15602,0.48289,0.39887,-1.35066,0.22830,-2.38538,16.31227,4.72957,4.15530,0.54221,-0.31535,0.09439,0.77308,-46.81792,21.62780,-28.81845
-0.02417,0.71504,0.10900,-0.93316,0.50765,0.45666,-1.64979,0.60601,-2.23014,15.92213,-0.71738,4.00671,0.52549,-0.30966,0.08306,0.78808,-22.51554,28.24440,2.22570
-0.02338,0.71977,0.11772,-0.70943,0.46902,0.49757,-1.64920,1.07394,-1.88853,16.48970,-4.16571,1.65561,0.51667,-0.29669,0.07188,0.79991,-1.72499,39.79601,19.26937
-0.01793,0.72094,0.12521,-0.45424,0.37629,0.51168,-1.48785,1.42551,-1.35206,15.92318,-7.26470,0.21933,0.51388,-0.28019,0.06588,0.80813,14.04550,25.54021,26.63346
-0.01338,0.72073,0.13190,-0.27325,0.28342,0.50851,-1.32497,1.59806,-0.78422,14.96194,-8.39796,-0.71374,0.51300,-0.26349,0.06510,0.81435,17.68013,19.48228,39.66900
-0.00667,0.71861,0.13792,-0.10403,0.18478,0.49449,-1.14508,1.70085,-0.16770,13.76135,-8.14802,-1.57495,0.51508,-0.24427,0.06916,0.81869,20.83150,14.31656,48.47971
0.00447,0.71402,0.14246,0.09913,0.06724,0.46102,-0.89448,1.80097,0.50323,11.98500,-6.49278,-2.48838,0.52131,-0.22146,0.07690,0.82054,21.13217,9.76506,42.18647
0.01555,0.71028,0.14607,0.25875,-0.01135,0.41939,-0.69358,1.87242,0.88526,11.09536,-4.76844,-3.34795,0.52598,-0.20124,0.08125,0.82234,17.82430,7.30959,28.17794
0.02822,0.70680,0.14844,0.40713,-0.06631,0.36482,-0.47785,1.94049,1.13573,10.05917,-3.00138,-4.44237,0.53153,-0.18154,0.08396,0.82308,15.81375,6.03635,19.47668
0.04295,0.70350,0.14863,0.55912,-0.10706,0.28746,-0.10679,2.06381,1.12376,9.07625,-1.89357,-5.20657,0.54055,-0.16390,0.07915,0.82139,22.14209,8.81647,-0.62151
0.05700,0.70080,0.14860,0.66445,-0.12796,0.22319,0.16548,2.17685,1.04486,8.66954,-1.66801,-5.38714,0.54867,-0.14693,0.07234,0.81984,22.07162,10.89998,-10.62406
0.07411,0.69785,0.14634,0.79547,-0.14776,0.13661,0.41694,2.30952,1.00901,8.08798,-0.96512,-5.22341,0.55791,-0.12845,0.06516,0.81731,15.92949,9.44939,-4.68353
0.09091,0.69536,0.14431,0.89172,-0.15516,0.07394,0.58606,2.49238,0.95489,7.99530,-0.28939,-5.26245,0.56622,-0.10823,0.05627,0.81518,12.07809,12.85387,-4.03561
0.10918,0.69311,0.14123,0.98668,-0.15682,0.01028,0.74770,2.72273,0.86252,7.91819,-0.05871,-5.20684,0.57498,-0.08649,0.04418,0.81238,12.23658,19.32290,-9.79522
0.13055,0.69113,0.13603,1.10974,-0.15378,-0.07345,0.84477,2.96295,0.84616,7.84528,0.04215,-5.24612,0.58297,-0.06213,0.03244,0.80947,5.96610,16.57537,-4.05762
0.15221,0.68926,0.13047,1.21277,-0.14933,-0.14500,0.83990,3.09297,1.02320,7.43450,0.13741,-4.99326,0.58917,-0.03575,0.02690,0.80677,2.71337,11.00606,9.28168
0.17489,0.68761,0.12418,1.30894,-0.14244,-0.21257,0.78222,3.16742,1.32070,6.71425,0.63518,-4.80649,0.59394,-0.00708,0.02608,0.80406,-0.36604,4.17799,21.00167
0.19835,0.68640,0.11704,1.39525,-0.12962,-0.27879,0.77178,3.28374,1.56404,5.59217,1.38710,-4.58722,0.59892,0.02330,0.02448,0.80010,1.72298,5.77131,20.63208
0.22208,0.68600,0.10922,1.46637,-0.10677,-0.34047,0.79110,3.46499,1.65855,4.49576,2.26859,-4.18440,0.60379,0.05427,0.01874,0.79507,2.28331,12.03166,9.76357
0.24551,0.68651,0.10122,1.51506,-0.07469,-0.39076,0.77189,3.65687,1.62323,3.52418,3.33996,-4.00230,0.60713,0.08464,0.00925,0.79003,-0.83270,14.52298,1.91093
0.26950,0.68936,0.09186,1.56224,-0.01320,-0.45137,0.63803,3.89918,1.47612,2.48155,4.39217,-3.50991,0.60691,0.11507,-0.00510,0.78638,-10.08562,16.26055,-6.70898
0.29294,0.69347,0.08246,1.59044,0.05473,-0.49943,0.40641,4.01564,1.45335,1.90508,5.00285,-3.47790,0.60296,0.14528,-0.01595,0.78427,-17.13993,8.75945,-0.12677
0.31628,0.69887,0.07243,1.61062,0.12804,-0.54724,0.18356,4.05831,1.54928,1.23639,5.33041,-3.50551,0.59716,0.17622,-0.02325,0.78218,-15.21050,2.10603,9.28793
0.33936,0.70646,0.06136,1.62176,0.22139,-0.60175,-0.02573,4.07546,1.72607,0.22339,6.47616,-3.24490,0.58963,0.20836,-0.02795,0.77983,-9.16093,-0.16335,13.99085
0.36178,0.71548,0.05024,1.61977,0.31769,-0.64510,-0.28277,4.09989,1.82683,-0.55920,7.33637,-2.83365,0.57928,0.23982,-0.03418,0.77830,-14.13396,-0.44381,12.84539
0.38358,0.72630,0.03871,1.60806,0.42186,-0.68589,-0.57452,4.13596,1.93478,-1.11981,7.60623,-2.95599,0.56574,0.27182,-0.04059,0.77744,-18.56121,0.68584,11.55770
0.40486,0.73791,0.02676,1.58987,0.51339,-0.72373,-0.79924,4.19317,2.02981,-2.07595,7.80621,-3.29780,0.55122,0.30441,-0.04732,0.77540,-16.22012,1.46792,14.45716
0.42427,0.75250,0.01307,1.54566,0.63074,-0.78044,-1.08953,4.36720,1.96716,-3.70879,7.15048,-3.55516,0.53367,0.33715,-0.06035,0.77323,-19.13212,8.06964,3.48407
0.44223,0.76707,-0.00082,1.48741,0.72377,-0.82901,-1.30161,4.47535,1.86997,-4.67589,6.35865,-3.57521,0.51627,0.36785,-0.07427,0.76983,-19.89846,7.55393,-5.17023
0.45906,0.78209,-0.01496,1.42444,0.79969,-0.86854,-1.43784,4.45593,1.88677,-5.70733,6.14219,-3.29502,0.49839,0.39727,-0.08405,0.76597,-12.84502,0.10044,1.81677
0.47258,0.79948,-0.02996,1.32275,0.89542,-0.91189,-1.55725,4.28807,2.02202,-6.84311,5.63505,-2.35783,0.47887,0.42468,-0.08855,0.76321,-5.10965,-8.07821,9.56055
0.48485,0.81667,-0.04438,1.22216,0.97053,-0.93868,-1.60597,4.06394,2.21178,-7.59092,5.02589,-1.67587,0.45926,0.45083,-0.08910,0.76019,1.69703,-14.79944,15.13100
0.49614,0.83398,-0.05872,1.12944,1.02598,-0.95644,-1.63993,3.89725,2.30129,-8.13030,4.40200,-1.09328,0.43979,0.47570,-0.09092,0.75633,3.83986,-13.81630,13.02661
0.50470,0.85193,-0.07314,1.01617,1.07794,-0.97070,-1.75813,3.77634,2.24164,-8.50381,3.35797,-0.60768,0.41912,0.49803,-0.09700,0.75293,-5.33956,-10.82071,2.45309
0.51140,0.86956,-0.08728,0.89850,1.11522,-0.97850,-1.97023,3.70240,2.05010,-8.63678,2.27447,-0.15698,0.39700,0.51784,-0.10850,0.74998,-14.68921,-8.97399,-7.57134
0.51641,0.88706,-0.10115,0.78001,1.13889,-0.97883,-2.22300,3.61766,1.80381,-8.47811,1.19734,0.26383,0.37388,0.53488,-0.12326,0.74761,-21.05051,-9.82536,-11.65471
0.51895,0.90439,-0.11437,0.64726,1.15410,-0.96782,-2.42774,3.44864,1.62508,-8.18688,0.51867,1.05673,0.35061,0.54937,-0.13652,0.74608,-15.57918,-11.98788,-8.22499
0.52014,0.92114,-0.12646,0.51818,1.16234,-0.94280,-2.45143,3.15661,1.65479,-7.87456,0.18950,1.73200,0.32852,0.56266,-0.14197,0.74521,-2.39221,-17.33797,2.35181
0.52089,0.93760,-0.13784,0.40967,1.16648,-0.91265,-2.27469,2.83756,1.84762,-7.56780,-0.03366,2.15850,0.30852,0.57630,-0.13964,0.74377,13.51678,-19.13699,11.79760
0.52114,0.95380,-0.14886,0.31973,1.16513,-0.88406,-2.02722,2.58333,2.04464,-7.45759,-0.40833,2.54373,0.29019,0.59030,-0.13406,0.74119,25.02832,-17.28825,16.08396
0.51945,0.96934,-0.15893,0.22004,1.15294,-0.84675,-1.78941,2.32581,2.19689,-7.01351,-1.26956,2.97678,0.27302,0.60271,-0.12677,0.73901,23.11879,-14.89783,11.97614
0.51605,0.98376,-0.16799,0.11436,1.12309,-0.79913,-1.60492,2.08096,2.20967,-6.52165,-2.20009,3.28558,0.25757,0.61281,-0.12148,0.73713,14.36856,-13.00515,1.98610
0.51306,0.99774,-0.17685,0.03979,1.09367,-0.75976,-1.55538,1.89140,2.13075,-6.21664,-2.60002,3.69463,0.24145,0.62143,-0.11978,0.73565,10.73962,-13.93806,-2.78007
0.50872,1.01063,-0.18463,-0.03794,1.05308,-0.71197,-1.51904,1.65798,1.98719,-5.04693,-3.15170,3.29697,0.22705,0.62708,-0.11933,0.73552,1.31069,-19.18096,-9.17455
0.50352,1.02272,-0.19183,-0.11158,1.00685,-0.66346,-1.35563,1.48225,1.89188,-3.95732,-2.76615,2.74791,0.21537,0.63342,-0.11621,0.73409,10.04533,-12.03779,-7.31487
0.49865,1.03499,-0.19924,-0.16471,0.97512,-0.63020,-1.16017,1.43695,1.90786,-3.44092,-1.88232,2.46447,0.20317,0.64254,-0.11054,0.73051,14.91115,-4.05509,-1.15415
0.49279,1.04790,-0.20647,-0.21412,0.94576,-0.60027,-1.12872,1.37910,1.88023,-3.29541,-2.28123,2.17285,0.18908,0.65030,-0.10754,0.72787,6.93183,-2.15690,-0.13044
0.48630,1.06047,-0.21382,-0.25736,0.91151,-0.57762,-1.14684,1.34286,1.83291,-2.60079,-2.81846,1.41769,0.17440,0.65763,-0.10606,0.72516,-2.27695,-4.83771,-3.84055
0.47969,1.07194,-0.22113,-0.29505,0.87236,-0.56084,-1.10860,1.37721,1.78428,-2.40326,-3.11603,1.22638,0.16085,0.66628,-0.10423,0.72065,1.84376,1.83369,-3.19345
0.47332,1.08192,-0.22798,-0.32634,0.82821,-0.54256,-1.11593,1.40347,1.70511,-1.99057,-3.21214,1.62507,0.14728,0.67442,-0.10393,0.71601,0.49292,2.81878,-4.84260
0.46683,1.09127,-0.23425,-0.35091,0.78300,-0.51889,-1.17859,1.35649,1.59877,-1.57054,-3.32871,1.89705,0.13355,0.68054,-0.10534,0.71269,-4.17462,-2.77915,-7.12830
0.46022,1.09943,-0.23983,-0.37470,0.73076,-0.48936,-1.24552,1.27230,1.46056,-1.43476,-3.21941,1.88606,0.12064,0.68518,-0.10810,0.71013,-5.06031,-6.23194,-8.36698
0.45325,1.10777,-0.24519,-0.39591,0.68881,-0.46331,-1.32606,1.16774,1.37523,-1.33776,-2.95051,1.93943,0.10688,0.68890,-0.11072,0.70833,-4.65722,-7.48683,-5.74656
0.44620,1.11563,-0.25022,-0.41323,0.64939,-0.43818,-1.39626,1.06519,1.32241,-0.87246,-2.88321,1.70898,0.09274,0.69201,-0.11319,0.70691,-5.64005,-8.62834,-3.24646
0.43938,1.12281,-0.25503,-0.42495,0.61034,-0.41558,-1.43250,1.00316,1.27178,-0.59688,-2.91306,1.57747,0.07911,0.69535,-0.11561,0.70489,-2.74414,-5.36271,-2.79680
0.43232,1.12970,-0.25946,-0.43283,0.56878,-0.39317,-1.51082,0.93828,1.19522,-0.36674,-3.14594,1.97062,0.06522,0.69791,-0.11972,0.70309,-3.84309,-4.31174,-4.45691
0.42549,1.13579,-0.26307,-0.43465,0.52427,-0.36166,-1.65344,0.78072,1.07958,0.27712,-3.38160,2.15583,0.05106,0.69764,-0.12640,0.70336,-11.90432,-11.24802,-6.32516
0.41942,1.14092,-0.26660,-0.42935,0.48120,-0.33637,-1.59975,0.71072,1.00908,0.66636,-3.22693,1.43941,0.03977,0.69888,-0.12970,0.70226,-0.18119,-9.18679,-5.54795
0.41353,1.14539,-0.27008,-0.42415,0.43959,-0.31575,-1.44005,0.72607,0.95618,0.42920,-3.00444,1.33993,0.03073,0.70203,-0.13066,0.69939,11.01823,1.19233,-3.63092
0.40771,1.14934,-0.27348,-0.41859,0.39912,-0.29861,-1.27370,0.76163,0.92256,0.45916,-2.89610,1.18875,0.02237,0.70581,-0.13058,0.69590,12.12821,3.20453,-3.37143
0.40208,1.15292,-0.27681,-0.41341,0.36406,-0.28483,-1.15637,0.77914,0.88010,0.42170,-2.96782,1.20341,0.01425,0.70928,-0.13096,0.69251,10.44476,3.03271,-3.37470
0.39653,1.15562,-0.27977,-0.40649,0.32211,-0.26854,-1.03572,0.80350,0.81082,0.65902,-3.02331,1.19819,0.00757,0.71300,-0.13143,0.68870,8.53906,1.25023,-4.83958
0.39124,1.15783,-0.28246,-0.39688,0.28156,-0.25159,-0.94486,0.82604,0.72401,0.75784,-2.77172,1.34300,0.00158,0.71673,-0.13263,0.68462,7.71023,2.08676,-6.86204
0.38617,1.15960,-0.28481,-0.38643,0.24317,-0.23275,-0.91991,0.80349,0.61761,0.71289,-2.66336,1.47364,-0.00437,0.71938,-0.13558,0.68124,2.10891,-0.90061,-7.40555
0.38105,1.16111,-0.28681,-0.37717,0.20746,-0.21287,-0.92772,0.76088,0.52620,0.74165,-2.45704,1.45650,-0.01060,0.72135,-0.13930,0.67834,-0.25852,-3.12756,-6.75617
0.37614,1.16212,-0.28842,-0.36613,0.17070,-0.19072,-0.97676,0.69357,0.42500,0.71388,-2.18999,1.40938,-0.01690,0.72240,-0.14450,0.67600,-2.28188,-4.10625,-6.30959
