posX, posY, posZ, velX, velY, velZ, angVelX, angVelY, angVelZ, accX, accY, accZ, rotX, rotY, rotZ, rotW, angAccX, angAccY, angAccZ
0.34201,1.02510,-0.28482,-0.04001,0.42653,-0.72360,0.79562,1.16884,0.98654,-1.32660,1.74885,-2.71975,0.29122,0.72036,-0.00740,0.62946,4.09071,1.13570,5.10926
0.34006,1.03268,-0.29770,-0.06124,0.45150,-0.76607,0.93513,1.20017,0.99709,-1.37116,1.37869,-2.81233,0.29228,0.72826,0.00163,0.61985,7.07801,1.79625,0.77069
0.33808,1.04017,-0.31049,-0.07838,0.46984,-0.79821,1.11646,1.24034,0.99304,-1.52178,1.60873,-2.78386,0.29511,0.73617,0.01193,0.60895,13.48895,4.17144,-1.57327
0.33549,1.04839,-0.32416,-0.10086,0.49519,-0.83638,1.33575,1.29259,0.98601,-1.62610,2.08018,-2.76919,0.29957,0.74421,0.02382,0.59652,15.20017,4.89807,-2.37961
0.33240,1.05736,-0.33840,-0.12578,0.52737,-0.87541,1.58095,1.37568,1.00284,-1.92553,2.51980,-2.88214,0.30477,0.75291,0.03751,0.58209,16.11629,5.94665,0.20995
0.32864,1.06727,-0.35313,-0.15568,0.56694,-0.91343,1.81187,1.47110,1.02854,-2.37404,3.21464,-2.59126,0.31027,0.76187,0.05211,0.56619,17.02872,8.37269,0.35507
0.32389,1.07821,-0.36821,-0.19411,0.61381,-0.94876,1.94381,1.56482,1.06393,-3.11298,3.61996,-2.26821,0.31422,0.77098,0.06566,0.55005,12.54121,7.15540,2.48496
0.31812,1.08990,-0.38349,-0.23972,0.66395,-0.98017,1.92420,1.64745,1.08014,-3.44306,3.77158,-1.88736,0.31588,0.78001,0.07580,0.53484,1.30534,5.72023,2.29838
0.31193,1.10194,-0.39868,-0.28157,0.70777,-1.00315,1.78895,1.69370,1.07063,-3.68100,3.71197,-1.65080,0.31567,0.78851,0.08255,0.52133,-8.21779,4.38688,1.26186
0.30398,1.11544,-0.41429,-0.34107,0.76467,-1.02798,1.56688,1.74019,1.01685,-3.78131,3.52249,-1.37900,0.31440,0.79682,0.08523,0.50889,-15.40784,1.80824,-0.80063
0.29488,1.12990,-0.42949,-0.40796,0.82869,-1.04149,1.54000,1.76886,0.97189,-3.76863,3.70247,-0.53072,0.31589,0.80434,0.09177,0.49480,-3.88022,1.69116,-2.37705
0.28579,1.14468,-0.44390,-0.46228,0.88394,-1.04026,1.72480,1.77455,0.97810,-3.96088,4.27377,0.26375,0.31975,0.81100,0.10432,0.47870,9.97617,1.29848,-1.76073
0.27620,1.16019,-0.45783,-0.51156,0.93700,-1.03220,1.94261,1.76846,1.04065,-4.14944,4.62944,0.84823,0.32321,0.81735,0.11990,0.46162,17.66341,0.65507,0.94501
0.26481,1.17741,-0.47104,-0.57852,1.00813,-1.01498,2.19574,1.74945,1.11648,-4.21850,4.37800,1.29937,0.32698,0.82291,0.13817,0.44363,16.73421,-0.39002,3.62212
0.25364,1.19430,-0.48407,-0.62744,1.05685,-0.99824,2.37640,1.74513,1.14498,-4.04269,3.85380,1.44479,0.33098,0.82787,0.15528,0.42541,15.15015,-0.24703,1.35137
0.24164,1.21196,-0.49630,-0.67825,1.10684,-0.97357,2.61686,1.76633,1.11261,-3.45837,3.39995,2.09337,0.33774,0.83154,0.17379,0.40530,16.55360,3.11506,-2.99569
0.22965,1.22954,-0.50805,-0.71714,1.14403,-0.94606,2.77269,1.74745,1.04581,-3.24040,2.94265,2.69156,0.34480,0.83384,0.19126,0.38631,15.70071,2.40198,-5.92450
0.21701,1.24765,-0.51880,-0.75744,1.18187,-0.90991,2.83294,1.70477,0.94469,-2.62531,2.73483,2.74643,0.35193,0.83508,0.20653,0.36896,4.78876,-1.26317,-7.92494
0.20382,1.26664,-0.52860,-0.79823,1.22496,-0.86764,2.80650,1.67003,0.84918,-2.62375,2.67076,2.69911,0.35825,0.83619,0.21956,0.35247,0.14732,-1.54375,-6.55054
0.19070,1.28555,-0.53867,-0.82854,1.25637,-0.83684,2.71270,1.67226,0.79515,-2.39772,2.79847,2.65658,0.36297,0.83810,0.23049,0.33574,-7.86741,-0.25155,-4.48293
0.17667,1.30572,-0.54726,-0.86677,1.30086,-0.79046,2.67848,1.71521,0.76187,-2.46823,2.87449,3.05318,0.36798,0.83989,0.24191,0.31728,-4.71836,2.08040,-1.83370
0.16235,1.32604,-0.55485,-0.90133,1.33883,-0.73907,2.78817,1.79180,0.74781,-2.44238,2.75327,4.01772,0.37429,0.84065,0.25655,0.29563,5.49995,6.28958,-0.74847
0.14752,1.34692,-0.56105,-0.93574,1.37578,-0.67659,3.01903,1.87345,0.75336,-2.50107,2.65113,4.70953,0.38162,0.83980,0.27494,0.27113,15.30320,6.45020,-0.99287
0.13251,1.36785,-0.56658,-0.96588,1.40432,-0.61861,3.14500,1.93333,0.77912,-2.42022,2.13161,5.27964,0.38737,0.83887,0.29191,0.24705,14.81429,6.97073,1.26636
0.11694,1.38890,-0.57033,-0.99739,1.42929,-0.54652,3.09681,1.94039,0.81286,-2.09254,1.41083,5.63681,0.39068,0.83858,0.30534,0.22566,1.63152,1.93820,2.89613
0.10087,1.40974,-0.57232,-1.02986,1.44573,-0.46156,2.81032,1.85252,0.85941,-1.91848,0.62500,5.48125,0.39024,0.83996,0.31322,0.20993,-16.34201,-6.92629,4.24074
0.08518,1.43011,-0.57440,-1.05022,1.45038,-0.39638,2.61895,1.79812,0.87420,-1.66081,0.25503,5.31226,0.39074,0.84058,0.32137,0.19355,-18.74890,-7.39343,3.13739
0.06897,1.44975,-0.57387,-1.07390,1.44620,-0.30771,2.62316,1.83962,0.85270,-1.36304,-0.50504,5.32958,0.39397,0.83937,0.33218,0.17295,-3.21913,1.40947,0.27999
0.05329,1.46886,-0.57358,-1.08547,1.43472,-0.24048,2.75796,1.92559,0.78995,-0.79596,-1.14735,5.48225,0.39976,0.83583,0.34536,0.14937,7.43931,7.31117,-3.47895
0.03772,1.48738,-0.57163,-1.09174,1.41432,-0.16306,2.94092,2.08240,0.69334,-0.19848,-1.76199,5.60728,0.40801,0.83049,0.35894,0.12239,12.06767,12.95469,-6.40403
0.02255,1.50478,-0.56870,-1.09195,1.38409,-0.08705,2.97379,2.16641,0.59233,0.32837,-2.64259,5.68063,0.41554,0.82526,0.36958,0.09834,6.43412,10.26016,-6.66289
0.00774,1.52112,-0.56501,-1.08590,1.34428,-0.01499,2.73029,2.10680,0.50825,0.70589,-3.31822,5.31759,0.42028,0.82248,0.37446,0.08163,-12.63074,-0.36767,-4.58049
-0.00661,1.53588,-0.56021,-1.07466,1.28953,0.05989,2.28304,1.92762,0.42764,0.81626,-3.55142,4.36025,0.42277,0.82222,0.37413,0.07245,-28.48682,-11.52106,-2.72082
-0.02079,1.55008,-0.55559,-1.06326,1.23765,0.11796,1.98138,1.82699,0.36903,0.72521,-3.73631,3.80807,0.42577,0.82134,0.37465,0.06132,-25.31069,-9.18302,-2.22196
-0.03494,1.56387,-0.55100,-1.05313,1.18913,0.16267,1.84641,1.81604,0.27861,0.73012,-3.93743,3.37888,0.43111,0.81852,0.37673,0.04732,-16.25306,-3.57584,-3.92457
-0.04864,1.57642,-0.54534,-1.03896,1.13284,0.21278,1.97251,1.97580,0.13351,0.93031,-3.70541,3.33181,0.44108,0.81155,0.38228,0.02618,1.95305,10.12299,-9.69100
-0.06205,1.58810,-0.53935,-1.02365,1.07597,0.25746,2.02671,2.06813,0.02922,1.20411,-4.20426,3.22811,0.45003,0.80469,0.38718,0.00635,10.69297,10.98201,-7.84542
-0.07558,1.59971,-0.53331,-1.01239,1.02897,0.29307,2.06196,2.15354,-0.03198,0.82669,-3.58603,2.98625,0.45825,0.79786,0.39145,-0.01392,-2.17361,7.02262,-5.15137
-0.08909,1.60994,-0.52546,-1.00442,0.97215,0.34701,2.05798,2.16354,-0.01542,0.59777,-3.54135,3.80425,0.46376,0.79199,0.39573,-0.03296,1.73798,3.22098,-0.30976
-0.10245,1.62039,-0.51756,-0.99657,0.93077,0.39008,1.92593,2.04080,0.04528,1.09060,-3.55782,3.65200,0.46600,0.78857,0.39852,-0.04683,-5.08594,-7.03419,4.66005
-0.11463,1.62897,-0.50807,-0.97315,0.87028,0.44774,1.59534,1.79512,0.14484,1.36675,-3.27955,2.88350,0.46495,0.78924,0.39753,-0.05380,-19.24677,-15.25501,6.67963
-0.12667,1.63793,-0.49937,-0.95163,0.82489,0.48514,1.44500,1.71725,0.18077,1.42584,-2.93695,2.29002,0.46658,0.78738,0.39760,-0.06518,-14.03786,-9.57604,4.31938
-0.13827,1.64649,-0.49047,-0.92758,0.78259,0.51741,1.50099,1.77797,0.16244,1.59181,-2.75126,2.10230,0.47076,0.78195,0.40028,-0.08197,1.00194,2.64869,-0.26561
-0.14956,1.65459,-0.48150,-0.90387,0.74215,0.54400,1.62423,1.90585,0.12312,1.70203,-2.88469,1.66961,0.47630,0.77447,0.40370,-0.10178,9.14560,8.33131,-2.76331
-0.16030,1.66214,-0.47294,-0.87715,0.70283,0.56269,1.69357,2.05721,0.07445,2.08375,-2.92696,1.26912,0.48275,0.76660,0.40539,-0.12220,5.71869,12.21260,-2.93716
-0.17051,1.66912,-0.46452,-0.84747,0.66284,0.57578,1.63490,2.13596,0.04697,2.33521,-3.06881,0.95246,0.48850,0.76029,0.40466,-0.13992,-1.09174,7.53058,-1.56813
-0.18027,1.67563,-0.45608,-0.81658,0.62322,0.58466,1.42412,2.11145,0.06892,2.36591,-2.90366,0.65905,0.49247,0.75711,0.40092,-0.15337,-12.40908,0.42982,2.28415
-0.18970,1.68183,-0.44758,-0.78761,0.58654,0.59233,1.12903,2.00893,0.16092,2.03782,-2.59944,0.64383,0.49386,0.75723,0.39495,-0.16347,-19.11297,-7.14705,7.67999
-0.19888,1.68764,-0.43884,-0.76109,0.55174,0.60227,0.89957,1.90226,0.26598,1.85478,-2.28903,0.85037,0.49405,0.75786,0.38929,-0.17327,-17.92513,-9.41376,9.57486
-0.20767,1.69309,-0.42950,-0.73370,0.51833,0.61743,0.77704,1.81143,0.36564,2.12775,-2.44324,1.31191,0.49349,0.75780,0.38508,-0.18416,-8.70864,-6.43278,8.37387
-0.21586,1.69792,-0.41967,-0.70348,0.48243,0.63697,0.67275,1.67364,0.43133,2.22783,-2.51884,1.42323,0.49242,0.75796,0.38182,-0.19295,-7.34260,-10.91096,6.56381
-0.22351,1.70232,-0.40949,-0.67091,0.44730,0.65705,0.74729,1.64262,0.42927,2.23267,-2.24918,1.38995,0.49289,0.75455,0.38143,-0.20551,0.84720,-5.64991,0.55699
-0.23058,1.70628,-0.39914,-0.63702,0.41297,0.67517,0.85100,1.62578,0.43185,2.64413,-2.75065,1.11890,0.49303,0.75028,0.38202,-0.21921,10.94559,1.73496,-2.02884
-0.23738,1.71012,-0.38906,-0.60684,0.38429,0.68528,0.82671,1.53916,0.47224,2.69894,-2.55451,0.64378,0.49179,0.74856,0.38085,-0.22968,0.84742,-5.47035,1.35994
-0.24333,1.71318,-0.37924,-0.57128,0.35058,0.68978,0.69574,1.36965,0.55530,2.58511,-2.62764,0.01455,0.48857,0.74997,0.37818,-0.23625,-6.57299,-11.78512,6.44066
-0.24847,1.71543,-0.36996,-0.52986,0.31148,0.68485,0.56270,1.24326,0.61257,2.52739,-2.36106,-0.62258,0.48590,0.75155,0.37458,-0.24243,-8.73261,-9.81547,4.39139
-0.25331,1.71758,-0.36121,-0.49201,0.27818,0.67401,0.50884,1.23117,0.60717,2.67475,-2.33356,-0.85449,0.48531,0.75078,0.37113,-0.25113,-4.50876,-2.58665,1.00444
-0.25764,1.71933,-0.35262,-0.45473,0.24588,0.66351,0.55642,1.27923,0.54264,2.48875,-2.08146,-0.71364,0.48630,0.74731,0.36938,-0.26193,-0.17229,2.25470,-3.77283
-0.26162,1.72077,-0.34410,-0.41938,0.21586,0.65339,0.67137,1.37622,0.46615,2.59590,-2.15512,-0.77689,0.48798,0.74170,0.36877,-0.27525,7.94938,7.97409,-6.09274
-0.26510,1.72194,-0.33585,-0.38420,0.18815,0.64217,0.69421,1.37355,0.43808,2.72738,-2.10347,-0.71018,0.48834,0.73809,0.36750,-0.28584,3.46342,3.39307,-3.43308
-0.26884,1.72326,-0.32739,-0.36048,0.16898,0.63556,0.67154,1.28974,0.45496,2.40256,-2.00499,-0.61174,0.48692,0.73641,0.36625,-0.29406,-0.81949,-5.49681,-0.35660
-0.27081,1.72313,-0.31954,-0.31619,0.13228,0.62133,0.57733,1.03132,0.54641,2.29354,-1.90376,-0.84923,0.48182,0.73878,0.36567,-0.29720,-3.45046,-12.99866,4.42747
-0.27343,1.72357,-0.31166,-0.28977,0.11066,0.61000,0.48264,0.84272,0.61197,2.20839,-1.88285,-1.06539,0.47736,0.74107,0.36425,-0.30044,-6.25059,-16.12444,5.76151
-0.27528,1.72335,-0.30438,-0.25786,0.08410,0.59269,0.36688,0.64196,0.66148,2.37617,-1.99982,-1.45827,0.47266,0.74438,0.36266,-0.30160,-7.04587,-15.31386,3.91829
-0.27643,1.72267,-0.29762,-0.22231,0.05639,0.57007,0.21671,0.44022,0.68121,2.74932,-2.14060,-1.74749,0.46853,0.74850,0.36043,-0.30054,-8.87273,-13.97449,1.94080
-0.27685,1.72143,-0.29135,-0.18360,0.02622,0.54533,0.00609,0.18675,0.67880,2.93596,-2.32015,-1.80403,0.46457,0.75437,0.35757,-0.29537,-13.54776,-18.46309,0.81742
-0.27675,1.71988,-0.28514,-0.14555,-0.00181,0.52529,-0.16064,0.00178,0.63370,3.26976,-2.40419,-1.52330,0.46191,0.75941,0.35479,-0.28993,-14.62708,-17.92985,-1.33362
-0.27500,1.71706,-0.27919,-0.09064,-0.04252,0.50610,-0.23928,-0.12751,0.40147,3.01031,-2.03423,-0.89766,0.46400,0.76056,0.35500,-0.28326,-7.94080,-12.48610,-12.21887
-0.27335,1.71460,-0.27284,-0.04779,-0.07020,0.49688,-0.03173,0.06099,0.08903,2.41572,-1.25587,-0.44186,0.47040,0.75345,0.35869,-0.28700,9.03629,7.54293,-21.41411
-0.27199,1.71250,-0.26614,-0.01208,-0.08776,0.49305,0.37995,0.42925,-0.21546,2.16757,-0.83242,-0.24907,0.47840,0.74007,0.36564,-0.29957,26.52492,24.68486,-21.35587
-0.27204,1.71120,-0.25920,0.00958,-0.09187,0.49032,0.62643,0.61840,-0.34366,1.99218,-0.24253,-0.42763,0.48286,0.73039,0.37093,-0.30951,20.29787,16.81384,-11.19130
-0.27180,1.71035,-0.25239,0.03022,-0.08825,0.48641,0.78744,0.71553,-0.40188,1.79523,0.41528,-0.35693,0.48580,0.72233,0.37568,-0.31796,10.46784,5.87240,-4.16718
-0.27013,1.70966,-0.24593,0.05336,-0.08084,0.48041,0.88627,0.71073,-0.40913,1.84312,0.54117,-0.46258,0.48704,0.71593,0.38067,-0.32454,9.19586,1.97676,-2.10320
-0.26791,1.70873,-0.23957,0.07535,-0.07796,0.47573,0.88199,0.60051,-0.58765,1.03681,0.00121,-0.24881,0.49201,0.70885,0.38710,-0.32498,0.80678,-7.74107,-13.75142
-0.26564,1.70840,-0.23335,0.09379,-0.06646,0.46997,0.95181,0.62674,-0.40918,1.59436,1.69254,-0.51462,0.48989,0.70486,0.39003,-0.33324,-0.41701,1.55191,9.10794
-0.26318,1.70849,-0.22715,0.11073,-0.05163,0.46470,1.06711,0.61547,-0.27944,1.26498,0.61087,-0.39836,0.48667,0.70013,0.39513,-0.34183,15.77925,-0.11666,17.54603
-0.26055,1.70828,-0.22109,0.12639,-0.04431,0.45866,1.03681,0.49283,-0.20651,1.33585,0.32477,-0.50251,0.48415,0.69777,0.39945,-0.34519,0.02471,-6.69568,4.16813
-0.25757,1.70797,-0.21522,0.14424,-0.03988,0.45135,0.95887,0.31733,-0.16355,1.26501,0.20474,-0.57190,0.48156,0.69686,0.40389,-0.34548,-5.80699,-13.31984,3.50424
-0.25398,1.70747,-0.20964,0.16749,-0.03920,0.44077,0.93755,0.26509,-0.23237,1.33117,0.13994,-0.68394,0.48206,0.69271,0.40896,-0.34716,-3.15441,-5.89573,-2.68194
-0.25034,1.70683,-0.20405,0.18668,-0.04055,0.43288,1.01845,0.35854,-0.36174,1.47562,-0.07150,-0.53713,0.48502,0.68424,0.41495,-0.35268,4.03950,5.29589,-9.60712
-0.24631,1.70592,-0.19843,0.20743,-0.04556,0.42712,1.12852,0.40538,-0.51056,1.65165,-0.59296,-0.39340,0.48816,0.67442,0.42299,-0.35769,9.24889,7.40442,-11.05047
-0.24203,1.70470,-0.19279,0.22762,-0.05414,0.42262,1.15745,0.28226,-0.61269,1.17854,-0.58294,-0.21218,0.48933,0.66756,0.43206,-0.35811,1.41720,-6.15760,-7.62644
-0.23806,1.70334,-0.18706,0.23944,-0.06324,0.42016,1.17610,0.14383,-0.65647,0.65283,-0.78147,-0.30093,0.48901,0.66188,0.44119,-0.35797,1.09930,-9.82856,-4.51871
-0.23439,1.70206,-0.18144,0.24426,-0.06901,0.41690,1.17781,0.07582,-0.68229,0.51423,-0.73585,-0.47136,0.48912,0.65600,0.44925,-0.35861,0.71826,-9.48428,-3.83438
-0.23033,1.70008,-0.17669,0.25355,-0.08342,0.40186,1.17187,-0.02473,-0.74877,0.38468,-0.60890,-0.85642,0.48963,0.64997,0.45846,-0.35725,-1.78263,-5.00417,-3.93074
-0.22644,1.69828,-0.17200,0.25898,-0.09289,0.38814,1.19792,-0.08192,-0.79263,0.30547,-0.50978,-0.84148,0.48984,0.64323,0.46767,-0.35720,1.37403,-2.90160,-3.54566
-0.22268,1.69665,-0.16720,0.26129,-0.09802,0.37920,1.20132,-0.16770,-0.79276,0.21321,-0.39010,-0.68640,0.48885,0.63773,0.47671,-0.35648,0.50562,-5.29161,-1.25830
-0.21902,1.69499,-0.16239,0.26156,-0.10241,0.37261,1.21240,-0.27216,-0.76707,-0.10077,-0.37599,-0.45794,0.48650,0.63296,0.48620,-0.35536,-0.30510,-8.85113,0.33892
-0.21565,1.69311,-0.15755,0.25740,-0.10899,0.36738,1.22527,-0.44356,-0.70253,-0.33802,-0.55380,-0.29543,0.48168,0.62979,0.49672,-0.35303,0.92648,-9.74140,2.57117
-0.21250,1.69106,-0.15267,0.25102,-0.11679,0.36387,1.19511,-0.63870,-0.63245,-0.50630,-0.65833,-0.21893,0.47594,0.62818,0.50698,-0.34905,-2.59392,-13.83680,3.64872
-0.20951,1.68871,-0.14780,0.24372,-0.12760,0.36128,1.17532,-0.80533,-0.59262,-0.58579,-0.83053,-0.13433,0.47016,0.62635,0.51759,-0.34459,-2.45239,-13.34187,3.04261
-0.20645,1.68613,-0.14291,0.23874,-0.13926,0.35901,1.20147,-0.89338,-0.59192,-0.41604,-0.96869,-0.22087,0.46512,0.62264,0.52873,-0.34123,0.25330,-8.72254,0.13184
-0.20345,1.68310,-0.13825,0.23410,-0.15506,0.35408,1.22178,-0.98131,-0.63051,-0.20445,-0.97407,-0.36467,0.46056,0.61834,0.54050,-0.33674,1.93818,-4.99403,-3.05367
-0.20034,1.68019,-0.13366,0.23196,-0.16606,0.34907,1.18575,-1.06800,-0.65301,-0.06473,-0.71156,-0.31872,0.45607,0.61521,0.55121,-0.33118,-2.41267,-6.28026,-1.96154
-0.19697,1.67718,-0.12905,0.23409,-0.17634,0.34545,1.20887,-1.07806,-0.70686,0.19842,-0.57677,-0.13375,0.45265,0.60986,0.56238,-0.32697,-0.35008,-2.84340,-3.66563
-0.19331,1.67424,-0.12434,0.24025,-0.18355,0.34415,1.29953,-1.03259,-0.78664,0.70968,-0.29836,-0.12843,0.45006,0.60183,0.57449,-0.32435,6.50545,3.78431,-4.92537
-0.18907,1.67150,-0.11971,0.25327,-0.18609,0.34151,1.34461,-0.99595,-0.87368,1.17992,-0.21741,-0.24302,0.44817,0.59375,0.58624,-0.32082,4.94406,2.87350,-5.12059
-0.18455,1.66876,-0.11508,0.26777,-0.18827,0.33983,1.36238,-0.99082,-0.95118,1.35249,-0.29212,-0.05450,0.44617,0.58601,0.59794,-0.31621,2.53280,1.82510,-6.48542
-0.17939,1.66577,-0.11022,0.28791,-0.19340,0.34134,1.32425,-1.05206,-1.04442,1.75007,-0.64426,0.23054,0.44408,0.57931,0.60985,-0.30867,-0.21717,-1.60729,-6.81893
-0.17345,1.66220,-0.10473,0.31561,-0.20616,0.35210,1.23405,-1.22627,-1.20170,1.96601,-1.00418,1.11978,0.44170,0.57373,0.62306,-0.29587,-6.29849,-8.19269,-10.20962
-0.16724,1.65826,-0.09856,0.34275,-0.22211,0.37122,1.20509,-1.40872,-1.39232,2.03982,-1.13656,1.55728,0.43898,0.56653,0.63805,-0.28147,-3.12931,-12.22930,-14.32115
-0.16051,1.65399,-0.09183,0.37163,-0.23957,0.39441,1.24139,-1.54697,-1.60870,1.97662,-1.20627,1.86569,0.43670,0.55670,0.65447,-0.26655,1.31057,-9.79645,-16.17653
-0.15329,1.64903,-0.08425,0.40168,-0.26354,0.42517,1.45300,-1.60109,-1.85572,1.60669,-1.58443,2.06390,0.43472,0.54099,0.67380,-0.25367,12.67959,-4.86055,-14.86388
-0.14665,1.64411,-0.07694,0.41692,-0.28191,0.44552,1.63209,-1.60872,-1.98922,1.37456,-1.97288,2.12970,0.43195,0.52518,0.69183,-0.24285,18.18609,-1.72378,-12.45954
-0.13958,1.63782,-0.06823,0.43518,-0.31616,0.48198,1.87892,-1.71580,-2.19665,1.15844,-2.43128,2.42370,0.42741,0.50565,0.71351,-0.22922,18.14702,-5.03675,-10.62752
-0.13278,1.63094,-0.05872,0.44580,-0.35261,0.52310,2.00091,-1.97145,-2.42977,0.55810,-2.22721,2.69447,0.42050,0.48781,0.73580,-0.20935,6.47246,-14.95195,-15.41170
-0.12630,1.62448,-0.04965,0.44984,-0.37528,0.54918,2.11598,-2.11763,-2.56830,0.19909,-2.15191,2.68647,0.41334,0.46925,0.75648,-0.19158,7.90802,-15.83467,-15.98428
-0.12000,1.61652,-0.03912,0.45044,-0.41516,0.59126,2.39354,-2.31932,-2.76070,-0.16017,-2.28393,1.93917,0.40317,0.44474,0.78092,-0.17270,15.93531,-13.34389,-10.10667
-0.11387,1.60892,-0.02951,0.44809,-0.44190,0.61110,2.53201,-2.40828,-2.87151,-0.47871,-2.31271,1.40294,0.39430,0.42182,0.80166,-0.15469,11.94565,-9.84069,-9.66594
-0.10826,1.60005,-0.01985,0.43866,-0.48195,0.62796,2.85269,-2.41043,-2.95065,-0.92421,-2.50324,0.83791,0.38481,0.39267,0.82338,-0.14062,17.60942,-4.18166,-4.46507
-0.10295,1.59103,-0.01066,0.42710,-0.51632,0.63484,3.16938,-2.38082,-2.94280,-1.17512,-3.17114,0.39420,0.37414,0.36204,0.84387,-0.12970,27.02440,-3.03376,5.47743
-0.09822,1.58118,-0.00147,0.40941,-0.55414,0.63946,3.32447,-2.43679,-2.98893,-1.52142,-3.64486,0.20858,0.36228,0.33276,0.86307,-0.11462,19.08937,-5.45110,2.49073
-0.09482,1.56971,0.00769,0.37642,-0.60792,0.64315,3.31686,-2.59313,-3.16210,-2.26425,-3.44813,0.20700,0.34958,0.30529,0.88098,-0.09200,-0.25532,-7.08430,-12.99367
-0.09194,1.55787,0.01673,0.34223,-0.65718,0.64471,3.43929,-2.71495,-3.24855,-2.79439,-3.41212,0.18763,0.33484,0.27448,0.89850,-0.07242,4.28635,-7.65563,-10.44817
-0.08999,1.54506,0.02553,0.30122,-0.70992,0.64177,3.69103,-2.82934,-3.24788,-3.23034,-3.93581,-0.53197,0.31707,0.23942,0.91595,-0.05648,15.13469,-12.40112,0.21808
-0.08950,1.53072,0.03336,0.24673,-0.77528,0.62518,3.99045,-2.95404,-3.24202,-3.70840,-4.22151,-1.54745,0.29724,0.20110,0.93247,-0.04137,15.47374,-11.79134,0.33783
-0.08968,1.51579,0.04004,0.19298,-0.83734,0.59516,4.33109,-3.05860,-3.14763,-4.16525,-4.49842,-2.65173,0.27553,0.16041,0.94734,-0.02991,18.38858,-13.11485,5.73822
-0.09049,1.50027,0.04567,0.14163,-0.89356,0.55570,4.63986,-3.15934,-3.00480,-4.58190,-4.85056,-3.94948,0.25182,0.11852,0.96026,-0.02077,21.69805,-17.98023,12.33637
-0.09377,1.48268,0.04845,0.06470,-0.96884,0.48280,4.88718,-3.29102,-2.91872,-4.96410,-4.92578,-5.34648,0.22627,0.07589,0.97105,-0.01047,13.37571,-14.82584,7.34321
-0.09780,1.46494,0.04980,-0.00854,-1.03231,0.40303,4.98737,-3.39267,-2.97099,-5.46612,-4.44127,-6.40260,0.20170,0.03492,0.97881,0.00462,7.52638,-8.59937,-3.01115
-0.10253,1.44724,0.04990,-0.07595,-1.08038,0.32222,5.02597,-3.46037,-3.06571,-5.79502,-3.76843,-7.33131,0.17734,-0.00560,0.98389,0.02178,5.69218,-4.46108,-7.60611
-0.11002,1.42879,0.04597,-0.16995,-1.12984,0.19903,5.01248,-3.49155,-3.27859,-5.98098,-2.61066,-8.45559,0.15390,-0.04584,0.98606,0.04352,2.64701,1.20505,-12.34643
-0.11721,1.41148,0.04161,-0.24040,-1.15323,0.09487,4.99481,-3.46177,-3.46933,-5.83262,-1.42957,-9.08267,0.13187,-0.08567,0.98537,0.06575,2.49727,7.10745,-15.03878
-0.12603,1.39446,0.03379,-0.31888,-1.16634,-0.03664,5.01302,-3.42806,-3.69337,-5.50318,-0.41660,-10.00825,0.10963,-0.12697,0.98171,0.09001,5.20433,6.16615,-9.74673
-0.13603,1.37868,0.02194,-0.39947,-1.15922,-0.20204,5.13726,-3.26347,-3.90057,-4.90576,1.54204,-10.40263,0.09175,-0.17133,0.97423,0.11444,12.56508,15.83014,-11.41878
-0.14471,1.36403,0.01154,-0.44444,-1.13812,-0.31109,5.26642,-3.33370,-3.80216,-4.67903,3.55496,-10.96162,0.06679,-0.21478,0.96575,0.12936,14.33577,-1.57771,3.42295
-0.15570,1.35341,-0.00571,-0.51202,-1.06292,-0.49357,5.37325,-3.66548,-3.54458,-3.91599,6.00678,-11.57548,0.03243,-0.25757,0.95592,0.13719,-1.59152,-26.33475,8.97543
-0.16656,1.34619,-0.02506,-0.56610,-0.95288,-0.67503,5.40283,-4.04689,-3.35891,-2.85777,7.79748,-11.31115,-0.00528,-0.29804,0.94345,0.14506,-6.61633,-24.74897,1.78516
-0.17638,1.33989,-0.04383,-0.59375,-0.85108,-0.81075,5.44881,-4.42309,-3.19239,-1.88449,9.47321,-11.18865,-0.04509,-0.33891,0.92751,0.15112,-5.18177,-29.69727,-0.43280
-0.18569,1.33666,-0.06465,-0.60839,-0.72923,-0.94507,5.47276,-4.97576,-2.94956,-0.92034,11.32862,-10.82323,-0.09267,-0.37873,0.90843,0.15080,-9.16687,-41.57323,-0.55047
-0.19393,1.34408,-0.09254,-0.60433,-0.47322,-1.15857,5.34137,-6.54762,-2.51349,1.33445,14.71003,-9.89197,-0.17414,-0.41487,0.88318,0.13250,-20.75292,-79.62105,-12.43368
-0.20023,1.35185,-0.11689,-0.57156,-0.25523,-1.28153,4.70620,-7.61176,-2.54418,3.89772,16.39402,-8.34355,-0.25200,-0.43301,0.85629,0.12557,-37.98918,-72.69099,-35.49124
-0.20396,1.36242,-0.14110,-0.50815,-0.04461,-1.37628,4.71534,-8.08732,-2.30707,6.67459,18.61746,-7.23379,-0.31238,-0.46361,0.82140,0.11308,-25.78016,-48.57343,-25.87621
-0.20452,1.37927,-0.16491,-0.41257,0.21179,-1.44448,4.34344,-8.09213,-2.38634,8.11148,18.78706,-3.72108,-0.36462,-0.47964,0.79032,0.11136,-21.18661,-1.29939,-21.18822
-0.20131,1.40276,-0.18651,-0.27881,0.51739,-1.46457,3.77603,-7.82706,-2.47556,8.73192,19.81665,1.08810,-0.40945,-0.48635,0.76377,0.11164,-21.16885,27.07724,-14.13746
-0.19796,1.42506,-0.20502,-0.17142,0.74144,-1.43619,3.09853,-7.88847,-2.57611,8.57981,18.58208,4.16283,-0.46187,-0.48505,0.73492,0.10629,-36.25396,16.75280,-28.52027
-0.19178,1.45236,-0.21996,-0.04607,0.99020,-1.36230,2.05232,-8.11628,-2.80138,9.11840,18.22102,6.78196,-0.52157,-0.46636,0.70793,0.09649,-51.63038,0.93754,-51.95451
-0.18373,1.48358,-0.23159,0.08099,1.24472,-1.25388,0.83472,-8.29514,-3.13702,9.06714,19.19960,8.94186,-0.58256,-0.43342,0.68234,0.08472,-57.84616,6.47020,-65.18164
-0.17392,1.51974,-0.24003,0.20784,1.52030,-1.12204,-0.54037,-8.51783,-3.70392,8.82991,21.01351,9.98543,-0.64713,-0.38310,0.65519,0.07206,-59.41379,5.40251,-85.03070
-0.16226,1.56165,-0.24603,0.33591,1.82438,-0.98197,-1.92792,-8.90132,-4.62358,9.16256,23.09765,10.34783,-0.71713,-0.31464,0.61887,0.06104,-49.97532,-10.92779,-104.52430
-0.14802,1.60982,-0.24982,0.47555,2.15594,-0.83727,-3.28780,-9.12683,-5.84989,11.48788,24.92372,10.63935,-0.78331,-0.22673,0.57612,0.05571,-36.03536,-21.36543,-127.03870
-0.13014,1.66427,-0.25152,0.64011,2.51218,-0.69228,-4.38815,-8.78991,-7.18898,13.82572,26.17056,10.45095,-0.83228,-0.12777,0.53589,0.06166,-8.17084,-0.59634,-127.14390
-0.10933,1.72156,-0.25283,0.81167,2.83393,-0.57329,-5.00225,-8.04786,-8.44104,15.75158,26.57187,9.12673,-0.86299,-0.02834,0.49814,0.07936,32.29006,16.97359,-122.29690
-0.07950,1.78831,-0.25184,1.07495,3.21907,-0.44561,-5.33964,-7.20240,-9.97021,24.18919,30.12121,10.70890,-0.87967,0.08275,0.45497,0.11106,61.57990,-18.23985,-107.70310
-0.02910,1.87014,-0.24457,1.59434,3.75696,-0.24969,-5.49384,-5.30300,-11.99651,34.86856,28.17756,11.42028,-0.86035,0.21516,0.43222,0.16336,91.36410,24.79302,-135.67930
0.02442,1.94499,-0.23851,2.05839,4.09069,-0.10899,-4.62122,-3.87190,-13.11701,44.19612,26.07614,13.67678,-0.83029,0.31280,0.40409,0.22247,125.44090,-16.11802,-89.27296
0.10134,2.02605,-0.22563,2.76086,4.43758,0.10095,-2.84315,-2.13358,-14.34248,58.22165,22.52262,17.52099,-0.77110,0.40004,0.38555,0.31100,168.89820,-52.65979,-67.49242
0.21157,2.10655,-0.20265,3.82225,4.70907,0.41986,-0.40712,-0.66695,-15.92581,75.07480,10.41284,22.15214,-0.67921,0.48057,0.35865,0.42320,168.43630,-97.44545,-92.43878
0.34054,2.17345,-0.17348,4.95757,4.72716,0.76922,1.19799,-0.22038,-17.63500,88.25409,-7.61275,26.39299,-0.57262,0.56209,0.29785,0.51715,90.05176,-104.10190,-108.36620
0.48473,2.22368,-0.13880,6.06078,4.49185,1.12167,2.23061,-0.34593,-19.82893,98.17451,-33.45987,32.35777,-0.43665,0.64299,0.20037,0.59645,32.32259,-75.43166,-173.19760
0.66486,2.23481,-0.08843,7.44597,3.73829,1.62607,3.64246,-0.51743,-21.95587,98.06400,-77.73949,39.97575,-0.26360,0.69347,0.09181,0.66422,17.79709,-66.71776,-184.41810
0.86572,2.17261,-0.02000,8.86831,2.04643,2.29994,5.45125,-1.36670,-23.48670,74.65665,-135.88630,43.62914,-0.07819,0.69094,-0.02081,0.71837,-25.81742,-99.56287,-125.78310
1.01061,2.09487,0.03730,9.44328,0.51707,2.74280,6.22274,-1.16801,-24.00647,42.09544,-170.11680,43.04020,0.09284,0.68131,-0.10908,0.71784,-35.11926,-49.99427,-116.45330
1.09908,1.92025,0.10136,9.55224,-2.05880,3.29318,7.85416,0.93819,-24.07595,-23.43027,-196.85010,31.13075,0.28865,0.67253,-0.14035,0.66685,87.76543,-114.28060,-36.80807
1.09380,1.68631,0.15063,8.48339,-5.19925,3.62805,12.69354,5.35990,-22.35896,-105.95430,-195.20460,5.27501,0.52068,0.65488,-0.04348,0.54602,214.26450,-295.79840,-76.02370
1.01746,1.47696,0.15499,6.54112,-7.66916,3.51061,21.37664,9.04881,-18.09489,-164.19990,-160.24020,-27.24961,0.74708,0.54079,0.18008,0.34205,275.48020,-419.37870,-402.60650
0.87859,1.30357,0.12808,3.96515,-9.54713,3.01421,35.13149,8.36673,-11.12060,-198.74750,-114.34620,-48.75481,0.85254,0.17487,0.49224,0.01691,537.42240,-49.65527,-892.90410
0.73724,1.16823,0.07989,1.57327,-10.64549,2.06375,41.56822,0.10948,-8.78391,-204.05000,-60.84171,-91.58081,0.75661,-0.26234,0.57896,-0.15340,699.01200,529.98180,-692.39250
0.55503,1.12514,-0.02255,-1.21933,-10.49282,0.05100,34.48104,-8.80375,-11.61997,-140.07280,67.60825,-120.17830,0.65661,-0.49829,0.56570,-0.02362,98.14507,811.52920,-75.16496
0.44848,1.16683,-0.10121,-2.66371,-8.87160,-1.38526,24.42857,-6.79845,-14.10066,-42.42786,119.86130,-54.61864,0.68984,-0.53042,0.47921,0.11460,-195.76680,585.12590,401.18490
0.40761,1.20929,-0.13569,-2.89558,-7.38857,-1.71080,20.41795,-6.70886,-10.68365,13.56419,97.14950,4.03335,0.66300,-0.54995,0.50114,0.08272,-315.96790,136.71510,199.63670
0.39078,1.23441,-0.13881,-2.76240,-6.41694,-1.49059,16.41688,-9.19144,-7.18297,11.09583,66.75213,29.65604,0.57462,-0.56357,0.59138,0.04964,-416.74800,-112.32810,-181.12090
0.39106,1.28743,-0.10438,-2.60565,-5.56809,-0.90310,9.19084,-7.64140,-3.87546,-2.20324,39.96366,37.88810,0.57071,-0.45908,0.67074,0.11684,-499.87430,90.59233,-14.47021
0.38233,1.32450,-0.05642,-2.71705,-5.04081,-0.28043,2.41353,-2.92592,-2.86093,-15.03136,29.90394,36.27267,0.62340,-0.33351,0.66025,0.25341,-364.90130,373.38570,48.04655
0.35765,1.33240,-0.02023,-2.95805,-4.68313,0.07565,-1.48038,0.49657,-2.58075,-24.25480,33.11956,24.34383,0.65365,-0.24184,0.62084,0.35891,-328.90920,360.74510,34.86996
0.32598,1.36921,0.01582,-3.40836,-4.09813,0.31868,-3.60991,5.05776,-4.83031,-26.99324,42.10884,8.98391,0.68809,-0.19884,0.48885,0.49802,-112.16880,296.01090,-159.87980
0.28736,1.38335,0.03509,-3.68738,-3.61961,0.38022,-3.80673,7.36977,-6.52917,-16.37736,42.45662,4.12069,0.69880,-0.19430,0.36722,0.58230,-26.03608,223.85020,-194.11320
0.25334,1.41187,0.05301,-3.86899,-3.01527,0.39796,-3.23488,7.56793,-7.75719,-4.29540,45.93328,1.52531,0.68744,-0.22021,0.27868,0.63346,-6.99392,29.46148,-124.49620
0.23085,1.45220,0.06091,-3.86314,-2.31954,0.39948,-2.88942,6.23271,-8.37399,8.26994,41.38076,-0.83040,0.65592,-0.25840,0.23339,0.66972,-42.66880,-83.25102,-32.23676
0.20379,1.46471,0.07042,-3.74938,-1.94670,0.38413,-2.90133,4.88727,-8.00997,16.68715,33.60556,-1.44970,0.62573,-0.27889,0.21230,0.69686,-43.41049,-91.44027,21.96987
0.18708,1.23979,0.07752,-3.43040,-1.47731,0.33882,-3.44660,2.89940,-6.25296,22.42795,26.09453,-4.15091,0.59176,-0.27903,0.24890,0.71415,-69.83880,-95.36578,137.92410
0.15637,0.88993,0.07022,-3.07781,-1.17596,0.25802,-3.21199,2.92470,-4.45080,23.88064,19.64536,-6.68847,0.59414,-0.24866,0.24985,0.72301,19.47405,-1.56979,136.45960
0.13264,0.73562,0.06043,-2.77471,-0.97845,0.16104,-2.19553,3.96526,-3.16497,22.97937,16.64848,-9.04410,0.62319,-0.20920,0.21718,0.72160,103.54400,59.56754,86.32815
0.11840,0.63220,0.04197,-2.41009,-0.73432,-0.02819,0.34890,6.09975,-2.68413,18.42108,12.61123,-11.13476,0.69102,-0.16852,0.12725,0.69130,169.46150,102.90000,-35.53520
0.09523,0.60275,0.03281,-2.26072,-0.60927,-0.12412,1.23732,6.14653,-2.58312,16.13760,11.27038,-9.33277,0.71467,-0.15747,0.07825,0.67700,132.98380,47.90663,-53.61800
0.07456,0.58670,0.02321,-2.11637,-0.45084,-0.21142,1.37950,4.87735,-2.25404,13.59596,12.00465,-5.43967,0.72152,-0.16671,0.07224,0.66813,40.81206,-64.31465,-9.36566
0.05981,0.58483,0.01475,-1.91731,-0.20197,-0.27024,0.52062,2.38435,-1.60490,9.36228,13.68498,-0.97996,0.70242,-0.19455,0.12024,0.67402,-63.76009,-147.75780,47.51060
0.04423,0.58888,0.01022,-1.76480,-0.03751,-0.27379,0.34138,1.79000,-1.69960,10.04818,12.20556,0.81335,0.69636,-0.20671,0.11460,0.67765,-35.11765,-68.12846,6.00147
0.03451,0.59476,0.00705,-1.56260,0.10958,-0.25624,0.75698,2.48026,-2.25648,12.68476,7.52254,2.12197,0.70402,-0.20650,0.06595,0.67629,19.49300,29.75614,-37.51021
0.02761,0.59938,0.00543,-1.39775,0.17506,-0.22989,1.19678,3.28741,-2.63431,14.52567,3.54194,2.65115,0.71395,-0.19825,0.01082,0.67146,42.95389,67.38199,-38.30506
0.02514,0.60294,0.00532,-1.15087,0.19268,-0.18159,1.19680,3.83628,-2.29618,34.85641,-8.53886,10.49071,0.71965,-0.17600,-0.02591,0.67116,23.21928,36.89275,-22.26406
0.05459,0.59306,0.01552,-0.49142,0.01147,0.00670,1.87164,6.56671,-0.99309,43.65353,-14.04787,13.77789,0.74425,-0.07469,-0.09853,0.65636,104.35940,160.16890,93.90750
0.08196,0.58401,0.02605,0.00308,-0.11939,0.15985,1.29752,7.21965,0.09399,25.17706,-3.93912,3.59401,0.73927,-0.00448,-0.12777,0.66117,16.73086,78.58037,72.01498
0.09743,0.58314,0.03031,0.22689,-0.10562,0.19063,0.37555,6.23677,1.00776,14.90524,4.39532,-0.13760,0.72642,0.03067,-0.11547,0.67678,-31.83388,-76.08775,108.47840
0.11093,0.58543,0.03158,0.37368,-0.05044,0.17157,-0.16466,5.37054,1.12956,6.50520,5.24455,-2.38506,0.71463,0.04825,-0.11532,0.68824,-29.89711,-72.33450,46.60196
0.12039,0.58771,0.03114,0.43485,-0.00861,0.13202,-0.41144,4.16173,0.76399,4.70543,0.66902,-3.53529,0.70824,0.04159,-0.11531,0.69524,-22.34118,-66.49827,-30.16594
0.12985,0.58835,0.03096,0.48405,0.00126,0.10402,-0.69373,2.17387,1.32584,3.44042,0.03105,-1.63333,0.70464,0.03155,-0.06934,0.70546,-4.08282,-139.92110,40.00055
0.13924,0.58848,0.03114,0.52196,0.00255,0.08658,-0.72937,0.94671,1.62838,1.88250,1.10567,0.01730,0.70279,0.02622,-0.03477,0.71006,9.36636,-129.15130,51.22843
0.14992,0.58894,0.03104,0.57094,0.00694,0.06863,-0.55495,0.48884,1.22664,3.10333,0.70082,-0.48965,0.70422,0.01748,-0.02936,0.70916,13.87690,-35.66019,-21.58059
0.16215,0.59004,0.03090,0.63366,0.02007,0.05315,-0.47801,0.20316,1.06264,4.73646,0.36613,-1.12050,0.70369,0.01491,-0.02317,0.70998,6.86402,-14.04712,-18.58672
0.17502,0.59170,0.03088,0.69390,0.03990,0.04171,-0.58044,-0.35452,1.38419,4.45266,1.43324,-1.08211,0.69917,0.01552,0.00189,0.71479,-3.41663,-33.44896,20.54853
0.18848,0.59417,0.03071,0.75155,0.06689,0.02918,-0.72216,-0.95335,1.84178,3.91796,2.23367,-0.89331,0.69243,0.01707,0.03568,0.72040,-5.99479,-44.70815,34.40020
0.20202,0.59710,0.03024,0.79677,0.09496,0.01532,-0.80330,-1.29766,2.13085,3.28209,2.73198,-1.01020,0.68565,0.01994,0.06492,0.72475,-5.76755,-35.62324,31.13714
0.21657,0.60104,0.02906,0.84777,0.13171,-0.00574,-0.82802,-1.31839,2.21348,2.39696,2.44400,-0.96288,0.67975,0.02536,0.08467,0.72810,-2.55012,-8.01876,10.81417
0.23090,0.60462,0.02769,0.88448,0.15578,-0.02560,-0.71345,-0.90572,1.94541,2.10527,1.89280,-1.27680,0.67817,0.03318,0.08614,0.72909,3.24341,22.12808,-15.05511
0.24519,0.60815,0.02610,0.91328,0.17419,-0.04415,-0.57322,-0.30943,1.53590,2.08893,1.68084,-1.31487,0.67868,0.04299,0.07602,0.72922,6.94671,43.52629,-30.58749
0.26012,0.61208,0.02427,0.94522,0.19467,-0.06236,-0.42233,0.50917,0.97195,2.35221,1.42723,-1.12284,0.68101,0.05573,0.05130,0.72835,6.22560,58.21704,-42.63950
0.27537,0.61635,0.02272,0.97379,0.21514,-0.07329,-0.37168,1.08126,0.62479,2.90776,1.56687,-0.97837,0.68099,0.06913,0.03069,0.72837,1.66335,53.75433,-38.55857
0.29166,0.62176,0.02126,1.01132,0.24696,-0.08088,-0.43390,1.46783,0.53779,3.13463,2.20143,-0.60634,0.67768,0.08557,0.01640,0.73018,-4.64021,32.40305,-13.38325
0.30895,0.62841,0.01984,1.05558,0.29028,-0.08599,-0.60118,1.66076,0.69570,2.86719,2.67026,-0.38333,0.67059,0.10458,0.01087,0.73434,-9.31611,13.76939,8.85514
0.32629,0.63543,0.01846,1.09244,0.32994,-0.08991,-0.74460,1.72390,0.95746,2.55948,2.84768,-0.46295,0.66262,0.12427,0.01104,0.73849,-9.36134,5.96237,17.79053
0.34389,0.64328,0.01684,1.12476,0.37361,-0.09616,-0.85237,1.73120,1.28196,2.09889,3.35804,-0.62009,0.65409,0.14555,0.01515,0.74212,-5.32186,1.98206,22.88939
0.36136,0.65224,0.01505,1.14882,0.42429,-0.10460,-0.93840,1.71464,1.61799,1.31836,3.91554,-0.73596,0.64484,0.16790,0.02175,0.74533,-3.13173,0.21143,25.11381
0.37852,0.66367,0.01270,1.16339,0.50009,-0.12100,-1.03644,1.70907,2.00174,0.16048,4.62231,-1.15178,0.63383,0.19270,0.03075,0.74846,-2.93962,1.00177,21.95877
0.39464,0.67469,0.01013,1.16067,0.55784,-0.13537,-1.09478,1.70964,2.23220,-0.77045,5.14341,-1.27525,0.62317,0.21575,0.03772,0.75079,-2.10711,0.51761,20.84603
0.40968,0.68742,0.00680,1.14408,0.63064,-0.15659,-1.20064,1.83333,2.36589,-1.95437,5.49316,-1.45816,0.61073,0.24069,0.04058,0.75328,-5.54366,4.65069,14.36567
0.42312,0.70173,0.00277,1.10726,0.71297,-0.18423,-1.37673,2.14932,2.26818,-3.09770,5.21032,-1.59872,0.59688,0.26647,0.03305,0.75607,-13.32210,16.64728,-3.48207
0.43543,0.71627,-0.00138,1.05966,0.78216,-0.20790,-1.59755,2.47359,2.02995,-3.99858,5.01046,-1.65357,0.58169,0.29064,0.01943,0.75947,-20.13398,18.59011,-14.27976
0.44626,0.73159,-0.00590,1.00047,0.84871,-0.23247,-1.90081,2.80512,1.68677,-4.68644,4.66471,-1.71219,0.56393,0.31332,-0.00059,0.76408,-26.72507,18.09458,-20.82407
0.45575,0.74730,-0.01074,0.93413,0.90756,-0.25658,-2.26752,3.13247,1.27905,-4.96063,3.87582,-1.69214,0.54340,0.33456,-0.02639,0.76947,-33.53585,16.35225,-24.56673
0.46417,0.76316,-0.01569,0.86471,0.95537,-0.27713,-2.62197,3.38079,0.91149,-4.92201,2.99875,-1.42193,0.52090,0.35437,-0.05395,0.77471,-33.32643,13.85361,-25.31633
0.47144,0.77908,-0.02070,0.79314,0.99456,-0.29451,-2.93959,3.46650,0.68969,-5.12134,2.42036,-1.49850,0.49634,0.37226,-0.07800,0.78038,-28.19164,3.98217,-13.95921
0.47883,0.79445,-0.02575,0.74023,1.01727,-0.30840,-3.13518,3.44816,0.61228,-5.32181,1.93100,-1.63816,0.47184,0.38935,-0.09739,0.78504,-23.45816,-1.30765,-5.34200
0.48241,0.81035,-0.03189,0.64203,1.04154,-0.33510,-3.35531,3.29128,0.59609,-5.51817,0.62900,-1.66641,0.44473,0.40314,-0.11385,0.79167,-13.08079,-8.25829,3.31294
0.48612,0.82505,-0.03800,0.56365,1.04422,-0.35689,-3.42397,3.09712,0.65018,-5.74323,-0.30142,-1.74057,0.41983,0.41619,-0.12611,0.79663,-4.06906,-11.86705,8.07492
0.49004,0.83907,-0.04418,0.50682,1.03711,-0.37462,-3.44693,2.97415,0.65034,-5.90581,-1.00644,-1.84985,0.39591,0.42879,-0.13950,0.79996,-0.86065,-13.03565,6.99246
0.49127,0.85183,-0.05047,0.40831,1.00286,-0.40524,-3.49727,2.83725,0.43568,-5.59180,-2.62140,-1.56663,0.37354,0.43635,-0.15839,0.80311,-4.80182,-10.49230,-7.53789
0.49491,0.86453,-0.05481,0.34342,0.96031,-0.41828,-3.54343,2.73068,0.17956,-4.95945,-3.57969,-1.17907,0.35195,0.44236,-0.17966,0.80509,-6.20558,-11.34545,-14.75654
0.49788,0.87591,-0.05941,0.27745,0.90041,-0.42876,-3.54780,2.60145,-0.08710,-4.30391,-4.23069,-1.07078,0.33200,0.44624,-0.20160,0.80623,-4.39473,-11.96345,-15.34436
0.49851,0.88570,-0.06590,0.22775,0.85053,-0.43957,-3.45100,2.48851,-0.18756,-3.89722,-4.58286,-0.99808,0.31325,0.45176,-0.21897,0.80613,1.87518,-11.42082,-9.97901
