posX, posY, posZ, velX, velY, velZ, angVelX, angVelY, angVelZ, accX, accY, accZ, rotX, rotY, rotZ, rotW, angAccX, angAccY, angAccZ
0.05944,1.22914,-0.42164,-0.14751,0.17773,-0.08807,0.01885,0.22042,0.34799,0.52586,-0.71768,0.30895,0.04496,0.92448,-0.03506,0.37695,-3.94590,-1.71599,1.33517
0.05797,1.23093,-0.42262,-0.14001,0.16887,-0.08377,-0.00419,0.20389,0.33435,0.66781,-0.78771,0.36429,0.04285,0.92491,-0.03496,0.37615,-2.92479,-1.78570,-0.36644
0.05721,1.23214,-0.42352,-0.12663,0.15720,-0.07677,0.02728,0.19841,0.26868,0.78555,-0.72869,0.44943,0.04305,0.92540,-0.03407,0.37499,1.17755,-0.86150,-3.52905
0.05638,1.23353,-0.42433,-0.11589,0.14927,-0.07071,0.07864,0.20491,0.20644,0.84396,-0.57207,0.57525,0.04393,0.92607,-0.03246,0.37339,4.24699,1.43000,-5.27883
0.05573,1.23492,-0.42499,-0.10405,0.14181,-0.06453,0.10863,0.19506,0.16285,0.71027,-0.35696,0.39264,0.04457,0.92653,-0.03104,0.37228,3.45950,-0.20055,-4.50931
0.05503,1.23618,-0.42585,-0.09628,0.13541,-0.06181,0.02925,0.15487,0.19281,0.31896,-0.19755,0.20236,0.04199,0.92658,-0.03194,0.37239,-3.42923,-1.94572,0.62088
0.05411,1.23766,-0.42682,-0.09223,0.13228,-0.06187,-0.08426,0.09816,0.23586,0.29104,-0.20177,-0.02837,0.03809,0.92625,-0.03419,0.37341,-9.27944,-4.55786,4.13905
0.05327,1.23923,-0.42783,-0.08744,0.13076,-0.06279,-0.18140,0.05469,0.23803,0.25638,-0.12052,-0.20510,0.03501,0.92587,-0.03715,0.37439,-8.74933,-3.83200,1.79503
0.05243,1.24096,-0.42894,-0.08462,0.13288,-0.06432,-0.16260,0.07819,0.16326,-0.03247,0.29433,-0.22926,0.03552,0.92624,-0.03815,0.37332,-0.94268,0.12533,-4.18989
0.05133,1.24308,-0.43007,-0.08561,0.13970,-0.06608,-0.12582,0.09934,0.10671,-0.19379,0.90115,-0.11517,0.03632,0.92670,-0.03838,0.37208,3.85802,2.95048,-6.09414
0.04984,1.24615,-0.43147,-0.09241,0.15973,-0.07088,-0.09648,0.08938,0.08562,-0.73828,1.74483,-0.38946,0.03640,0.92683,-0.03825,0.37176,2.24981,-0.56227,-2.26992
0.04785,1.24961,-0.43307,-0.10537,0.18179,-0.07737,-0.08984,0.06961,0.12069,-1.49734,2.09814,-0.58857,0.03459,0.92685,-0.03798,0.37189,0.81952,-1.10782,1.57629
0.04452,1.25431,-0.43502,-0.13570,0.21835,-0.08677,0.05026,0.11929,0.09932,-2.37676,2.50042,-0.78066,0.03586,0.92780,-0.03423,0.36978,4.75076,1.14223,0.73439
0.04016,1.26033,-0.43691,-0.17541,0.26802,-0.09358,0.40894,0.25695,-0.02396,-2.76594,3.56660,-0.33062,0.04353,0.93006,-0.02422,0.36401,22.08198,9.82459,-8.54406
0.03525,1.26714,-0.43878,-0.21604,0.32036,-0.09810,0.72173,0.31531,-0.11650,-3.22085,4.04054,-0.11451,0.05134,0.93154,-0.01327,0.35976,22.24521,5.66826,-6.74081
0.02889,1.27558,-0.44064,-0.26943,0.38509,-0.10316,1.02837,0.31306,-0.25099,-3.42714,4.73876,-0.92167,0.06171,0.93209,-0.00129,0.35694,17.94701,-3.19406,-10.68853
0.02224,1.28442,-0.44260,-0.31529,0.44056,-0.10967,1.37892,0.34769,-0.20347,-4.20531,4.26081,-0.14216,0.06855,0.93311,0.01591,0.35265,27.68124,7.35076,3.66216
0.01426,1.29450,-0.44500,-0.37088,0.50278,-0.12124,1.70524,0.46048,-0.32929,-3.95961,4.74703,-1.40298,0.08106,0.93433,0.03251,0.34554,20.08727,2.41555,-9.81660
0.00498,1.30639,-0.44795,-0.43521,0.57991,-0.13856,2.20328,0.71856,-0.48929,-4.23645,4.87028,-1.14452,0.09803,0.93642,0.05537,0.33231,30.47578,16.22477,-9.04214
-0.00430,1.31807,-0.45074,-0.48633,0.63804,-0.14984,2.63845,0.96088,-0.62445,-4.39912,4.94587,-0.89607,0.11574,0.93784,0.07931,0.31744,35.17910,18.99494,-9.90163
-0.01554,1.33184,-0.45377,-0.55661,0.71630,-0.16147,3.17337,1.27258,-0.76701,-4.49228,5.02414,-0.54058,0.13678,0.93856,0.10838,0.29775,35.99840,19.79516,-8.95714
-0.02680,1.34536,-0.45669,-0.61164,0.77257,-0.17015,3.41486,1.45099,-0.78098,-4.70325,4.76042,-0.44031,0.15259,0.93832,0.13304,0.28031,26.79354,16.89364,-3.27420
-0.04009,1.36007,-0.46021,-0.68877,0.83957,-0.18356,3.46739,1.62293,-0.67374,-4.99521,4.10097,-0.63757,0.16335,0.93853,0.15453,0.26193,7.91686,9.73320,7.22733
-0.05342,1.37437,-0.46370,-0.74850,0.88415,-0.19417,3.33622,1.70245,-0.50558,-5.01269,3.75241,-0.58791,0.16953,0.93887,0.17151,0.24569,-4.79349,5.50561,13.72069
-0.06832,1.38962,-0.46718,-0.81760,0.93203,-0.20307,3.08967,1.74760,-0.26574,-4.92750,3.30654,-0.36358,0.17076,0.94001,0.18496,0.23023,-15.13025,-0.27386,19.65749
-0.08412,1.40498,-0.47044,-0.88984,0.97902,-0.20261,2.87450,1.83919,-0.04276,-4.40221,2.76591,0.45439,0.17105,0.94148,0.19763,0.21283,-13.33428,2.14874,17.55223
-0.09899,1.41994,-0.47299,-0.92976,1.00500,-0.19396,2.80737,1.89895,0.04847,-3.99242,2.52301,1.22687,0.17487,0.94131,0.21258,0.19537,-7.70474,4.58054,13.12734
-0.11575,1.43590,-0.47424,-0.98791,1.03853,-0.16957,2.77048,2.00720,0.14925,-3.55604,1.72892,1.61149,0.17802,0.94106,0.22777,0.17560,-2.67971,3.51182,8.66093
-0.13303,1.45155,-0.47440,-1.04438,1.06168,-0.13392,2.82509,2.23009,0.18803,-2.97134,0.85149,2.18016,0.18389,0.94003,0.24425,0.15123,3.63522,12.25498,3.92023
-0.14922,1.46652,-0.47488,-1.07104,1.06738,-0.11149,2.85135,2.35999,0.18676,-2.57408,0.37019,2.33968,0.19033,0.93790,0.26003,0.12845,3.18786,11.86653,2.84887
-0.16624,1.48123,-0.47389,-1.10416,1.06899,-0.07171,2.87133,2.54114,0.16282,-1.73150,-0.11272,2.72779,0.19783,0.93522,0.27493,0.10314,0.90892,11.62366,1.25047
-0.18276,1.49525,-0.47216,-1.12444,1.06274,-0.02622,2.84497,2.65541,0.10861,-0.93430,-0.63032,3.14588,0.20589,0.93176,0.28838,0.07923,-1.01203,8.84085,-1.39889
-0.19885,1.50903,-0.47001,-1.13295,1.05165,0.01587,2.73224,2.65868,0.05076,-0.29954,-0.93433,3.23288,0.21328,0.92813,0.29942,0.05865,-6.74404,2.66496,-2.58392
-0.21458,1.52252,-0.46751,-1.13355,1.03875,0.05382,2.62001,2.64593,-0.01158,0.10567,-1.12594,3.29981,0.22091,0.92406,0.30952,0.03888,-10.54936,-0.37244,-3.22929
-0.23001,1.53537,-0.46395,-1.12964,1.02056,0.10080,2.49335,2.61872,-0.06520,0.36784,-1.25800,3.53027,0.22834,0.91984,0.31835,0.01999,-10.30582,-1.19310,-2.52239
-0.24529,1.54791,-0.45942,-1.12377,0.99989,0.15192,2.43370,2.62505,-0.11161,0.37078,-1.55250,3.73265,0.23613,0.91468,0.32802,0.00007,-6.35992,-0.73323,-1.94106
-0.26040,1.56000,-0.45377,-1.11574,0.97499,0.20690,2.45627,2.69909,-0.17873,0.69946,-1.86139,3.97719,0.24547,0.90792,0.33901,-0.02217,-0.31038,5.25291,-3.54263
-0.27504,1.57146,-0.44733,-1.10215,0.94600,0.26260,2.50766,2.78319,-0.26063,1.22932,-2.22495,4.01885,0.25583,0.89980,0.35053,-0.04517,2.70368,7.51219,-5.40994
-0.28928,1.58259,-0.44066,-1.08561,0.91756,0.30865,2.52654,2.81100,-0.32720,1.64012,-2.55086,3.82434,0.26572,0.89120,0.36151,-0.06678,2.23330,5.34950,-5.76684
-0.30270,1.59264,-0.43266,-1.05995,0.87633,0.36126,2.38104,2.69089,-0.34959,1.81641,-2.77417,3.09874,0.27317,0.88455,0.36884,-0.08313,-7.05798,-4.81142,-1.93234
-0.31614,1.60272,-0.42531,-1.04028,0.84459,0.39380,2.16769,2.52161,-0.32169,1.69417,-2.62560,2.61963,0.27836,0.87949,0.37370,-0.09675,-16.42759,-13.40529,2.64910
-0.32786,1.60996,-0.41535,-0.99562,0.77180,0.46396,1.88418,2.34310,-0.24009,1.56198,-2.68356,2.24852,0.28156,0.87615,0.37583,-0.10882,-7.86918,-4.44534,3.61814
-0.35365,1.62845,-0.40005,-0.96728,0.72850,0.49838,1.84421,2.38955,-0.23813,1.78029,-2.62257,1.90101,0.29420,0.86141,0.38802,-0.14446,-2.68515,2.21383,0.32325
-0.36545,1.63610,-0.39150,-0.94253,0.69183,0.52256,1.81047,2.45701,-0.21771,1.74824,-2.60753,1.59434,0.30044,0.85366,0.39265,-0.16379,-1.56865,4.68350,1.88936
-0.37700,1.64312,-0.38302,-0.91911,0.65479,0.54242,1.75268,2.51128,-0.17921,1.66709,-2.76783,1.35897,0.30603,0.84610,0.39614,-0.18310,-1.78520,4.01615,3.74002
-0.38849,1.64987,-0.37464,-0.89991,0.62155,0.55608,1.66234,2.52811,-0.13308,1.66648,-2.86147,1.08961,0.31093,0.83912,0.39833,-0.20133,-5.30571,1.71998,4.67990
-0.39910,1.65546,-0.36602,-0.87149,0.57731,0.56995,1.50993,2.51933,-0.07385,2.03159,-2.74395,0.71274,0.31525,0.83329,0.39817,-0.21840,-8.30226,-0.34141,5.21435
-0.40954,1.66145,-0.35757,-0.84684,0.54643,0.57656,1.35706,2.44952,-0.02270,2.22734,-2.57945,0.44855,0.31883,0.82816,0.39760,-0.23329,-11.17094,-4.15408,5.50259
-0.41918,1.66677,-0.34913,-0.81597,0.51253,0.58150,1.15232,2.35732,0.03360,2.22414,-2.33355,0.31409,0.32192,0.82452,0.39477,-0.24634,-13.92941,-8.16109,6.45725
-0.42819,1.67182,-0.34038,-0.78227,0.48157,0.59032,1.04164,2.37536,0.05919,2.34349,-1.96588,0.89177,0.32635,0.81903,0.39239,-0.26213,-10.42346,-2.07296,4.34122
-0.43645,1.67657,-0.33066,-0.74535,0.45121,0.60995,1.08151,2.44872,0.03949,2.83375,-2.23065,1.67267,0.33174,0.81042,0.39312,-0.28040,0.85982,6.43947,-0.05726
-0.44428,1.68104,-0.32050,-0.71008,0.42369,0.63192,1.14435,2.45836,-0.00245,3.20134,-2.34093,1.88681,0.33691,0.80114,0.39540,-0.29719,4.65519,3.50771,-3.18504
-0.45004,1.68430,-0.30937,-0.65201,0.38293,0.66338,1.16682,2.33827,-0.04408,3.42606,-2.41355,1.57623,0.34082,0.79311,0.39840,-0.30998,1.70053,-5.45006,-3.54796
-0.45636,1.68798,-0.29886,-0.61278,0.35638,0.68011,1.13523,2.17261,-0.03723,3.33743,-2.22931,1.20829,0.34303,0.78683,0.40040,-0.32078,-1.96265,-12.02051,-1.34569
-0.46208,1.69132,-0.28846,-0.57459,0.33138,0.69198,1.08464,1.99208,-0.00316,3.10295,-2.16714,0.73520,0.34387,0.78179,0.40199,-0.33008,-3.40173,-15.85200,1.31435
-0.46644,1.69374,-0.27825,-0.52406,0.29840,0.69851,0.99768,1.83388,0.02908,3.15538,-2.10723,0.09106,0.34482,0.77756,0.40234,-0.33856,-4.88807,-10.35805,2.19084
-0.47053,1.69619,-0.26848,-0.47965,0.27175,0.69712,0.89142,1.69230,0.06287,3.20513,-1.88643,-0.26462,0.34572,0.77401,0.40175,-0.34637,-7.10895,-10.22812,2.43305
-0.47355,1.69807,-0.25892,-0.42797,0.24209,0.69334,0.79753,1.57010,0.07083,3.18667,-1.86651,-0.22516,0.34712,0.77043,0.40117,-0.35356,-6.31392,-8.61765,1.55311
-0.47639,1.69976,-0.24933,-0.38214,0.21587,0.69158,0.76754,1.52627,0.04288,3.25865,-1.78729,-0.05228,0.34962,0.76512,0.40146,-0.36220,-3.34250,-4.57756,-1.32767
-0.47847,1.70122,-0.23957,-0.33470,0.19135,0.69254,0.80019,1.52010,-0.00806,3.44308,-1.65082,0.11063,0.35259,0.75823,0.40315,-0.37180,0.64262,-0.69870,-3.18504
-0.47988,1.70239,-0.22975,-0.28714,0.16807,0.69432,0.87007,1.51615,-0.07926,3.37547,-1.68245,0.04162,0.35583,0.75021,0.40627,-0.38147,4.22157,0.66460,-5.54027
-0.48079,1.70336,-0.22009,-0.24208,0.14625,0.69333,0.91005,1.48456,-0.12414,3.17462,-1.60950,-0.26452,0.35849,0.74275,0.40920,-0.39034,3.73967,-1.81324,-4.62866
-0.48115,1.70417,-0.21075,-0.19856,0.12639,0.68754,0.93755,1.46766,-0.17230,3.04730,-1.37913,-0.58961,0.36156,0.73501,0.41199,-0.39913,1.42508,-1.15332,-3.62324
-0.48121,1.70474,-0.20179,-0.15909,0.10780,0.67782,0.91877,1.39091,-0.17731,2.77133,-1.47319,-0.81058,0.36341,0.72894,0.41411,-0.40630,0.04824,-3.47975,-2.07518
-0.48105,1.70494,-0.19313,-0.12397,0.08850,0.66626,0.87258,1.26277,-0.16024,2.43418,-1.39081,-0.84001,0.36418,0.72448,0.41597,-0.41166,-3.56028,-9.12381,1.20848
-0.48084,1.70499,-0.18455,-0.09579,0.07123,0.65629,0.84936,1.17807,-0.15223,2.25011,-1.44964,-0.83770,0.36508,0.71954,0.41799,-0.41744,-2.88033,-8.44860,0.64164
-0.47971,1.70436,-0.17633,-0.05999,0.04758,0.64279,0.84498,1.11387,-0.16999,2.15287,-1.49091,-0.86618,0.36641,0.71402,0.42059,-0.42312,-0.63681,-3.89987,-0.87131
-0.47864,1.70357,-0.16827,-0.03187,0.02608,0.62973,0.85102,1.07613,-0.18229,1.85380,-1.54850,-1.02794,0.36772,0.70809,0.42323,-0.42927,0.41450,-3.12392,-2.02070
-0.47764,1.70276,-0.16042,-0.01092,0.00908,0.61635,0.83690,1.04125,-0.17447,1.70577,-1.41828,-1.22660,0.36876,0.70267,0.42520,-0.43528,-0.12235,-2.35684,-0.05156
-0.47607,1.70147,-0.15326,0.01411,-0.01149,0.59561,0.79486,0.97953,-0.15016,1.46392,-1.22395,-1.41321,0.36927,0.69843,0.42656,-0.44032,-2.58800,-4.43262,1.47293
-0.47449,1.70023,-0.14638,0.03443,-0.02736,0.57465,0.75538,0.96443,-0.12709,1.39935,-1.06325,-1.57278,0.37026,0.69375,0.42729,-0.44614,-2.62351,-1.74704,1.24269
-0.47289,1.69900,-0.13968,0.05061,-0.03974,0.55583,0.71803,0.95760,-0.11297,1.29570,-1.03097,-1.58983,0.37151,0.68900,0.42780,-0.45194,-3.11907,-0.07605,1.28464
-0.47085,1.69715,-0.13379,0.07013,-0.05873,0.52876,0.63939,0.89383,-0.05989,0.99587,-1.11015,-1.39826,0.37166,0.68630,0.42729,-0.45638,-4.08316,-3.81476,3.24357
-0.46915,1.69544,-0.12740,0.08091,-0.07206,0.51429,0.61045,0.84614,-0.02788,0.80583,-1.04972,-1.03014,0.37156,0.68296,0.42766,-0.46110,-4.14451,-5.18452,3.55228
-0.46647,1.69261,-0.12198,0.10661,-0.10163,0.48562,0.66715,0.92959,-0.04859,0.94805,-0.95390,-1.16063,0.37273,0.67637,0.42903,-0.46853,2.26994,4.34246,-1.33055
-0.46253,1.68888,-0.10965,0.12078,-0.11484,0.46820,0.67245,1.02518,-0.08949,1.11566,-1.00067,-1.30964,0.37655,0.66382,0.43026,-0.48210,1.28329,7.97270,-2.20078
-0.45983,1.68638,-0.10435,0.13582,-0.12800,0.45032,0.66353,1.06099,-0.13700,1.18491,-0.98645,-1.32468,0.37952,0.65700,0.43102,-0.48839,-0.39546,4.84200,-3.19248
-0.45706,1.68365,-0.09918,0.14854,-0.14192,0.43422,0.62047,0.98526,-0.16014,0.90252,-0.96104,-1.02467,0.38125,0.65260,0.43207,-0.49202,-3.23120,-3.60224,-2.22427
-0.45435,1.68070,-0.09392,0.15784,-0.15618,0.42274,0.62268,0.86884,-0.18033,0.55120,-0.99981,-0.72793,0.38157,0.64858,0.43470,-0.49475,-0.96176,-7.89288,-1.38736
-0.45169,1.67760,-0.08875,0.16464,-0.16965,0.41234,0.64187,0.78799,-0.20237,0.36484,-0.86972,-0.76525,0.38187,0.64401,0.43767,-0.49787,1.42667,-6.64463,-2.06826
-0.44908,1.67450,-0.08387,0.16918,-0.18040,0.39970,0.67011,0.76566,-0.22590,0.13407,-0.70122,-1.01282,0.38266,0.63843,0.44048,-0.50196,1.74655,-3.41771,-1.78030
-0.44657,1.67142,-0.07941,0.17143,-0.18867,0.38357,0.68816,0.81226,-0.23550,0.06988,-0.57461,-1.21267,0.38425,0.63189,0.44215,-0.50752,1.21229,2.59778,-1.37274
-0.44415,1.66837,-0.07521,0.17187,-0.19492,0.36691,0.69762,0.83807,-0.23960,0.04035,-0.40952,-1.18612,0.38567,0.62557,0.44375,-0.51285,1.18143,3.55317,-0.53735
-0.44191,1.66535,-0.07113,0.16966,-0.19925,0.35197,0.69998,0.77289,-0.21340,-0.12171,-0.23048,-1.05340,0.38526,0.62118,0.44584,-0.51666,0.03962,-2.88239,1.45319
-0.44017,1.66236,-0.06802,0.15926,-0.20258,0.32238,0.74123,0.53704,-0.11382,-0.36010,0.00906,-1.15008,0.38039,0.61996,0.44970,-0.51838,1.51152,-7.50009,3.37769
-0.43598,1.65679,-0.06025,0.15559,-0.20155,0.30425,0.73140,0.45645,-0.08188,-0.21297,0.13648,-1.41899,0.37766,0.61275,0.45436,-0.52486,0.11762,-6.47518,2.16434
-0.43390,1.65427,-0.05735,0.15429,-0.19714,0.28426,0.68962,0.37691,-0.06672,0.01304,0.46591,-1.41091,0.37601,0.61075,0.45647,-0.52653,-2.26545,-5.24440,1.45100
-0.43176,1.65203,-0.05458,0.15427,-0.18967,0.26668,0.65592,0.26284,-0.05725,-0.00325,0.64640,-1.13476,0.37365,0.60965,0.45926,-0.52706,-3.46162,-8.56133,0.35508
-0.42958,1.64998,-0.05184,0.15467,-0.18079,0.25219,0.64109,0.19187,-0.05306,-0.00264,0.72639,-0.89833,0.37142,0.60800,0.46209,-0.52807,-1.44326,-5.94809,0.27694
-0.42734,1.64814,-0.04904,0.15602,-0.17068,0.24164,0.66379,0.13508,-0.03774,0.19203,0.79472,-0.56667,0.36833,0.60592,0.46539,-0.52972,0.69520,-3.42437,1.16878
-0.42496,1.64642,-0.04607,0.15917,-0.16097,0.23584,0.70812,0.06177,-0.03237,0.29121,0.64561,-0.32411,0.36445,0.60384,0.46970,-0.53097,2.84664,-5.36434,0.17536
-0.42233,1.64472,-0.04308,0.16541,-0.15299,0.23152,0.76545,0.03591,-0.05774,0.55396,0.61265,-0.27279,0.36126,0.60043,0.47457,-0.53269,4.07095,-2.50232,-1.38809
-0.41955,1.64308,-0.04003,0.17247,-0.14572,0.22897,0.79726,-0.03248,-0.08325,0.74894,0.54263,-0.24082,0.35765,0.59797,0.47986,-0.53316,3.63760,-2.55136,-2.16066
-0.41637,1.64169,-0.03699,0.18390,-0.13642,0.22683,0.80007,-0.16311,-0.12539,0.74577,0.63901,-0.07718,0.35364,0.59699,0.48601,-0.53136,-0.18998,-8.87701,-2.71218
-0.41298,1.64036,-0.03390,0.19618,-0.12785,0.22576,0.83042,-0.19075,-0.16395,0.85073,0.63627,0.02202,0.35044,0.59410,0.49182,-0.53137,1.64680,-2.91275,-3.12370
-0.40948,1.63905,-0.03077,0.20744,-0.12100,0.22567,0.87767,-0.19486,-0.20301,1.03289,0.55299,-0.03848,0.34725,0.59032,0.49803,-0.53189,4.31794,0.07312,-2.86819
-0.40579,1.63786,-0.02761,0.21888,-0.11406,0.22585,0.88777,-0.28244,-0.23833,1.10043,0.51774,-0.04643,0.34323,0.58844,0.50480,-0.53019,1.97312,-3.19871,-3.36614
-0.40176,1.63689,-0.02430,0.23282,-0.10529,0.22832,0.86249,-0.50145,-0.28490,0.84454,0.50779,0.23582,0.33763,0.58964,0.51301,-0.52455,-1.71131,-13.27829,-3.77599
-0.39779,1.63583,-0.02088,0.24280,-0.09944,0.23145,0.86751,-0.63040,-0.31907,0.68935,0.56614,0.40886,0.33217,0.58955,0.52109,-0.52014,-0.71519,-13.77073,-3.82574
-0.39331,1.63512,-0.01726,0.25868,-0.08972,0.23724,0.94962,-0.65764,-0.36597,0.85616,0.58445,0.36394,0.32695,0.58646,0.53010,-0.51784,4.66029,-2.12666,-2.64620
-0.38891,1.63435,-0.01376,0.27055,-0.08287,0.24026,1.02372,-0.61424,-0.39891,1.03845,0.63400,0.21966,0.32266,0.58200,0.53830,-0.51711,6.05725,2.89426,-1.85854
-0.38385,1.63386,-0.01022,0.28951,-0.07307,0.24319,1.12895,-0.52870,-0.45671,1.32510,0.66620,0.21900,0.31903,0.57534,0.54735,-0.51731,6.55966,5.66020,-2.68172
-0.37857,1.63330,-0.00658,0.30788,-0.06642,0.24698,1.21200,-0.49666,-0.51443,1.38701,0.23275,0.27890,0.31498,0.56914,0.55689,-0.51647,6.39303,3.52854,-2.85121
-0.37306,1.63247,-0.00281,0.32600,-0.06517,0.25184,1.28691,-0.53874,-0.59252,1.42212,0.02854,0.36115,0.31014,0.56349,0.56782,-0.51369,5.59001,-1.17037,-4.92758
-0.36729,1.63155,0.00108,0.34409,-0.06539,0.25752,1.35562,-0.61930,-0.68902,1.27121,-0.05878,0.39557,0.30488,0.55798,0.57993,-0.50930,5.06196,-4.99797,-7.25925
-0.36133,1.63056,0.00501,0.36128,-0.06649,0.26255,1.42046,-0.67431,-0.76995,1.16227,-0.11989,0.38502,0.29958,0.55198,0.59209,-0.50497,4.66260,-4.34857,-6.48352
-0.35533,1.62952,0.00897,0.37551,-0.06819,0.26718,1.47846,-0.71694,-0.84497,1.20375,-0.21631,0.40804,0.29434,0.54556,0.60442,-0.50041,5.12819,-2.45567,-5.95740
-0.34909,1.62828,0.01323,0.38970,-0.07248,0.27469,1.53912,-0.82803,-0.93837,0.98483,-0.41476,0.60500,0.28783,0.53963,0.61833,-0.49358,4.17577,-6.47811,-6.74960
-0.34279,1.62674,0.01776,0.40220,-0.07997,0.28480,1.63709,-0.95327,-1.05021,0.89962,-0.45860,0.88736,0.28027,0.53276,0.63390,-0.48558,5.23367,-8.41836,-8.01823
-0.33635,1.62503,0.02259,0.41403,-0.08856,0.29711,1.79479,-1.02866,-1.17488,0.71023,-0.63709,0.96948,0.27231,0.52312,0.65104,-0.47786,10.30291,-6.28643,-9.32268
-0.32987,1.62314,0.02759,0.42424,-0.09784,0.30937,1.97601,-1.04600,-1.27980,0.61093,-0.64052,0.82896,0.26424,0.51119,0.66849,-0.47115,13.32336,-2.63826,-7.85499
-0.32326,1.62120,0.03266,0.43446,-0.10610,0.32040,2.14153,-1.05576,-1.36079,0.75415,-0.45578,0.48145,0.25573,0.49846,0.68581,-0.46456,12.60224,-0.12094,-3.78632
-0.31662,1.61951,0.03754,0.44301,-0.10912,0.32644,2.21303,-1.09752,-1.42163,0.86532,-0.21133,0.33289,0.24734,0.48749,0.70193,-0.45658,6.67049,-2.99116,-5.09876
-0.30969,1.61794,0.04249,0.45397,-0.10991,0.33227,2.21482,-1.22568,-1.51752,0.77887,-0.04241,0.44559,0.23846,0.47863,0.71838,-0.44495,0.59882,-6.75503,-7.90514
-0.30269,1.61612,0.04771,0.46356,-0.11436,0.34089,2.19998,-1.47805,-1.64577,0.47381,-0.51104,0.56728,0.22716,0.47161,0.73604,-0.42921,-1.25786,-11.50208,-8.19664
-0.29609,1.61402,0.05300,0.46580,-0.12185,0.34901,2.20104,-1.71289,-1.78776,0.11555,-0.69182,0.74306,0.21526,0.46412,0.75412,-0.41177,-1.58973,-16.20459,-13.78612
-0.28969,1.61143,0.05849,0.46443,-0.13504,0.35817,2.24849,-1.94963,-1.95288,-0.34954,-1.11246,0.63253,0.20191,0.45538,0.77343,-0.39201,1.24535,-17.13638,-14.72442
-0.28346,1.60830,0.06386,0.46105,-0.15333,0.36373,2.32508,-2.09044,-2.10906,-0.32331,-1.34539,0.26269,0.18919,0.44429,0.79254,-0.37243,5.94819,-11.29970,-12.15989
-0.27725,1.60485,0.06904,0.45804,-0.17237,0.36531,2.43225,-2.14090,-2.24289,-0.40630,-1.32041,0.04484,0.17729,0.43063,0.81125,-0.35355,7.22417,-4.72979,-11.04073
-0.27110,1.60107,0.07400,0.45466,-0.19255,0.36334,2.59371,-2.07160,-2.25259,-0.46412,-1.56827,-0.25529,0.16545,0.41390,0.82841,-0.33921,12.02087,1.80543,-1.15011
-0.26510,1.59674,0.07870,0.44982,-0.21651,0.35820,2.74988,-2.00250,-2.21053,-0.22671,-1.94991,-0.52023,0.15276,0.39622,0.84447,-0.32641,12.33416,3.38349,7.26550
-0.25914,1.59202,0.08327,0.44549,-0.24108,0.35227,2.81145,-2.00485,-2.25167,-0.19561,-2.32711,-0.60099,0.14046,0.38002,0.86013,-0.30990,7.22180,0.18681,1.19507
-0.25332,1.58581,0.08751,0.44012,-0.28203,0.34274,2.91569,-1.99662,-2.38628,-0.35852,-2.79995,-0.52155,0.12909,0.36104,0.87668,-0.29054,5.73689,0.72826,-7.48366
-0.24755,1.57859,0.09156,0.43486,-0.33058,0.33208,3.11539,-1.94524,-2.51883,-0.31528,-3.19974,-0.70502,0.11770,0.33771,0.89355,-0.27140,13.57868,2.11686,-5.38128
-0.24181,1.57089,0.09550,0.43006,-0.37695,0.32195,3.34058,-1.86925,-2.60121,-0.57399,-3.28547,-0.52083,0.10620,0.31195,0.90956,-0.25320,14.47116,3.70172,-5.43967
-0.23627,1.56279,0.09938,0.42347,-0.41887,0.31304,3.64439,-1.80196,-2.53936,-0.81547,-3.48728,-0.74772,0.09181,0.28252,0.92448,-0.23894,23.19299,0.91677,4.48278
-0.23132,1.55301,0.10255,0.40947,-0.47683,0.29541,4.05051,-1.74331,-2.36314,-1.02465,-3.80532,-1.44156,0.07432,0.24813,0.93838,-0.22880,24.60401,-3.13368,14.55248
-0.22975,1.53725,0.11260,0.39107,-0.52984,0.27128,4.32215,-1.76966,-2.31303,-1.15768,-4.06042,-2.13954,0.05637,0.21508,0.95109,-0.21444,20.23991,-6.35473,9.36600
-0.22923,1.51398,0.12978,0.37123,-0.58779,0.24053,4.44930,-1.83561,-2.65932,-1.05596,-4.65929,-3.16553,0.04179,0.18310,0.96423,-0.18705,12.60049,-5.41644,-18.49282
-0.22990,1.48586,0.14556,0.34938,-0.66600,0.18442,4.62838,-1.67028,-3.28095,-2.23613,-4.78236,-3.81347,0.03617,0.14530,0.97716,-0.15079,21.10841,18.79159,-34.02343
-0.23021,1.46084,0.15726,0.31890,-0.72506,0.13544,4.83268,-1.74862,-3.33007,-3.35274,-4.81202,-4.16537,0.01971,0.10855,0.98590,-0.12582,11.97877,3.12374,-15.54001
-0.23354,1.43128,0.16919,0.27359,-0.79488,0.06016,5.16632,-1.80004,-3.28959,-3.64876,-4.69514,-6.36681,0.00149,0.06596,0.99243,-0.10360,22.54029,-11.91014,2.72742
-0.24077,1.39742,0.17928,0.21103,-0.86540,-0.05208,5.51875,-1.90671,-3.21986,-4.33122,-4.11067,-7.81289,-0.01922,0.02083,0.99624,-0.08182,19.95284,-11.96543,2.66024
-0.24764,1.36800,0.18397,0.15853,-0.90988,-0.15096,5.82317,-2.03310,-3.14125,-4.69033,-3.10484,-8.91842,-0.04127,-0.02507,0.99700,-0.06044,20.45369,-16.51109,4.82142
-0.25653,1.33507,0.18267,0.09126,-0.94415,-0.28499,6.18390,-2.23457,-2.99392,-5.12531,-1.50469,-10.40575,-0.06728,-0.07457,0.99409,-0.04130,20.89617,-21.25167,5.68178
-0.26383,1.30542,0.17265,0.02817,-0.95056,-0.41913,6.44269,-2.49359,-2.78134,-5.74579,0.54207,-11.92675,-0.09630,-0.12274,0.98744,-0.02506,15.60730,-26.93638,6.52043
-0.27788,1.27262,0.15596,-0.06728,-0.91134,-0.62627,6.68583,-3.13189,-2.49992,-6.43734,4.69015,-13.97688,-0.13928,-0.17063,0.97537,-0.01197,9.06691,-42.61922,1.72556
-0.29344,1.24579,0.13510,-0.15241,-0.82504,-0.82707,6.73821,-4.07571,-2.12867,-6.32261,8.13427,-14.52871,-0.19491,-0.21239,0.95754,-0.00434,-6.10693,-62.93286,-8.78512
-0.31136,1.22254,0.10847,-0.22554,-0.69722,-1.03184,6.68667,-5.41288,-1.69076,-4.71921,10.33395,-14.20974,-0.26780,-0.24951,0.93060,-0.00356,-16.40320,-91.27518,-15.53673
-0.33457,1.20360,0.07972,-0.27393,-0.53804,-1.22668,6.47979,-6.82728,-1.47593,-2.05218,12.91866,-14.05891,-0.34983,-0.27924,0.89423,-0.00146,-19.09593,-100.83460,-34.00814
-0.36059,1.19060,0.04843,-0.28976,-0.33256,-1.41288,6.07996,-7.86983,-1.69417,0.87134,16.51624,-13.39437,-0.42734,-0.29819,0.85344,0.01061,-16.79155,-68.51208,-53.98427
-0.38831,1.18491,0.02248,-0.27036,-0.12174,-1.55866,5.64034,-8.37127,-2.14105,3.57517,18.82088,-11.78124,-0.49356,-0.31031,0.81188,0.03092,-10.25105,-29.26046,-64.52995
-0.42130,1.18686,-0.00949,-0.18978,0.19460,-1.71890,5.04409,-8.39873,-2.84723,7.60915,21.13479,-8.95056,-0.54883,-0.31045,0.77376,0.06093,-4.83171,13.43073,-57.44173
-0.44573,1.19616,-0.04108,-0.06837,0.49457,-1.81843,4.58609,-8.00956,-3.37135,10.34461,22.17928,-5.63450,-0.59065,-0.31079,0.73907,0.09117,-0.72917,42.07798,-39.46358
-0.46231,1.21057,-0.07123,0.06717,0.75636,-1.86737,4.17053,-7.62516,-3.63815,12.22654,21.97645,-2.66183,-0.62778,-0.30986,0.70460,0.11580,-5.87564,48.03182,-27.26970
-0.48105,1.23170,-0.10085,0.30762,1.12370,-1.87701,3.36582,-7.27037,-3.82736,14.18409,19.82913,1.46330,-0.66341,-0.29536,0.67464,0.13231,-24.45763,35.19551,-22.49630
-0.49047,1.25355,-0.12620,0.51811,1.38353,-1.83771,2.38460,-7.17574,-3.95570,15.59696,18.75456,4.06444,-0.70343,-0.27216,0.64167,0.13922,-47.07174,27.73004,-31.45843
-0.49431,1.27787,-0.14891,0.71294,1.59481,-1.77915,1.30238,-7.14154,-4.17213,17.02586,17.83311,5.72369,-0.74412,-0.23799,0.60801,0.14130,-62.49152,28.03582,-51.70264
-0.50470,1.30753,-0.15702,1.00736,1.87868,-1.66884,-0.43253,-7.02611,-4.63704,19.65724,18.62444,7.90424,-0.78469,-0.17552,0.57961,0.13234,-72.26058,35.96727,-70.83525
-0.50813,1.34020,-0.16320,1.29600,2.13558,-1.55000,-2.11275,-6.93987,-5.39335,21.78153,19.29021,8.89254,-0.82318,-0.09766,0.54571,0.12266,-75.72081,33.80725,-97.92512
-0.50695,1.37765,-0.16774,1.62139,2.40338,-1.42626,-3.76643,-7.08242,-6.54290,23.77396,18.70864,8.37796,-0.85999,0.00015,0.49773,0.11263,-65.99657,12.16308,-126.54880
-0.49871,1.41819,-0.17626,1.92469,2.61906,-1.33007,-4.86713,-7.41133,-7.89936,30.52605,20.11065,10.28173,-0.88962,0.10324,0.43056,0.11199,-36.84130,-62.76609,-128.35190
-0.48158,1.46521,-0.18375,2.37267,2.89505,-1.17611,-6.45070,-7.16811,-9.52207,34.20276,18.27559,11.86290,-0.89413,0.23577,0.36703,0.10114,-51.48132,31.67086,-154.08790
-0.45131,1.51514,-0.20374,2.93738,3.15198,-0.98659,-7.06055,-6.32000,-11.44310,38.81947,13.39166,13.92868,-0.86876,0.36925,0.30932,0.11502,22.88909,-13.02281,-138.31280
-0.40409,1.56439,-0.22895,3.42487,3.30011,-0.81847,-6.73956,-5.53790,-12.80824,42.70398,9.22221,15.22037,-0.82809,0.47883,0.25431,0.14253,81.12552,-37.69087,-108.95870
-0.34088,1.61472,-0.25201,4.17461,3.42324,-0.51874,-5.12834,-4.04617,-14.34211,51.00079,3.91585,24.02924,-0.75648,0.57880,0.22609,0.20398,119.43640,-49.46215,-73.11220
-0.26832,1.66486,-0.26025,4.80831,3.44852,-0.21946,-2.49138,-3.06840,-15.60918,55.30169,-2.65421,28.53788,-0.66722,0.65277,0.20171,0.29668,171.03220,-150.21880,-50.45982
-0.18294,1.71146,-0.24847,5.61651,3.32579,0.23876,0.61550,-2.56283,-17.09400,61.69202,-16.65799,37.22214,-0.54421,0.70971,0.17338,0.41241,127.93040,-208.86440,-60.76380
-0.07798,1.74630,-0.22641,6.35820,3.00750,0.74674,2.55812,-2.18312,-18.80511,64.17741,-37.22521,45.03695,-0.38861,0.76371,0.12794,0.49937,82.46471,-188.33230,-123.60100
0.05269,1.73235,-0.16743,7.46939,1.92080,1.71174,3.59899,0.64372,-22.27682,58.56768,-85.82486,58.45907,-0.13775,0.84175,0.09557,0.51318,148.43920,-8.17628,-181.97570
0.16835,1.67390,-0.09041,8.11157,0.45648,2.58902,6.14528,3.74107,-23.88207,30.46177,-124.49530,67.46313,0.11775,0.85220,0.11179,0.49739,254.67350,-82.63757,-176.96040
0.27271,1.59526,-0.01378,8.31414,-0.91495,3.21914,9.70788,5.05985,-24.24354,6.97943,-153.46210,60.98721,0.35528,0.78395,0.14172,0.48900,114.84360,-239.04240,-209.40580
0.32987,1.40678,0.08592,7.96831,-3.70978,4.00059,16.24826,5.09050,-24.04242,-54.03297,-195.59910,31.65934,0.60754,0.59458,0.22832,0.47458,1.47086,-240.69520,-319.79670
0.32680,1.18084,0.14969,6.71150,-6.54224,4.06584,22.53754,6.02672,-23.52598,-126.31320,-200.86480,-35.02507,0.81533,0.34480,0.30426,0.35182,1.10183,-100.82920,-384.24670
0.26065,0.96628,0.16016,4.75551,-8.66256,3.42169,31.63451,8.47603,-19.10299,-184.48650,-139.13150,-83.70672,0.89638,0.02491,0.43798,0.06376,232.47870,-128.23290,-605.51070
0.04812,0.81357,0.09013,1.14460,-10.16233,1.56559,45.40269,-0.68380,-8.43389,-193.83940,-31.72744,-112.17280,0.58859,-0.48415,0.60290,-0.23596,659.67880,499.81360,-909.83030
-0.08356,0.73735,0.03746,-0.89970,-9.88757,0.02094,42.26020,-10.66617,-9.69486,-154.78250,54.67681,-126.14120,0.34798,-0.73588,0.54540,-0.19980,521.33050,814.92860,-162.22910
-0.17916,0.68872,-0.02692,-2.06450,-8.90885,-1.08708,35.14326,-12.64948,-12.37999,-92.93893,122.63010,-93.06289,0.24380,-0.84005,0.46897,-0.12226,184.92830,774.16300,390.46210
-0.26763,0.75907,-0.10704,-2.79959,-6.52088,-1.79850,20.71689,-7.25200,-13.36864,1.31945,107.32290,8.03021,0.35930,-0.76327,0.52355,0.11923,-264.23600,592.36730,452.85680
-0.29280,0.77945,-0.13936,-2.59904,-5.39582,-1.46834,13.41580,-3.08187,-9.66648,24.51432,61.82321,37.99294,0.44753,-0.67923,0.55235,0.18239,-395.48150,354.74240,493.49820
-0.30148,0.78378,-0.15531,-2.33724,-4.85787,-1.03410,9.08891,-2.00260,-6.18628,23.10209,32.54485,42.21373,0.47855,-0.62031,0.59305,0.18573,-375.74460,126.41680,353.78380
0.04444,0.75600,-0.12092,-2.14042,-4.50934,-0.47761,4.21640,-2.90216,-3.97057,9.86556,15.16992,37.07177,0.44628,-0.54509,0.67868,0.20760,-389.06660,8.63283,124.31410
0.28486,0.71635,-0.06926,-2.09098,-4.27744,-0.02561,0.23265,-2.75810,-3.18473,-1.99910,18.79627,22.03607,0.41146,-0.47175,0.73469,0.26150,-344.13690,32.32327,-9.93687
0.38337,0.69278,-0.01591,-2.16789,-3.92169,0.30959,-2.33976,0.38741,-2.31541,-8.02998,26.77716,14.01012,0.45736,-0.38338,0.72852,0.33631,-152.55070,219.58670,27.98669
0.39682,0.67092,0.01347,-2.28199,-3.53339,0.45848,-2.98274,3.03293,-2.11217,-7.59577,29.67219,9.18132,0.50696,-0.33245,0.68927,0.39672,-35.27966,223.86040,-17.17236
0.38150,0.65322,0.03230,-2.40258,-3.12208,0.53455,-2.88119,3.94185,-2.40302,-7.35700,29.13526,5.97281,0.52626,-0.31355,0.65637,0.44036,13.46482,101.95720,-29.18146
0.35238,0.63844,0.04622,-2.51242,-2.73219,0.57700,-2.91845,3.07924,-2.96602,-6.65575,26.46344,2.77926,0.50281,-0.31550,0.65026,0.47414,-14.57141,-48.83124,-31.58518
0.31734,0.62639,0.05720,-2.59838,-2.37220,0.59263,-3.08723,2.47452,-2.74450,-13.61846,19.12077,0.72768,0.48745,-0.30205,0.65207,0.49595,-38.97903,-44.59407,1.38945
0.28081,0.61655,0.06603,-2.65059,-2.05018,0.58512,-2.99783,2.70312,-3.54075,-3.34116,23.85961,-1.16009,0.47698,-0.30044,0.62218,0.54325,-0.77273,-35.10684,-83.20485
0.25141,0.61490,0.07195,-2.66314,-1.73430,0.55598,-3.09323,2.13798,-3.56671,-0.41066,23.30420,-2.58146,0.45560,-0.29528,0.61650,0.57023,-9.81928,-30.05807,-3.41527
0.21581,0.61353,0.07612,-2.65044,-1.40317,0.50609,-2.94523,1.84852,-3.68941,1.10573,24.30099,-4.47682,0.43934,-0.29453,0.60355,0.59662,-3.75045,-31.41733,2.51993
0.18269,0.61733,0.07892,-2.60287,-1.06335,0.44688,-2.68963,1.66802,-3.86735,4.79843,24.14801,-4.14578,0.42539,-0.29734,0.58571,0.62256,13.74639,-19.00988,-15.22083
0.15315,0.62466,0.08094,-2.50952,-0.74082,0.38814,-2.41497,1.65583,-3.92473,7.73127,21.90987,-4.40908,0.41614,-0.29783,0.56595,0.64640,12.36165,-15.57159,-5.71927
0.12803,0.63307,0.08249,-2.37716,-0.46932,0.33883,-2.01805,2.17136,-3.96482,9.78876,17.32034,-3.22581,0.42088,-0.29175,0.53513,0.67185,31.03602,16.43505,-10.51242
0.10579,0.64061,0.08439,-2.22915,-0.26421,0.30453,-1.32489,3.03938,-4.07711,10.46216,13.14411,-2.14284,0.44060,-0.28414,0.49019,0.69632,53.97846,47.08456,-18.78599
0.08686,0.64929,0.08701,-2.05953,-0.08343,0.28610,-0.64280,3.59129,-4.27272,14.54563,12.86733,0.18960,0.45822,-0.28209,0.44227,0.71754,64.72453,29.95038,-35.21917
0.07414,0.65984,0.09003,-1.83754,0.08817,0.28010,-0.40663,3.48025,-4.20081,18.42416,10.63942,0.82273,0.46159,-0.28165,0.41129,0.73380,24.61254,-1.03093,-9.52028
0.06456,0.66830,0.09374,-1.61576,0.19341,0.28433,-0.58454,2.92400,-3.72537,19.95026,6.61179,1.49623,0.45365,-0.27893,0.40234,0.74466,-5.70750,-31.28454,29.53625
0.06751,0.67593,0.09892,-1.25329,0.26517,0.31096,-1.10911,2.21646,-2.53707,20.41509,1.64833,1.98694,0.44143,-0.26435,0.42124,0.74687,-26.90987,-33.93822,73.85545
0.06988,0.67945,0.10469,-0.96476,0.26431,0.34170,-1.31812,2.22821,-1.62833,19.64724,-1.27022,2.21208,0.44206,-0.24046,0.42692,0.75133,-10.26390,-1.67150,71.79025
0.07508,0.68067,0.11125,-0.69220,0.22947,0.37586,-1.24039,2.72704,-0.89895,18.14238,-3.08250,2.23577,0.45518,-0.20842,0.42264,0.75548,12.61332,31.56514,52.34848
0.08217,0.68062,0.11795,-0.44554,0.18213,0.40315,-0.96523,3.48609,-0.38591,16.57610,-3.21538,1.42615,0.47715,-0.17122,0.40859,0.75899,26.87241,53.41841,32.28112
0.09101,0.68041,0.12360,-0.22506,0.14303,0.41107,-0.68721,4.27284,-0.05879,14.68212,-2.41782,0.02930,0.50121,-0.13081,0.38831,0.76217,27.98472,58.81527,16.08648
0.10240,0.68047,0.12773,-0.00800,0.11560,0.39246,-0.44025,5.06985,0.10263,12.59652,-1.30139,-1.87851,0.52561,-0.08755,0.36181,0.76496,18.67842,51.21304,3.65451
0.11015,0.68142,0.13115,0.11015,0.10599,0.36596,-0.28890,5.51513,0.10556,11.24347,-0.67887,-3.16538,0.54450,-0.04978,0.33486,0.76740,14.14070,47.45664,-1.34595
0.12123,0.68263,0.13247,0.24939,0.10257,0.31593,-0.13613,5.93154,0.08227,9.37565,0.16834,-3.46022,0.56381,-0.01057,0.30455,0.76763,12.71761,37.90448,-10.21951
0.13287,0.68584,0.13257,0.37037,0.12976,0.25656,-0.46293,5.79174,0.44782,6.78207,2.93440,-4.13484,0.56726,0.02866,0.29440,0.76859,-8.28525,-4.50557,20.13097
0.14258,0.69094,0.13135,0.44165,0.17850,0.19016,-0.58529,5.84293,0.27025,3.94393,4.55542,-5.26492,0.57273,0.06193,0.26886,0.77192,-10.77654,-11.20285,20.11657
0.15215,0.69730,0.12909,0.49567,0.23456,0.12285,-0.73237,6.11304,-0.40811,2.95583,3.64436,-4.40018,0.57664,0.09211,0.22351,0.78041,-23.77346,20.95321,-35.39249
0.16141,0.70377,0.12652,0.53319,0.28073,0.06305,-0.97604,6.19885,-0.97336,3.45448,2.84680,-4.16347,0.57491,0.11913,0.17916,0.78942,-35.59323,10.64186,-39.38476
0.17114,0.71056,0.12267,0.57659,0.32548,-0.00227,-1.32206,5.95723,-1.02063,3.51951,2.49220,-4.21303,0.56657,0.14666,0.15142,0.79659,-24.29882,-11.39050,3.40036
0.18127,0.71725,0.11857,0.61618,0.35953,-0.06101,-1.55320,5.55885,-0.74628,3.18551,2.37977,-4.62700,0.55752,0.17391,0.13572,0.80031,-11.94278,-21.97289,24.68338
0.19186,0.72406,0.11377,0.65006,0.38748,-0.11796,-1.66273,5.16949,-0.42518,3.06299,2.33966,-5.09658,0.54915,0.20012,0.12433,0.80183,-1.98989,-29.06235,30.74725
0.20292,0.73155,0.10581,0.69288,0.42663,-0.20841,-1.69013,4.69157,0.05529,1.74533,2.26938,-4.74647,0.54037,0.22554,0.12237,0.80135,8.61230,-24.35803,31.91579
0.21313,0.73878,0.09926,0.70976,0.45142,-0.26260,-1.69771,4.47262,0.16802,1.05725,2.29095,-4.22413,0.53307,0.24977,0.10963,0.80089,5.90618,-18.52280,16.67923
0.22336,0.74684,0.09165,0.72211,0.48357,-0.32023,-1.75052,4.25853,0.21954,0.95769,2.44884,-3.96797,0.52401,0.27220,0.09628,0.80128,-0.97178,-14.65488,5.68262
0.23301,0.75522,0.08343,0.72766,0.51831,-0.37538,-1.81638,4.04859,0.32979,0.32425,2.56102,-3.94297,0.51331,0.29467,0.08536,0.80149,-1.89419,-13.98275,10.73759
0.24254,0.76373,0.07525,0.72745,0.54538,-0.41890,-1.85864,3.87792,0.39373,0.15330,2.16152,-3.44509,0.50256,0.31632,0.07375,0.80121,-1.55890,-13.52359,8.51715
0.25202,0.77284,0.06593,0.72550,0.57573,-0.46972,-1.86185,3.64472,0.53028,-0.00535,1.85211,-3.15056,0.49138,0.33647,0.06638,0.80058,1.83518,-13.54187,9.11406
0.26093,0.78160,0.05668,0.71936,0.60094,-0.51022,-1.81550,3.42354,0.74376,-0.15784,1.94625,-2.91039,0.48027,0.35716,0.06279,0.79865,6.62510,-13.65661,14.77427
0.26999,0.79072,0.04728,0.71437,0.62371,-0.54528,-1.79474,3.29135,0.89246,-0.58870,2.35971,-3.25328,0.46861,0.37841,0.05780,0.79616,8.84340,-11.17747,15.64169
0.27854,0.80051,0.03568,0.70287,0.65201,-0.60458,-1.66290,3.15760,0.75980,0.65796,1.34460,-2.84221,0.46242,0.39363,0.04739,0.79308,6.96571,-16.02864,-15.82245
0.28792,0.81016,0.02502,0.70709,0.67650,-0.63930,-1.72164,3.22695,1.03573,1.67341,1.63559,-1.72096,0.44758,0.42038,0.04257,0.78812,4.22857,2.90987,11.27129
0.29744,0.82013,0.01383,0.71036,0.69962,-0.67645,-1.69984,3.31682,1.24304,-0.42887,2.01659,-3.73021,0.43400,0.44753,0.03763,0.78099,-0.32164,13.37614,21.46452
0.30650,0.83080,0.00112,0.70386,0.72522,-0.72595,-1.61509,3.38012,1.37356,-0.52903,1.93540,-3.68155,0.42230,0.47311,0.03265,0.77250,7.16643,5.43515,7.43573
0.31483,0.84144,-0.01257,0.68984,0.75228,-0.78221,-1.52041,3.46950,1.50616,-0.97144,1.73379,-3.58001,0.41051,0.49962,0.02819,0.76228,6.61090,7.16133,6.30301
0.32316,0.85246,-0.02610,0.67430,0.77108,-0.82332,-1.44362,3.53465,1.60699,-1.43574,1.61320,-3.52833,0.39833,0.52548,0.02370,0.75143,7.35404,7.12998,5.24145
0.33047,0.86360,-0.04069,0.64850,0.79071,-0.87017,-1.35552,3.60966,1.67499,-2.11943,1.46156,-3.21744,0.38673,0.55113,0.01906,0.73914,8.13210,6.27371,3.83408
0.33651,0.87458,-0.05594,0.60830,0.80800,-0.91803,-1.30183,3.68968,1.70531,-2.88811,1.04653,-2.86609,0.37455,0.57651,0.01329,0.72607,3.66545,5.24037,1.61046
0.34195,0.88604,-0.07106,0.56444,0.81955,-0.95449,-1.29988,3.74988,1.67914,-3.48575,0.85748,-2.27806,0.36183,0.60049,0.00565,0.71306,1.19585,4.30842,-2.14421
0.34634,0.89810,-0.08626,0.51213,0.82933,-0.98315,-1.42814,3.78645,1.56198,-4.23480,0.68374,-1.59905,0.34715,0.62253,-0.00643,0.70136,-7.94128,2.50663,-4.52920
0.34955,0.91009,-0.10122,0.45332,0.83638,-1.00251,-1.59668,3.76941,1.43096,-4.25409,0.45697,-1.23376,0.33125,0.64239,-0.02015,0.69080,-15.17729,-2.19034,-5.78597
0.35174,0.92239,-0.11605,0.39123,0.84596,-1.01510,-1.63184,3.72453,1.45503,-4.55764,0.77021,-0.92796,0.31517,0.66260,-0.02871,0.67883,-5.29478,-3.76503,-1.00529
0.35258,0.93490,-0.13087,0.32197,0.85689,-1.02534,-1.69115,3.66511,1.50401,-5.17251,0.76356,-0.42684,0.29756,0.68199,-0.03671,0.66708,-0.04271,-3.45378,5.15273
0.35232,0.94730,-0.14540,0.25090,0.86373,-1.02914,-1.77890,3.58416,1.55420,-5.29458,0.07727,-0.07780,0.27842,0.70010,-0.04491,0.65599,-4.91401,-5.55127,7.08064
0.35112,0.95906,-0.15960,0.18066,0.85961,-1.02713,-1.91893,3.49661,1.51704,-5.07088,-0.56989,0.45298,0.25908,0.71618,-0.05616,0.64561,-7.35708,-6.95894,0.40284
0.34900,0.97015,-0.17337,0.11136,0.84646,-1.01912,-2.03662,3.39490,1.47773,-4.88503,-1.33973,0.64479,0.23964,0.73082,-0.06758,0.63553,-10.31303,-9.00220,0.36927
0.34667,0.98072,-0.18680,0.05409,0.82834,-1.00783,-2.05105,3.30250,1.45190,-4.75686,-1.79449,1.01908,0.22184,0.74487,-0.07703,0.62452,-3.27582,-7.79041,-0.01695
0.34232,0.98583,-0.19955,-0.01961,0.79159,-0.98516,-2.02345,3.15051,1.39677,-4.47972,-2.00609,1.70569,0.20580,0.75656,-0.08563,0.61476,2.06417,-9.21462,-2.70612
0.33852,0.98659,-0.21188,-0.07185,0.75564,-0.96124,-1.99582,2.99441,1.35945,-4.13115,-2.01425,2.10135,0.18974,0.76712,-0.09363,0.60561,2.96433,-11.78463,-1.94592
0.33396,0.98530,-0.22289,-0.12844,0.71393,-0.92874,-1.91313,2.79288,1.35303,-3.79485,-2.08085,2.23174,0.17458,0.77606,-0.09900,0.59787,4.32396,-14.34335,-0.47591
0.32823,0.99073,-0.23295,-0.18804,0.67853,-0.88859,-1.67163,2.57548,1.36817,-3.56392,-2.12951,2.48037,0.16290,0.78449,-0.09919,0.59008,14.51506,-12.83066,-0.27792
0.32235,0.99831,-0.24277,-0.23597,0.65041,-0.85148,-1.33953,2.40869,1.38529,-3.26837,-2.07525,2.55586,0.15390,0.79343,-0.09588,0.58103,22.57072,-10.05654,-1.16510
0.31583,1.00530,-0.25182,-0.28435,0.61882,-0.81006,-0.93834,2.28618,1.37479,-2.89077,-1.93586,2.69264,0.14819,0.80269,-0.08961,0.57070,27.26868,-5.69157,-3.73546
0.30969,1.01228,-0.26111,-0.31741,0.59376,-0.77982,-0.80731,2.18538,1.33517,-2.73943,-1.99040,2.86441,0.13938,0.81087,-0.08854,0.56145,18.05406,-5.77647,-5.26250
0.30274,1.01819,-0.26930,-0.35590,0.55755,-0.73910,-0.83990,2.02051,1.26161,-2.19858,-2.29951,2.64996,0.12915,0.81662,-0.09123,0.55509,-0.30965,-10.72371,-3.63275
0.29596,1.02380,-0.27725,-0.38406,0.52427,-0.70288,-0.92833,1.86922,1.19011,-1.91775,-2.40349,2.71604,0.11804,0.82161,-0.09573,0.54942,-4.85750,-11.20401,-3.54364
0.28902,1.02906,-0.28491,-0.40856,0.49036,-0.66676,-1.04812,1.70231,1.12812,-1.65740,-2.49877,2.67880,0.10627,0.82537,-0.10145,0.54515,-8.42865,-12.77557,-3.10149
0.28177,1.03350,-0.29171,-0.43272,0.45047,-0.62426,-1.14590,1.52919,1.06722,-1.42144,-2.68496,2.76786,0.09485,0.82822,-0.10734,0.54179,-6.67592,-11.62337,-2.15473
