posX, posY, posZ, velX, velY, velZ, angVelX, angVelY, angVelZ, accX, accY, accZ, rotX, rotY, rotZ, rotW, angAccX, angAccY, angAccZ
0.35840,1.22759,-0.35167,0.02362,0.24641,-0.21364,1.60227,0.32627,0.32741,-1.61049,2.08819,-3.37437,0.08633,0.70956,-0.03741,0.69834,26.24112,6.89821,3.68750
0.35738,1.23297,-0.35793,-0.00334,0.28241,-0.26975,1.94784,0.45334,0.40846,-1.88572,2.50411,-3.63728,0.09764,0.71473,-0.01951,0.69228,22.89675,7.62616,5.55392
0.35592,1.23904,-0.36511,-0.03341,0.32367,-0.33027,2.18151,0.59232,0.48179,-2.07181,2.87726,-3.91095,0.10793,0.72030,-0.00222,0.68521,16.62905,8.46415,5.56047
0.35423,1.24534,-0.37247,-0.05797,0.35723,-0.37882,2.26274,0.69781,0.49291,-2.20860,3.00063,-4.09998,0.11715,0.72547,0.01220,0.67810,8.73610,8.48604,3.34330
0.35167,1.25300,-0.38137,-0.09305,0.40761,-0.44306,2.34706,0.89295,0.52423,-2.24419,3.39731,-3.94168,0.12625,0.73261,0.02715,0.66829,4.37045,11.72804,2.40470
0.34708,1.26760,-0.39718,-0.12504,0.45669,-0.49294,2.50810,1.07141,0.55687,-2.52814,3.52863,-3.43945,0.14580,0.74442,0.05849,0.64897,9.27559,13.06575,4.72543
0.34296,1.27749,-0.40705,-0.16091,0.50840,-0.53565,2.76173,1.25409,0.56768,-2.82707,3.79133,-2.92539,0.16024,0.75224,0.07884,0.63423,16.08460,13.05244,2.23457
0.33773,1.28876,-0.41741,-0.20872,0.57299,-0.57819,3.04420,1.42146,0.60453,-3.42180,4.32269,-2.49060,0.17568,0.75961,0.10159,0.61791,18.48994,11.11909,2.39997
0.33175,1.30065,-0.42776,-0.25769,0.63370,-0.61200,3.18914,1.53005,0.64854,-3.79165,4.62400,-2.20399,0.18875,0.76597,0.12261,0.60218,12.71393,8.09510,3.31951
0.32465,1.31367,-0.43830,-0.31192,0.69761,-0.64173,3.25955,1.63318,0.70834,-4.06559,4.72967,-1.97416,0.20010,0.77232,0.14283,0.58573,6.00307,6.66792,4.50842
0.31621,1.32814,-0.44913,-0.37741,0.77223,-0.67006,3.29441,1.78378,0.80709,-4.30599,4.78320,-1.45457,0.20974,0.77968,0.16308,0.56702,3.24652,8.08566,7.60153
0.30726,1.34297,-0.45967,-0.43700,0.83682,-0.68798,3.21230,1.87439,0.88080,-4.49280,4.63080,-0.93380,0.21714,0.78642,0.18050,0.54938,-2.58381,5.92914,7.74054
0.29678,1.35904,-0.47009,-0.50728,0.90706,-0.70070,3.05179,1.96109,0.95924,-4.43166,4.26885,-0.56173,0.22214,0.79355,0.19563,0.53165,-10.29327,2.87274,6.93495
0.28611,1.37505,-0.48001,-0.56765,0.96335,-0.70271,3.00895,2.09255,1.04888,-4.35760,3.80832,0.04375,0.22820,0.80087,0.21269,0.51117,-4.70887,6.34966,8.40403
0.27469,1.39145,-0.48941,-0.62618,1.01287,-0.69581,2.98350,2.23282,1.11682,-4.30617,3.37515,0.91238,0.23454,0.80813,0.22947,0.48914,-0.90400,9.81230,7.73789
0.26225,1.40828,-0.49816,-0.69060,1.06120,-0.67945,2.84509,2.32795,1.15106,-4.11470,2.78795,1.35359,0.23919,0.81522,0.24293,0.46818,-7.93537,4.85572,4.73519
0.24995,1.42473,-0.50655,-0.73746,1.09174,-0.66068,2.75429,2.41012,1.17037,-3.97861,2.41023,1.80175,0.24425,0.82169,0.25634,0.44661,-9.23061,5.03163,4.10209
0.23646,1.44171,-0.51389,-0.79102,1.12226,-0.63013,2.68599,2.49083,1.19081,-3.93751,1.97847,2.53669,0.24918,0.82786,0.26953,0.42416,-5.12304,5.21104,3.59902
0.22202,1.45880,-0.52011,-0.84529,1.14576,-0.59037,2.63803,2.54819,1.21048,-3.90006,1.42774,3.20834,0.25392,0.83331,0.28273,0.40148,-4.11664,3.65428,2.84412
0.20654,1.47584,-0.52470,-0.90509,1.16369,-0.53280,2.64532,2.57944,1.23232,-3.70179,0.84047,3.95205,0.25894,0.83757,0.29702,0.37843,-0.02330,2.12644,1.48727
0.19123,1.49250,-0.52899,-0.94831,1.17132,-0.48340,2.68743,2.60094,1.24492,-3.55170,0.48328,4.20635,0.26437,0.84073,0.31199,0.35490,3.01826,1.36612,0.90766
0.17507,1.50900,-0.53181,-0.99492,1.17474,-0.42285,2.71822,2.63994,1.27296,-3.18084,0.02673,4.54643,0.26924,0.84360,0.32676,0.33026,3.34367,3.06939,2.40951
0.15833,1.52507,-0.53311,-1.04106,1.17084,-0.35058,2.70267,2.64861,1.28637,-2.74675,-0.48328,4.58004,0.27342,0.84590,0.34029,0.30642,-0.89488,0.09674,1.38683
0.14169,1.54072,-0.53394,-1.07610,1.16135,-0.28573,2.69004,2.68800,1.29519,-2.35361,-0.86713,4.80173,0.27772,0.84788,0.35319,0.28149,-1.30324,2.23229,1.26511
0.12515,1.55596,-0.53427,-1.10163,1.14860,-0.22738,2.66833,2.69853,1.29893,-2.00030,-1.27273,5.11757,0.28160,0.84909,0.36566,0.25698,-0.73828,2.17262,1.40987
0.10829,1.57045,-0.53292,-1.12641,1.12723,-0.15635,2.60136,2.65130,1.27904,-1.63391,-1.84884,5.30894,0.28486,0.84962,0.37682,0.23453,-3.42742,-2.18339,-0.49773
0.09121,1.58377,-0.52942,-1.14885,1.08999,-0.06554,2.42889,2.49236,1.23067,-0.81028,-2.35675,4.99716,0.28656,0.84988,0.38554,0.21665,-9.25569,-9.34639,-2.34538
0.07486,1.59687,-0.52624,-1.15470,1.05549,0.00159,2.30380,2.36341,1.17680,-0.13568,-2.64574,4.61015,0.28861,0.84956,0.39425,0.19880,-9.94263,-9.46733,-3.28427
0.05883,1.60955,-0.52295,-1.15402,1.02270,0.05409,2.21288,2.29470,1.12289,0.16871,-2.87931,4.11979,0.29124,0.84893,0.40252,0.18021,-8.12817,-7.68986,-4.43470
0.04312,1.62084,-0.51830,-1.14748,0.97440,0.11591,2.12760,2.23603,1.04183,0.60098,-3.19246,3.47674,0.29461,0.84779,0.41002,0.16227,-5.86814,-3.98722,-4.54801
0.02777,1.63170,-0.51382,-1.13629,0.92949,0.16099,2.08698,2.25763,0.96656,0.93365,-3.28682,2.84563,0.29910,0.84622,0.41734,0.14243,-4.12376,-0.14284,-4.69100
0.01292,1.64184,-0.50913,-1.11976,0.88311,0.19935,2.05829,2.36541,0.89949,1.37257,-3.38416,2.54127,0.30474,0.84452,0.42363,0.12022,-3.11062,6.50769,-3.99172
-0.00140,1.65118,-0.50414,-1.09858,0.83509,0.23398,1.97982,2.44707,0.84751,1.79272,-3.63260,2.58476,0.31000,0.84306,0.42834,0.09840,-3.95328,8.93942,-2.10621
-0.01513,1.65970,-0.49886,-1.07243,0.78470,0.26506,1.73281,2.37780,0.78746,2.19427,-3.81957,2.23814,0.31321,0.84311,0.42936,0.08200,-15.46246,-3.00407,-1.66705
-0.02833,1.66782,-0.49356,-1.04448,0.74017,0.28944,1.48934,2.28623,0.72449,2.48223,-3.75167,1.88936,0.31614,0.84344,0.42909,0.06749,-21.33836,-8.82369,-2.84542
-0.04051,1.67473,-0.48792,-1.00730,0.68707,0.31460,1.23623,2.21923,0.61978,2.70769,-3.84024,1.57966,0.32034,0.84403,0.42667,0.05433,-19.90601,-6.42649,-3.62144
-0.05153,1.68043,-0.48181,-0.95920,0.62581,0.34206,1.13243,2.31498,0.47441,2.99212,-3.66655,1.54319,0.32831,0.84280,0.42487,0.03720,-10.86751,3.54666,-7.01184
-0.06259,1.68631,-0.47566,-0.92267,0.58081,0.36414,1.21098,2.49473,0.34374,2.84047,-3.54412,1.72331,0.33850,0.83889,0.42596,0.01582,0.08423,13.56361,-9.73428
-0.07302,1.69121,-0.46917,-0.88412,0.53129,0.39033,1.38922,2.76184,0.23724,2.80305,-3.44816,2.00969,0.35056,0.83270,0.42850,-0.01020,10.34721,20.58447,-9.18577
-0.08298,1.69555,-0.46223,-0.84641,0.48359,0.41768,1.47230,2.90043,0.13970,2.91918,-3.59895,2.33857,0.36178,0.82642,0.43012,-0.03371,8.62656,15.26631,-7.14499
-0.09188,1.69866,-0.45441,-0.79919,0.42512,0.45209,1.20143,2.69148,0.08541,2.79485,-3.30840,2.13981,0.36807,0.82482,0.42672,-0.04594,-14.00313,-8.67451,-1.57429
-0.10127,1.70238,-0.44680,-0.77045,0.38902,0.47394,0.98457,2.52901,0.08616,2.15486,-2.66099,1.51270,0.37308,0.82370,0.42302,-0.05824,-22.54652,-19.90686,1.14809
-0.10987,1.70554,-0.43869,-0.73579,0.35251,0.49840,0.93655,2.53365,0.10630,2.45621,-2.26766,1.66289,0.37911,0.82075,0.42067,-0.07531,-6.66458,-2.20636,1.57383
-0.11799,1.70841,-0.43023,-0.70125,0.31970,0.52361,0.94409,2.55134,0.14424,2.48553,-2.34554,1.91638,0.38462,0.81708,0.41916,-0.09359,0.93898,1.90578,2.30864
-0.12537,1.71058,-0.42115,-0.66125,0.28255,0.55472,0.97363,2.51442,0.18950,2.75133,-2.32123,2.03595,0.38893,0.81312,0.41863,-0.11103,1.73514,-1.46228,2.79674
-0.13257,1.71282,-0.41205,-0.62766,0.25496,0.57846,0.98057,2.45568,0.20289,2.98156,-2.44900,2.03640,0.39332,0.80895,0.41798,-0.12724,2.26830,-3.93932,0.83766
-0.13874,1.71429,-0.40256,-0.58538,0.22170,0.60323,0.92301,2.32295,0.20337,3.34141,-2.50094,1.65907,0.39689,0.80565,0.41679,-0.14035,-2.11109,-8.25025,0.36313
-0.14367,1.71511,-0.39309,-0.53045,0.18507,0.62401,0.77708,2.13832,0.18309,3.62204,-2.26734,1.16206,0.40025,0.80364,0.41408,-0.15000,-8.57320,-11.37848,-0.84498
-0.14893,1.71635,-0.38389,-0.49502,0.16374,0.63413,0.67551,2.01235,0.17133,3.61861,-2.07111,0.98383,0.40362,0.80142,0.41131,-0.16012,-10.88110,-12.08931,0.08513
-0.15244,1.71655,-0.37430,-0.43910,0.13139,0.64925,0.58065,1.85907,0.13248,3.27803,-1.83951,0.90407,0.40705,0.79930,0.40889,-0.16806,-7.92646,-11.09102,-2.00730
-0.15621,1.71667,-0.36480,-0.39653,0.10505,0.66214,0.62165,1.79220,0.09122,2.89994,-1.64799,0.93682,0.41093,0.79512,0.40867,-0.17863,0.00419,-5.56099,-2.87352
-0.15937,1.71644,-0.35516,-0.35246,0.07846,0.67426,0.76104,1.78670,0.05213,2.71792,-1.54003,0.58635,0.41496,0.78905,0.41049,-0.19158,8.07964,-1.09487,-3.09907
-0.16202,1.71632,-0.34547,-0.31445,0.05854,0.68053,0.92929,1.84871,-0.01942,2.58555,-1.21820,0.34311,0.42035,0.78118,0.41292,-0.20630,9.83146,3.39238,-5.25001
-0.16455,1.71585,-0.33586,-0.28348,0.03781,0.68404,1.09408,1.83391,-0.29351,2.56203,-1.77576,0.22269,0.42993,0.77017,0.41809,-0.21728,14.76278,3.07644,-13.81944
-0.16627,1.71559,-0.32690,-0.24594,0.02551,0.67607,1.07655,1.95802,-0.07432,2.89858,-0.59566,-0.76653,0.43136,0.76544,0.41555,-0.23525,2.04314,11.73364,22.55977
-0.16765,1.71526,-0.31843,-0.20957,0.01453,0.66268,0.93742,1.82114,0.00966,2.12343,-0.93173,-0.75044,0.43293,0.76256,0.41361,-0.24497,-6.86566,-7.09634,5.22784
-0.16935,1.71484,-0.30982,-0.18748,0.00448,0.65379,0.83608,1.68600,0.09036,1.78796,-0.70268,-0.70570,0.43368,0.76002,0.41198,-0.25411,-9.68397,-12.12728,6.84427
-0.17056,1.71427,-0.30130,-0.16344,-0.00573,0.64522,0.77191,1.55113,0.16753,1.59767,-0.66798,-0.49646,0.43353,0.75771,0.41092,-0.26280,-4.40804,-10.21883,5.53980
-0.17168,1.71345,-0.29276,-0.14116,-0.01742,0.64002,0.79084,1.42013,0.23589,1.28295,-0.60367,-0.21197,0.43240,0.75477,0.41166,-0.27182,0.09527,-9.06307,3.61040
-0.17287,1.71269,-0.28410,-0.12586,-0.02581,0.63731,0.85532,1.35074,0.26184,1.27775,-0.66011,-0.24550,0.43180,0.75054,0.41326,-0.28188,5.18924,-6.52634,2.65541
-0.17363,1.71169,-0.27559,-0.10805,-0.03599,0.63237,0.93870,1.28802,0.27271,1.30845,-0.80572,-0.45747,0.43094,0.74573,0.41581,-0.29203,6.27536,-4.20256,0.13084
-0.17405,1.71042,-0.26752,-0.08829,-0.04882,0.62098,0.95565,1.16451,0.29586,1.37036,-0.93107,-0.92502,0.42916,0.74226,0.41810,-0.30011,2.54114,-6.97564,1.22781
-0.17444,1.70915,-0.25969,-0.07294,-0.05857,0.60831,0.91952,1.03153,0.31185,1.33514,-0.85657,-1.11475,0.42733,0.73972,0.41975,-0.30661,-1.48942,-10.03993,1.03843
-0.17581,1.70768,-0.25217,-0.06043,-0.07027,0.59282,0.85430,0.86079,0.34425,0.97084,-0.88019,-1.25080,0.42446,0.73858,0.42130,-0.31120,-4.01558,-12.75582,1.66355
-0.18070,1.70619,-0.24482,-0.05616,-0.08233,0.57663,0.79398,0.72197,0.35569,0.92223,-0.81956,-1.23454,0.42183,0.73752,0.42283,-0.31518,-3.84433,-9.43781,1.28402
-0.18447,1.70454,-0.23740,-0.05420,-0.09262,0.56513,0.77108,0.64755,0.34002,0.78300,-0.89315,-1.17612,0.41997,0.73548,0.42465,-0.31993,-2.73650,-6.84227,-1.21056
-0.18558,1.70252,-0.23042,-0.04588,-0.10501,0.55004,0.80589,0.63903,0.28796,0.54855,-0.78275,-1.11086,0.41915,0.73174,0.42732,-0.32598,0.88351,-2.48050,-3.07172
-0.18560,1.70022,-0.22376,-0.03577,-0.11902,0.53355,0.89393,0.69488,0.23205,0.64728,-0.98169,-0.96963,0.41889,0.72628,0.43061,-0.33409,5.50008,4.92415,-3.84491
-0.18577,1.69781,-0.21701,-0.03040,-0.13145,0.52222,0.91827,0.65943,0.21020,0.49801,-1.23934,-0.98947,0.41754,0.72235,0.43377,-0.34018,4.02207,-0.06116,-3.13804
-0.18593,1.69501,-0.21066,-0.02599,-0.14734,0.50718,0.88349,0.57166,0.21020,0.30913,-1.21833,-1.17656,0.41552,0.71995,0.43635,-0.34440,-1.61868,-5.71869,-0.24369
-0.18607,1.69185,-0.20489,-0.02249,-0.16558,0.48583,0.81735,0.47341,0.20813,0.11709,-1.12949,-1.54924,0.41355,0.71832,0.43848,-0.34745,-3.84361,-5.94168,-0.82702
-0.18635,1.68868,-0.19973,-0.02192,-0.18022,0.45819,0.69544,0.36474,0.24072,0.00244,-0.78665,-1.86094,0.41115,0.71831,0.43918,-0.34944,-7.12297,-6.78239,1.71585
-0.18672,1.68570,-0.19462,-0.02302,-0.18837,0.43648,0.61741,0.29240,0.26466,-0.32227,-0.54610,-1.85755,0.40872,0.71803,0.44003,-0.35180,-7.77212,-7.60603,2.26893
-0.18732,1.68269,-0.19019,-0.02771,-0.19470,0.40877,0.53921,0.29320,0.30139,-0.52237,-0.26093,-2.09770,0.40676,0.71769,0.43959,-0.35529,-5.82971,-2.75117,2.81889
-0.18795,1.67983,-0.18627,-0.03191,-0.19714,0.37904,0.50249,0.41134,0.32012,-0.38281,-0.07678,-2.10474,0.40629,0.71568,0.43826,-0.36148,-3.39369,6.89384,1.84707
-0.18863,1.67700,-0.18278,-0.03581,-0.19857,0.34917,0.46901,0.54206,0.32742,-0.20039,-0.10635,-2.20765,0.40657,0.71311,0.43638,-0.36844,-1.69430,10.62039,0.82869
-0.18931,1.67427,-0.17968,-0.03879,-0.19792,0.31971,0.39353,0.60598,0.35776,-0.00641,0.07153,-2.05462,0.40637,0.71186,0.43360,-0.37431,-4.86881,5.62505,2.00898
-0.18985,1.67164,-0.17686,-0.03874,-0.19577,0.29236,0.32690,0.63422,0.35423,0.05218,0.33233,-1.92603,0.40655,0.71064,0.43114,-0.37923,-5.72568,1.70603,0.92563
-0.19024,1.66919,-0.17416,-0.03617,-0.19126,0.26990,0.30728,0.71014,0.34273,0.30085,0.49463,-1.81458,0.40730,0.70824,0.42875,-0.38558,-2.92815,4.73767,-0.73512
-0.19025,1.66700,-0.17210,-0.02804,-0.18347,0.24215,0.26783,0.75389,0.29112,0.72366,0.43060,-1.73865,0.40907,0.70570,0.42649,-0.39084,-1.51259,4.66887,-3.16316
-0.19019,1.66494,-0.17015,-0.02065,-0.17521,0.21844,0.16382,0.68248,0.28047,0.60528,0.62178,-1.71236,0.40966,0.70569,0.42368,-0.39328,-6.05559,-4.04983,-1.43984
-0.19004,1.66306,-0.16827,-0.01343,-0.16603,0.19944,0.07380,0.62393,0.27626,0.57357,0.92086,-1.43260,0.41021,0.70600,0.42059,-0.39548,-8.95803,-6.51913,1.08417
-0.18963,1.66161,-0.16668,-0.00364,-0.15178,0.18013,0.04973,0.64578,0.22610,0.41152,1.13441,-0.97589,0.41210,0.70436,0.41817,-0.39899,-3.05647,-0.25262,-3.20421
-0.18932,1.66042,-0.16490,0.00235,-0.13642,0.16799,0.10769,0.73694,0.18214,0.33840,1.23989,-0.75014,0.41415,0.70069,0.41652,-0.40501,3.18998,6.30821,-3.40916
-0.18896,1.65947,-0.16301,0.00770,-0.12086,0.16078,0.17201,0.79711,0.15525,0.58720,1.35476,-0.48826,0.41567,0.69689,0.41531,-0.41119,5.04315,6.43140,-2.30685
-0.18823,1.65915,-0.16101,0.01814,-0.09845,0.15704,0.25827,0.75194,0.13245,0.82884,1.15653,-0.05507,0.41567,0.69366,0.41603,-0.41591,4.60184,-1.56903,-1.63518
-0.18725,1.65867,-0.15883,0.03049,-0.08361,0.15827,0.31285,0.65248,0.09929,1.05812,0.93696,0.19506,0.41530,0.69123,0.41741,-0.41891,3.87697,-6.49941,-1.97139
-0.18594,1.65820,-0.15662,0.04559,-0.07273,0.16127,0.36918,0.51902,0.05589,1.25308,0.64417,0.21353,0.41445,0.68905,0.42003,-0.42073,4.33985,-7.62688,-4.01717
-0.18453,1.65776,-0.15442,0.05837,-0.06386,0.16301,0.36374,0.31198,0.04765,1.15152,0.63177,0.10132,0.41234,0.68910,0.42269,-0.42005,1.09100,-13.67795,-2.29991
-0.18282,1.65759,-0.15218,0.07392,-0.05225,0.16512,0.35889,0.04475,0.05519,0.88200,0.84163,0.28782,0.40854,0.69078,0.42648,-0.41718,-1.83788,-18.49179,0.62594
-0.18101,1.65742,-0.14992,0.08812,-0.04343,0.16816,0.44633,-0.06349,0.00229,0.90963,0.67866,0.32572,0.40601,0.68936,0.43162,-0.41671,4.80133,-9.95972,-3.28729
-0.17913,1.65725,-0.14756,0.09986,-0.03664,0.17124,0.56118,-0.10389,-0.05890,0.96623,0.59451,0.30498,0.40383,0.68647,0.43751,-0.41745,8.65524,-3.31916,-4.74398
-0.17713,1.65716,-0.14516,0.11128,-0.02995,0.17419,0.66789,-0.18931,-0.10998,0.85200,0.27484,0.09056,0.40078,0.68386,0.44456,-0.41723,9.02195,-4.50992,-4.63761
-0.17511,1.65706,-0.14314,0.12202,-0.02483,0.17213,0.70386,-0.36950,-0.14135,0.81045,0.22559,-0.30463,0.39662,0.68331,0.45191,-0.41420,3.38281,-10.46399,-2.59856
-0.17294,1.65705,-0.14134,0.13206,-0.01943,0.16525,0.66739,-0.54611,-0.16685,0.67865,0.44766,-0.57237,0.39273,0.68407,0.45833,-0.40957,-2.63340,-13.85311,-1.92938
-0.17047,1.65719,-0.13952,0.14260,-0.01257,0.15717,0.64664,-0.59502,-0.20595,0.76225,0.73401,-0.62956,0.39026,0.68346,0.46411,-0.40642,-2.85577,-8.32161,-3.24698
-0.16739,1.65762,-0.13792,0.16098,-0.00243,0.14750,0.71799,-0.46372,-0.32880,1.17414,0.76758,-0.46060,0.39083,0.67852,0.47078,-0.40648,3.54701,6.64888,-6.30975
-0.16392,1.65813,-0.13614,0.18203,0.00688,0.14280,0.81341,-0.29852,-0.45952,1.82328,0.64277,-0.14802,0.39247,0.67174,0.47788,-0.40788,7.40332,13.17818,-7.68664
-0.16000,1.65858,-0.13412,0.20507,0.01260,0.14350,0.89853,-0.20883,-0.59719,2.19267,0.30578,0.21328,0.39426,0.66462,0.48610,-0.40811,7.81297,9.67087,-10.15681
-0.15501,1.65891,-0.13175,0.24081,0.01527,0.14970,0.98997,-0.19969,-0.82017,2.52516,0.11121,0.41155,0.39725,0.65626,0.49688,-0.40574,6.82313,2.99209,-13.87881
-0.14938,1.65936,-0.12921,0.28007,0.01943,0.15766,1.04617,-0.26798,-1.04691,2.55826,0.32332,0.60234,0.40021,0.64838,0.50872,-0.40080,3.34179,-4.28564,-13.89902
-0.14337,1.65986,-0.12649,0.31706,0.02331,0.16678,1.13605,-0.27286,-1.26220,2.67131,0.39316,0.72633,0.40391,0.63867,0.52121,-0.39661,6.01549,-0.86205,-15.41346
-0.13700,1.66048,-0.12365,0.35078,0.02844,0.17582,1.23939,-0.23643,-1.45498,2.89465,0.52393,0.87561,0.40824,0.62737,0.53415,-0.39297,8.11490,1.68147,-15.84887
-0.12928,1.66119,-0.12030,0.39940,0.03379,0.19143,1.42613,-0.18603,-1.73864,3.30756,0.18795,1.11059,0.41403,0.61216,0.55013,-0.38884,13.20666,5.91247,-17.23759
-0.12167,1.66182,-0.11672,0.43450,0.03657,0.20716,1.47708,-0.34875,-1.93600,3.14991,-0.02330,1.32468,0.41735,0.60058,0.56635,-0.37996,7.99236,-5.52596,-18.00248
-0.11344,1.66241,-0.11253,0.47121,0.03784,0.22916,1.48257,-0.65004,-2.13056,2.38242,0.01920,1.73181,0.41880,0.59076,0.58434,-0.36627,-2.54242,-20.25591,-16.56810
-0.10489,1.66285,-0.10769,0.50509,0.03633,0.25753,1.52679,-0.97853,-2.30950,1.98710,-0.07796,1.85771,0.41839,0.58057,0.60409,-0.35067,0.66327,-19.68191,-13.08702
-0.09644,1.66323,-0.10278,0.52923,0.03417,0.28013,1.60039,-1.16552,-2.43171,1.89567,-0.19768,2.02877,0.41791,0.56883,0.62324,-0.33669,1.66546,-18.12622,-11.92160
-0.08740,1.66319,-0.09720,0.55744,0.02541,0.30846,1.78055,-1.28855,-2.57997,1.97798,-0.84935,2.10129,0.41691,0.55349,0.64444,-0.32331,10.61101,-10.58544,-10.41089
-0.07801,1.66255,-0.09121,0.58461,0.00854,0.33680,1.97122,-1.40599,-2.75096,1.81593,-1.50919,1.96002,0.41550,0.53606,0.66679,-0.30885,13.58423,-8.91782,-12.08794
-0.06863,1.66120,-0.08499,0.60525,-0.01629,0.36232,2.11651,-1.54851,-2.89044,1.28062,-2.16826,1.64742,0.41287,0.51843,0.68914,-0.29300,11.13736,-9.59012,-10.72081
-0.05945,1.65938,-0.07883,0.61759,-0.04247,0.38071,2.16099,-1.72276,-3.00687,0.93880,-2.45155,1.33008,0.40937,0.50202,0.71058,-0.27471,5.13612,-12.88017,-10.36378
-0.05032,1.65658,-0.07252,0.62615,-0.07851,0.39697,2.19119,-1.92373,-3.13366,0.32415,-2.83850,0.96036,0.40459,0.48524,0.73233,-0.25405,0.31828,-13.60995,-11.38156
-0.04140,1.65261,-0.06626,0.62936,-0.12575,0.40889,2.17740,-2.13592,-3.31677,0.12434,-3.16497,0.54896,0.39971,0.46792,0.75388,-0.23010,-0.92999,-11.89621,-11.81425
-0.03278,1.64816,-0.06016,0.62684,-0.17092,0.41552,2.14478,-2.30325,-3.51559,-0.60161,-3.37887,0.37686,0.39518,0.44970,0.77450,-0.20435,-2.50723,-9.93414,-16.48807
-0.02484,1.64262,-0.05407,0.61329,-0.22463,0.42079,2.11452,-2.44156,-3.71581,-1.11524,-3.31134,0.28660,0.39046,0.43046,0.79427,-0.17712,-2.80533,-7.26453,-14.30577
-0.01724,1.63670,-0.04803,0.59698,-0.27272,0.42382,2.21956,-2.46500,-3.85893,-1.56205,-3.28720,0.30237,0.38578,0.40745,0.81356,-0.15254,4.49114,-2.91887,-10.86961
-0.01030,1.63009,-0.04200,0.57325,-0.32128,0.42605,2.49808,-2.42406,-3.89303,-2.11055,-3.35128,0.17226,0.37954,0.37992,0.83311,-0.13241,17.95428,-1.55186,-2.41640
-0.00414,1.62277,-0.03604,0.54154,-0.37015,0.42631,2.78750,-2.41629,-3.85659,-2.56608,-3.68637,-0.15138,0.37101,0.35072,0.85225,-0.11410,21.82508,-4.45448,5.73307
0.00125,1.61509,-0.03030,0.50536,-0.41288,0.42314,2.91578,-2.47584,-3.83416,-3.25169,-3.85207,-0.49786,0.36111,0.32332,0.86964,-0.09374,14.18255,-6.44876,4.57634
0.00483,1.60591,-0.02497,0.44668,-0.47100,0.41348,2.87140,-2.61977,-4.00543,-3.88038,-3.91168,-0.95417,0.35101,0.29690,0.88560,-0.06597,-1.44715,-7.20033,-9.61380
0.00804,1.59668,-0.02002,0.39592,-0.51598,0.39987,2.81262,-2.67940,-4.23183,-4.61093,-3.76624,-1.42650,0.34256,0.26933,0.89935,-0.03585,-5.38752,-2.46619,-19.25136
0.00960,1.58638,-0.01582,0.33040,-0.56762,0.37706,2.85258,-2.69414,-4.49666,-4.84078,-3.43444,-1.73718,0.33465,0.23786,0.91182,-0.00438,3.33504,1.15354,-20.18256
0.00975,1.57523,-0.01243,0.25537,-0.62219,0.34561,3.06242,-2.66500,-4.72171,-4.91413,-3.12928,-2.14940,0.32654,0.20094,0.92323,0.02537,14.48631,0.90419,-12.96472
0.00975,1.56436,-0.00938,0.19544,-0.65937,0.31597,3.31634,-2.65542,-4.78628,-5.35716,-2.75102,-2.67690,0.31630,0.16232,0.93325,0.05145,19.27796,-2.65423,-6.11375
0.00787,1.55289,-0.00759,0.11938,-0.69697,0.27257,3.67581,-2.69610,-4.71745,-5.72274,-2.32555,-3.42758,0.30300,0.11997,0.94259,0.07294,23.12893,-9.50724,5.46332
0.00411,1.54126,-0.00744,0.02823,-0.72904,0.21111,4.11709,-2.81568,-4.47058,-5.79268,-1.47702,-4.14942,0.28556,0.07485,0.95136,0.08811,21.25801,-16.74593,14.65578
-0.00014,1.53009,-0.00818,-0.05085,-0.74624,0.14817,4.54212,-3.00767,-4.15161,-5.64126,-0.73151,-4.71780,0.26443,0.02830,0.95886,0.09934,20.72175,-24.65849,21.15593
-0.00467,1.51938,-0.00964,-0.11487,-0.75149,0.08920,4.90763,-3.24300,-3.81731,-5.16844,0.06005,-5.06665,0.24001,-0.01911,0.96461,0.10754,19.69785,-32.33121,23.90032
-0.01140,1.50960,-0.01387,-0.20199,-0.73923,-0.00418,5.43215,-3.72854,-3.22743,-4.75893,1.66456,-5.23777,0.20614,-0.07109,0.97026,0.10512,16.52530,-39.23018,25.96269
-0.01791,1.50111,-0.01821,-0.26718,-0.70704,-0.07948,5.74866,-4.29912,-2.66546,-4.74737,3.21159,-5.41654,0.16687,-0.12038,0.97344,0.10043,8.74740,-51.41557,27.50155
-0.02438,1.49343,-0.02255,-0.31380,-0.67006,-0.13451,5.89332,-4.80769,-2.25620,-4.68563,4.29865,-5.45693,0.12462,-0.16735,0.97330,0.09569,0.37112,-60.84084,24.25298
-0.03308,1.48890,-0.02949,-0.38607,-0.58941,-0.21889,5.89580,-5.74799,-1.67774,-4.42175,5.74118,-5.10308,0.06582,-0.21042,0.97189,0.08255,-12.20433,-66.90315,13.00588
-0.04191,1.48590,-0.03641,-0.44457,-0.50087,-0.28451,5.57798,-6.56152,-1.35774,-3.73617,6.51997,-4.85872,0.00404,-0.24489,0.96676,0.07334,-26.91912,-64.06364,-3.64843
-0.05039,1.48349,-0.04343,-0.48179,-0.42448,-0.33497,5.17303,-6.84224,-1.35068,-2.35737,5.80137,-4.94173,-0.04924,-0.27440,0.95769,0.07156,-34.69417,-42.46663,-19.64142
-0.05980,1.48507,-0.05222,-0.52696,-0.29896,-0.40361,4.36079,-7.25578,-1.45219,-3.06537,9.72972,-4.13682,-0.10872,-0.28920,0.94828,0.07291,-41.25082,-8.13966,-34.13046
-0.06929,1.48906,-0.06169,-0.56377,-0.16114,-0.46941,3.57402,-7.85084,-1.50053,-2.30851,10.43137,-4.99575,-0.17589,-0.29843,0.93545,0.07031,-51.39866,-32.37321,-37.37408
-0.07858,1.49457,-0.07201,-0.58762,-0.03208,-0.53245,2.94846,-8.34250,-1.63179,-1.64219,11.41490,-5.56128,-0.24433,-0.30563,0.91771,0.06863,-42.67659,-30.47034,-42.34306
-0.08751,1.50584,-0.08516,-0.59949,0.16300,-0.62784,2.09380,-9.12280,-1.86461,0.02894,13.23446,-6.24327,-0.32438,-0.30071,0.89444,0.06573,-39.03201,-38.16555,-46.32257
-0.09532,1.51790,-0.09848,-0.59032,0.32566,-0.70384,1.34404,-9.64634,-2.16215,1.78925,14.36404,-6.77355,-0.40137,-0.29079,0.86614,0.06438,-41.45120,-39.23333,-55.62340
-0.10105,1.53701,-0.11475,-0.54820,0.56786,-0.81124,0.30090,-9.84474,-2.86355,4.49200,16.29515,-7.50980,-0.47512,-0.26300,0.83648,0.07342,-32.36599,-9.99906,-72.37978
-0.10411,1.55945,-0.13241,-0.47031,0.81315,-0.91880,-0.47260,-9.59966,-3.65768,7.70335,19.13368,-8.46772,-0.53745,-0.23200,0.80571,0.09031,-13.28941,18.97508,-77.97540
-0.10310,1.58759,-0.15263,-0.34188,1.09659,-1.04430,-1.15161,-9.33198,-4.66015,12.29517,21.38869,-10.45870,-0.59723,-0.19191,0.77012,0.11577,3.07348,27.64437,-109.62170
-0.09508,1.62309,-0.17610,-0.12598,1.43787,-1.19440,-1.49641,-9.13853,-5.28686,18.52032,27.07349,-11.18494,-0.65225,-0.15706,0.72900,0.13588,4.56281,11.65289,-15.48783
-0.07573,1.66938,-0.20331,0.23734,1.88756,-1.37482,-2.15205,-9.53527,-5.94237,26.60376,31.05356,-10.65965,-0.71560,-0.10924,0.67351,0.14953,-11.87584,-18.92477,-41.88945
-0.05222,1.71644,-0.22939,0.58253,2.24137,-1.49242,-2.83645,-10.04561,-6.87066,31.42447,29.02891,-8.60557,-0.77767,-0.04897,0.60442,0.16584,-28.17337,-32.10719,-89.66138
-0.01197,1.77383,-0.25605,1.13264,2.68690,-1.59109,-3.24628,-10.01818,-8.53613,39.07626,25.85173,-3.30140,-0.82373,0.02803,0.52863,0.20306,17.51762,-28.44480,-102.59500
0.03733,1.83136,-0.27898,1.71541,3.03444,-1.60274,-2.83117,-9.34149,-10.10788,47.13980,23.01911,2.50336,-0.84564,0.09883,0.45684,0.25774,87.48598,-23.85646,-86.44868
0.09628,1.88877,-0.29708,2.31313,3.29133,-1.52955,-2.04581,-8.30966,-11.34669,54.34666,18.92163,10.38814,-0.84674,0.16553,0.39167,0.31975,124.27700,-5.74042,-58.88344
0.14386,1.92900,-0.30004,3.21006,3.51056,-1.28511,-0.47655,-6.79729,-12.45504,59.10853,8.31214,21.11911,-0.82106,0.22461,0.33853,0.40101,151.48710,-13.92221,-23.43013
0.19421,1.96688,-0.29532,4.03702,3.55398,-0.93010,0.79338,-5.61989,-13.27431,59.99229,-1.31451,29.38473,-0.78367,0.28324,0.28304,0.47489,146.56060,-16.86488,-7.35058
0.25142,2.00059,-0.28431,4.74810,3.46635,-0.52902,1.19065,-4.60933,-14.15333,60.54082,-10.96336,36.65959,-0.73653,0.35603,0.22241,0.53037,111.77130,0.74116,-31.27884
0.31206,2.02265,-0.26023,5.56983,3.20394,0.04236,1.26158,-2.76157,-15.76407,58.79630,-25.33375,43.82642,-0.65645,0.45964,0.16872,0.57388,126.19180,60.62893,-84.67905
0.38436,2.03166,-0.22392,6.36405,2.74154,0.68831,1.86429,-1.02685,-17.41343,57.10434,-42.62437,51.40233,-0.54611,0.56061,0.11253,0.61223,136.83820,44.45164,-106.91160
0.46624,2.02217,-0.17285,7.14487,2.02089,1.45550,4.24622,0.84569,-18.94831,55.27920,-64.95061,59.24622,-0.38285,0.63932,0.07407,0.66273,181.51860,-54.71252,-99.88810
0.55333,1.98350,-0.11036,7.81941,0.91392,2.24704,6.67342,2.46921,-20.60157,42.55975,-98.27831,55.86606,-0.18288,0.70033,0.03237,0.68923,176.72560,-103.73130,-159.19270
0.63572,1.90037,-0.04367,8.20741,-0.74506,2.96516,9.37058,4.01835,-21.79269,8.08028,-140.31650,45.37302,0.04092,0.72978,0.00406,0.68244,144.68110,-80.53682,-146.10940
0.69017,1.78899,0.01211,7.99290,-2.53651,3.40192,11.53707,4.54255,-20.81706,-46.99126,-155.29440,30.42321,0.22324,0.71576,0.00613,0.66167,146.85750,-140.91110,-91.93391
0.81366,1.62434,0.07525,6.79262,-4.99062,3.66153,14.49261,2.27319,-17.61825,-99.66058,-146.59480,-0.02558,0.36382,0.62733,0.05794,0.68610,-108.17140,-308.40170,-55.21814
0.98020,1.45021,0.14138,5.11395,-6.85523,3.51404,17.66939,2.02176,-15.06586,-130.76400,-124.96890,-27.04617,0.51937,0.54726,0.13675,0.64192,1.99115,-249.94670,-58.18311
1.01160,1.27709,0.18156,3.41475,-8.18012,3.13931,22.65570,1.60548,-12.45966,-145.95360,-102.39600,-42.84431,0.68747,0.41499,0.26401,0.53428,175.59370,-332.66280,-136.50250
0.94897,1.08283,0.17298,1.06979,-9.52031,2.07838,29.52522,-1.79247,-11.85696,-145.30920,-48.37367,-97.74090,0.84070,0.13448,0.37949,0.36211,272.93050,-115.76460,-421.21500
0.86130,0.94802,0.11257,-0.80519,-9.56723,0.55242,30.17204,-5.01110,-9.26235,-118.34860,33.62680,-100.62390,0.85125,-0.05947,0.46560,0.23462,44.22772,-148.95920,-300.08400
0.78607,0.85767,0.05284,-1.90341,-8.89392,-0.54492,26.22617,-7.10020,-9.56886,-73.63901,70.96728,-72.86227,0.83583,-0.20401,0.46706,0.20401,-192.79540,159.54010,-214.67470
0.71699,0.81471,-0.00515,-2.62883,-7.62617,-1.34784,21.81754,-6.92624,-8.60687,-20.84948,81.40777,-23.25608,0.82359,-0.27105,0.46408,0.18128,-225.05430,184.79020,66.72437
0.66802,0.78942,-0.02409,-2.93047,-6.53337,-1.40445,17.30184,-9.21223,-6.06547,-21.77670,74.85765,8.91085,0.75748,-0.32091,0.54211,0.17134,-355.67690,-46.18552,-124.61190
0.61373,0.74370,-0.03521,-3.14057,-5.80831,-1.26684,13.94989,-9.77909,-5.37331,-25.65848,70.55688,18.27990,0.70522,-0.37597,0.57803,0.16491,-337.24350,46.65059,-225.26090
0.54339,0.72348,-0.03096,-3.54508,-4.85402,-0.92499,8.68408,-8.79234,-5.59494,-31.01732,52.56637,21.48726,0.66232,-0.38935,0.59296,0.24113,-260.83850,190.37420,-121.54320
0.46579,0.69718,-0.02584,-3.97143,-4.18625,-0.63723,4.72522,-4.88626,-7.20815,-33.38572,46.26343,18.74015,0.66585,-0.40124,0.52638,0.34434,-127.50610,340.01760,-70.53285
0.38586,0.67815,-0.01893,-4.33936,-3.55489,-0.37946,2.19522,0.23667,-8.80832,-19.74605,48.46972,19.32852,0.69143,-0.40064,0.39852,0.45010,32.78436,452.17650,-63.72542
0.31207,0.67125,-0.00671,-4.52948,-2.87196,-0.09642,1.06859,4.02503,-10.01108,-1.60798,49.99835,22.82845,0.69904,-0.40599,0.26138,0.52745,100.13900,314.40080,-65.41601
0.25157,0.67149,0.01102,-4.45904,-2.23237,0.21132,0.61442,5.21101,-10.42939,18.74982,40.49438,23.89238,0.68125,-0.42518,0.16748,0.57190,59.82990,139.09100,-50.74417
0.20660,0.67119,0.03298,-4.16577,-1.74990,0.51348,-0.61665,3.94246,-9.34075,28.06461,27.99687,20.52295,0.64569,-0.43744,0.15897,0.60536,-74.80193,-6.38851,87.49716
0.17237,0.66704,0.05498,-3.76955,-1.43266,0.76115,-2.52299,2.18536,-7.91187,30.47878,17.20770,15.49250,0.59356,-0.44180,0.18881,0.64565,-157.25980,-34.33690,118.39520
0.15083,0.66245,0.07702,-3.23701,-1.19035,0.96228,-4.74277,0.69375,-5.07055,27.70897,13.32200,7.42350,0.54751,-0.40933,0.25860,0.68250,-146.45830,-0.37298,186.47500
0.12777,0.65582,0.09361,-2.85626,-1.02597,1.02177,-4.76346,1.31384,-3.02980,23.87149,15.19823,0.61435,0.54231,-0.36839,0.27126,0.70471,-25.06583,63.83244,146.20500
0.10407,0.65175,0.10601,-2.57640,-0.86073,1.00443,-3.40189,2.81087,-2.05414,20.52894,16.23991,-3.52138,0.56505,-0.33162,0.23925,0.71660,113.10500,111.91040,74.86681
0.08347,0.65332,0.11430,-2.31309,-0.64420,0.92525,-1.61292,4.45282,-1.76094,17.99908,15.00749,-7.26440,0.59967,-0.29749,0.17953,0.72088,153.85490,119.78030,-27.76834
0.06404,0.66030,0.11716,-2.09033,-0.38312,0.77086,-0.40397,4.98813,-1.81291,12.78762,16.53870,-11.43645,0.62038,-0.27920,0.13074,0.72117,86.06332,39.82387,-24.59926
0.04134,0.66752,0.11817,-1.97577,-0.17799,0.62031,0.05160,4.48095,-2.27196,9.57815,16.24782,-13.11540,0.62104,-0.28368,0.09647,0.72424,37.18961,-22.14828,-41.07877
0.01912,0.67862,0.11468,-1.87893,0.03909,0.43317,-0.01189,2.95212,-2.60900,8.23331,13.02302,-13.08061,0.60831,-0.31029,0.08833,0.72517,-12.28154,-88.84801,-34.39505
-0.00112,0.69007,0.10980,-1.77733,0.21412,0.26060,-0.65789,0.82727,-2.50961,8.60337,10.61743,-11.50116,0.58224,-0.34768,0.11204,0.72634,-63.81480,-140.45590,8.92004
-0.01820,0.70083,0.10405,-1.64476,0.33762,0.11532,-1.23509,-0.93257,-2.20068,9.87674,7.61151,-8.88084,0.55497,-0.38272,0.14369,0.72449,-72.28619,-130.91420,29.64357
-0.03138,0.70996,0.09900,-1.47875,0.40641,0.01442,-1.13860,-1.69531,-2.09237,11.84081,3.66651,-4.72594,0.54057,-0.41008,0.15545,0.71795,-14.90763,-82.94051,12.53883
-0.03979,0.71718,0.09628,-1.27676,0.42978,-0.02954,-0.54655,-1.59894,-2.20834,16.25148,1.17492,-2.08878,0.53920,-0.42827,0.14420,0.71067,34.06687,-8.59311,-0.27698
-0.04373,0.72233,0.09613,-1.04639,0.41260,-0.02134,0.26794,-0.99719,-2.06805,15.53152,-3.61349,3.68392,0.55127,-0.43301,0.12414,0.70227,70.06475,16.05978,8.27356
-0.04534,0.72451,0.09959,-0.83156,0.35163,0.04241,0.75056,0.00545,-1.69544,14.95765,-5.77867,5.59686,0.56573,-0.41999,0.10176,0.70229,47.89703,69.00130,30.42118
-0.04504,0.72463,0.10507,-0.63478,0.27315,0.12156,0.71221,0.69120,-1.23323,14.76924,-6.34377,5.43873,0.57260,-0.40375,0.08951,0.70789,14.20599,58.04284,32.61023
-0.04240,0.72384,0.11115,-0.44358,0.19757,0.19195,0.31417,1.00222,-0.69137,13.77270,-5.45107,4.63313,0.57254,-0.38778,0.08990,0.71676,-20.42167,25.62861,39.13535
-0.03631,0.72204,0.11763,-0.23826,0.12210,0.25353,-0.18731,1.21121,-0.14063,12.57156,-4.14195,3.01195,0.56936,-0.36967,0.09607,0.72797,-30.42589,14.33723,38.56255
-0.02888,0.72002,0.12359,-0.05136,0.05907,0.28994,-0.41016,1.40916,0.23627,11.06693,-3.23646,1.34968,0.56891,-0.35243,0.09840,0.73651,-15.74198,12.22864,26.91313
-0.02239,0.71856,0.12849,0.07490,0.02024,0.30083,-0.37068,1.57859,0.39833,10.29913,-2.72603,0.24142,0.57141,-0.33761,0.09523,0.74192,-0.74123,14.01678,16.26823
-0.01336,0.71665,0.13269,0.21034,-0.01623,0.29813,-0.25298,1.78138,0.51494,9.35935,-2.30677,-0.76868,0.57580,-0.32138,0.08961,0.74641,8.40592,15.50914,8.05128
-0.00291,0.71444,0.13615,0.34597,-0.04849,0.28086,-0.13778,1.94910,0.61626,8.19811,-1.89197,-1.60097,0.58072,-0.30469,0.08384,0.75026,8.45414,11.52490,5.94334
0.00693,0.71249,0.13906,0.43656,-0.06906,0.25976,-0.05939,2.04359,0.68724,7.45696,-1.65132,-2.19082,0.58505,-0.28874,0.07860,0.75376,6.58375,9.66025,4.88996
