posX, posY, posZ, velX, velY, velZ, angVelX, angVelY, angVelZ, accX, accY, accZ, rotX, rotY, rotZ, rotW, angAccX, angAccY, angAccZ
0.26782,1.22823,-0.47362,-0.12227,0.46046,-0.26642,0.49318,0.02521,0.00777,-0.88708,2.33474,-0.52956,0.15689,0.83065,0.04161,0.53261,1.92877,-2.08751,-6.68440
0.26486,1.23742,-0.47714,-0.14326,0.50469,-0.26441,0.94219,0.15825,-0.06406,-1.62669,3.09033,0.18930,0.16885,0.83185,0.05495,0.52583,26.58033,8.65859,-5.00244
0.26150,1.24696,-0.48053,-0.16481,0.54364,-0.26053,1.25981,0.23136,-0.09208,-2.04416,3.57438,0.53034,0.17930,0.83243,0.06805,0.51989,30.17531,8.22212,-2.41538
0.25722,1.25771,-0.48391,-0.19633,0.59432,-0.25649,1.49664,0.23382,-0.07313,-2.60040,3.99172,0.34568,0.18826,0.83202,0.08184,0.51537,19.22526,1.59285,-0.09711
0.25242,1.26871,-0.48748,-0.23074,0.64154,-0.25530,1.64978,0.25247,-0.03189,-3.31825,4.13842,-0.07877,0.19577,0.83192,0.09497,0.51046,12.88416,-0.71933,2.59047
0.24602,1.28129,-0.49117,-0.28070,0.70161,-0.25508,1.85006,0.31379,0.07873,-3.90299,4.57613,0.01212,0.20254,0.83262,0.11159,0.50326,14.31713,3.39035,6.28158
0.23777,1.29564,-0.49458,-0.34591,0.77239,-0.25246,2.12532,0.39631,0.21239,-4.28844,4.36451,0.14664,0.20991,0.83338,0.13196,0.49397,15.45049,3.65400,9.64224
0.22922,1.31015,-0.49772,-0.40332,0.83270,-0.24680,2.48682,0.52465,0.29303,-4.14054,4.27165,0.30287,0.22050,0.83385,0.15522,0.48164,23.70953,7.08122,6.75682
0.21990,1.32534,-0.50086,-0.45972,0.88940,-0.24174,2.80776,0.67073,0.35765,-4.14239,3.95548,0.50596,0.23176,0.83419,0.17918,0.46725,27.11578,10.51252,5.97309
0.20983,1.34098,-0.50416,-0.51554,0.94096,-0.24049,2.89448,0.75708,0.39581,-4.10594,3.76613,0.19656,0.24035,0.83435,0.19815,0.45478,11.37019,7.80008,3.65327
0.19849,1.35738,-0.50787,-0.58127,0.99683,-0.24492,2.75626,0.82157,0.46391,-4.30586,3.48288,-0.38653,0.24440,0.83568,0.21176,0.44391,-6.78229,2.46133,4.92614
0.18702,1.37366,-0.51171,-0.63293,1.03553,-0.25014,2.64521,0.91003,0.52654,-4.37250,3.11989,-0.53818,0.24829,0.83742,0.22507,0.43177,-11.28009,3.68038,6.55752
0.17449,1.39032,-0.51549,-0.69074,1.07507,-0.25266,2.61074,1.05140,0.59252,-4.15458,2.66234,-0.23908,0.25282,0.83968,0.23937,0.41679,-5.96821,7.99718,6.63241
0.15910,1.40768,-0.51862,-0.79401,1.13229,-0.23883,2.94462,1.48996,0.65325,-3.38649,1.71367,0.98023,0.26375,0.84279,0.26043,0.39028,14.06157,16.72788,3.29924
0.13428,1.43999,-0.52450,-0.83770,1.15181,-0.22512,3.00623,1.64151,0.64334,-3.15461,1.27249,1.35412,0.27949,0.84299,0.29314,0.35400,8.15494,13.62905,1.59085
0.11986,1.45643,-0.52671,-0.88457,1.16880,-0.20703,2.90265,1.75140,0.64282,-2.94348,1.06110,1.35713,0.28592,0.84436,0.30525,0.33485,-5.45680,6.46336,1.40181
0.10520,1.47310,-0.52847,-0.92335,1.18121,-0.18783,2.71789,1.80395,0.66375,-2.73970,0.88450,1.63242,0.29007,0.84612,0.31494,0.31742,-11.58248,3.84435,3.35661
0.09043,1.48978,-0.52980,-0.95453,1.18955,-0.16736,2.55388,1.82947,0.69879,-2.66912,0.67412,1.83403,0.29323,0.84772,0.32431,0.30033,-15.20280,0.27408,5.01778
0.07484,1.50627,-0.52979,-0.99258,1.19514,-0.13044,2.48537,1.93395,0.74323,-2.27101,0.33591,2.57394,0.29728,0.84933,0.33454,0.27991,-6.00055,4.68844,4.81181
0.05930,1.52272,-0.52873,-1.02073,1.19624,-0.08668,2.51988,2.02375,0.77721,-1.90069,-0.14921,3.58010,0.30238,0.84940,0.34701,0.25821,2.24337,7.28355,3.34120
0.04358,1.53867,-0.52654,-1.04499,1.18883,-0.03588,2.49600,2.00930,0.78518,-1.70937,-0.74844,3.79409,0.30651,0.84860,0.35855,0.23953,-1.53909,-0.76515,1.21548
0.02799,1.55415,-0.52398,-1.06223,1.17619,0.00930,2.46488,2.00863,0.79485,-1.30234,-1.24319,3.79303,0.31037,0.84765,0.36948,0.22054,-1.11558,-0.40733,1.30828
0.01247,1.56889,-0.52014,-1.07502,1.15653,0.06351,2.47451,2.04683,0.78574,-0.77994,-1.55751,3.97920,0.31529,0.84600,0.38053,0.20016,-0.85732,2.05477,0.18302
-0.00297,1.58261,-0.51504,-1.08410,1.12624,0.12624,2.44571,2.05979,0.79022,-0.42733,-2.19265,4.04683,0.31927,0.84431,0.39079,0.18027,0.04368,1.81075,0.39158
-0.01797,1.59609,-0.51014,-1.08450,1.09767,0.17336,2.35564,2.03640,0.75653,0.18107,-2.56251,4.03727,0.32322,0.84259,0.39892,0.16259,-6.95574,-1.26351,-0.42342
-0.03246,1.60807,-0.50348,-1.07712,1.05262,0.23624,2.35720,2.05416,0.67932,0.56453,-3.01384,3.65578,0.32945,0.83922,0.40804,0.14378,-3.05833,0.43817,-4.72105
-0.04650,1.61925,-0.49684,-1.06400,1.00553,0.28815,2.49543,2.19370,0.57569,1.09031,-3.44446,3.56680,0.33908,0.83361,0.41915,0.12013,5.94882,8.73390,-5.78826
-0.06014,1.63001,-0.49006,-1.04825,0.96213,0.33069,2.63797,2.32204,0.47311,1.36968,-3.70442,3.56457,0.34955,0.82659,0.43058,0.09569,11.29760,14.55178,-8.32034
-0.07343,1.63956,-0.48241,-1.03065,0.90913,0.37509,2.68338,2.41023,0.37777,1.33433,-3.94887,3.13403,0.35963,0.81969,0.43991,0.07257,4.56676,9.22123,-6.26764
-0.08627,1.64791,-0.47409,-1.00845,0.84813,0.41977,2.65591,2.46223,0.29034,1.49757,-3.77710,2.66151,0.36921,0.81298,0.44739,0.05087,-2.72744,4.43258,-4.51546
-0.09883,1.65606,-0.46591,-0.98701,0.79580,0.45432,2.64038,2.51792,0.23042,1.59492,-3.63103,2.26830,0.37843,0.80577,0.45464,0.02865,-2.92968,3.84427,-3.65744
-0.11093,1.66361,-0.45749,-0.96326,0.74457,0.48450,2.65612,2.59829,0.17830,1.79420,-3.74265,1.99749,0.38808,0.79751,0.46189,0.00515,1.16910,6.63760,-2.35489
-0.12255,1.67046,-0.44890,-0.93616,0.69296,0.51026,2.65097,2.68789,0.12869,2.15689,-3.78033,1.75135,0.39803,0.78880,0.46799,-0.01887,-0.25387,8.15670,-2.37229
-0.13354,1.67656,-0.44040,-0.90611,0.64119,0.52988,2.50811,2.70883,0.07494,2.36306,-3.84949,1.40262,0.40724,0.78165,0.47078,-0.03943,-6.89900,3.27260,-2.01428
-0.14374,1.68186,-0.43165,-0.87310,0.59015,0.54757,2.23430,2.61698,0.04578,2.43037,-3.63580,1.32073,0.41429,0.77710,0.47058,-0.05503,-18.52363,-4.00526,-0.03059
-0.15386,1.68701,-0.42281,-0.84514,0.54726,0.56213,1.98332,2.50472,0.02759,2.29339,-3.42777,1.12510,0.42057,0.77301,0.46990,-0.06908,-21.36122,-9.92326,0.91869
-0.16300,1.69124,-0.41375,-0.80987,0.50107,0.57786,1.76027,2.42534,0.00579,2.54135,-2.98044,0.99804,0.42708,0.76912,0.46822,-0.08269,-18.68502,-7.69600,1.46478
-0.17176,1.69521,-0.40490,-0.77403,0.45989,0.59127,1.63210,2.40340,-0.01337,2.47987,-2.72595,0.85711,0.43421,0.76390,0.46720,-0.09820,-9.87953,-1.85694,-0.29272
-0.17941,1.69825,-0.39608,-0.72822,0.41312,0.60320,1.49623,2.42247,-0.00587,2.68025,-2.42780,0.64429,0.44116,0.75916,0.46468,-0.11457,-7.71923,0.88064,2.06940
-0.18713,1.70175,-0.38715,-0.69185,0.38001,0.61230,1.38273,2.42594,0.00419,2.55066,-2.37280,0.72794,0.44780,0.75423,0.46211,-0.13062,-7.22600,0.76762,1.64232
-0.19483,1.70514,-0.37813,-0.66279,0.35216,0.62057,1.26718,2.39160,0.02846,2.54591,-2.32182,0.72132,0.45344,0.74987,0.45923,-0.14556,-8.61770,-2.08688,3.28107
-0.20157,1.70787,-0.36892,-0.62651,0.32127,0.63057,1.15257,2.34619,0.05315,2.67164,-2.07035,0.77934,0.45863,0.74592,0.45584,-0.15959,-8.82923,-3.15454,2.87198
-0.20780,1.71030,-0.35949,-0.59055,0.29206,0.64105,1.05646,2.29527,0.09362,2.62008,-2.14180,0.71036,0.46300,0.74221,0.45242,-0.17345,-5.93523,-3.95480,3.17495
-0.21341,1.71244,-0.35001,-0.55283,0.26425,0.64935,0.93361,2.22319,0.14849,2.79773,-1.87525,0.59458,0.46645,0.73958,0.44810,-0.18616,-7.58001,-4.49183,4.49378
-0.21865,1.71436,-0.34047,-0.51737,0.23879,0.65654,0.78021,2.07317,0.25398,2.51086,-1.87476,0.48688,0.46717,0.73919,0.44350,-0.19659,-9.03788,-9.83585,7.26465
-0.22134,1.71447,-0.33055,-0.44487,0.18633,0.66957,0.62231,1.85937,0.40120,2.55389,-1.88113,0.42599,0.46530,0.74077,0.43897,-0.20510,-3.48873,-7.09419,4.19088
-0.23138,1.71793,-0.31162,-0.41151,0.16156,0.67366,0.68012,1.86994,0.38363,2.88270,-2.09729,0.21609,0.47081,0.73268,0.43345,-0.23161,4.11310,0.26653,-0.15524
-0.23378,1.71790,-0.30222,-0.36432,0.12915,0.67433,0.69806,1.86311,0.34101,2.98176,-2.04265,-0.03467,0.47425,0.72786,0.43102,-0.24400,1.81917,0.17901,-2.97048
-0.23642,1.71808,-0.29292,-0.32987,0.10593,0.67291,0.71093,1.85766,0.30090,2.77242,-1.82742,-0.15939,0.47777,0.72285,0.42848,-0.25619,-0.94903,-1.53546,-3.19378
-0.23861,1.71792,-0.28369,-0.29676,0.08326,0.67114,0.75997,1.87685,0.24893,2.68352,-1.87146,-0.12428,0.48179,0.71650,0.42662,-0.26927,2.70595,1.78377,-4.30292
-0.23973,1.71678,-0.27452,-0.25494,0.05113,0.66928,0.81601,1.83024,0.21011,2.07097,-1.72909,-0.18131,0.48455,0.71034,0.42621,-0.28102,3.12541,-2.57070,-2.82235
-0.24163,1.71608,-0.26543,-0.23128,0.03128,0.66592,0.86765,1.82451,0.19603,1.84705,-1.56259,-0.36890,0.48714,0.70398,0.42512,-0.29391,2.62808,-2.09656,-1.83074
-0.24330,1.71509,-0.25661,-0.20975,0.01178,0.66020,0.92379,1.84067,0.17191,1.72058,-1.70979,-0.60430,0.49010,0.69677,0.42412,-0.30729,5.04099,1.22194,-2.41747
-0.24390,1.71321,-0.24863,-0.17718,-0.01701,0.64351,0.96913,1.90287,0.09909,1.85547,-1.51498,-1.10865,0.49499,0.68795,0.42262,-0.32110,1.66216,3.79693,-4.37252
-0.24460,1.71144,-0.24101,-0.15147,-0.04003,0.62537,0.93476,1.89717,0.08958,1.57033,-1.57172,-1.07675,0.49845,0.68144,0.41983,-0.33306,-0.75132,1.66134,-1.63635
-0.24550,1.70965,-0.23335,-0.13370,-0.05870,0.61124,0.83011,1.77750,0.14524,1.29748,-1.27330,-0.91134,0.49946,0.67838,0.41651,-0.34185,-7.01483,-7.76799,4.18013
-0.24827,1.70769,-0.22543,-0.12122,-0.07811,0.60071,0.75428,1.62213,0.22086,1.01369,-1.29512,-0.74604,0.49886,0.67628,0.41406,-0.34978,-4.30608,-9.88055,4.37197
-0.25090,1.70576,-0.21748,-0.11395,-0.09248,0.59251,0.71463,1.52719,0.26355,0.91389,-1.12742,-0.88462,0.49878,0.67326,0.41172,-0.35836,-3.72778,-9.72204,4.26516
-0.25282,1.70362,-0.20995,-0.10303,-0.10631,0.58039,0.72557,1.49969,0.27750,0.93651,-0.81114,-1.00100,0.49927,0.66874,0.40969,-0.36835,-0.52695,-4.21478,1.25230
-0.25331,1.70144,-0.20275,-0.08909,-0.11639,0.56718,0.76693,1.51785,0.28453,1.01208,-0.56613,-0.83066,0.49997,0.66301,0.40766,-0.37982,2.65506,1.59329,0.04029
-0.25362,1.69927,-0.19544,-0.07540,-0.12456,0.55870,0.83076,1.51241,0.30328,1.07519,-0.54798,-0.40620,0.49964,0.65719,0.40644,-0.39149,4.32189,0.81425,0.91061
-0.25388,1.69706,-0.18786,-0.06405,-0.13141,0.55604,0.88333,1.43280,0.33092,1.13124,-0.62909,-0.18220,0.49787,0.65244,0.40640,-0.40161,5.43666,-3.15269,0.91198
-0.25366,1.69471,-0.18033,-0.04794,-0.13887,0.55266,0.89477,1.24316,0.38376,1.04076,-0.45445,-0.32137,0.49397,0.65027,0.40747,-0.40880,1.83142,-11.72100,2.32167
-0.25346,1.69247,-0.17302,-0.03515,-0.14341,0.54701,0.85400,1.03916,0.46626,0.93559,-0.36190,-0.50484,0.48910,0.65016,0.40774,-0.41452,-0.79580,-14.14778,4.27454
-0.25319,1.69031,-0.16589,-0.02430,-0.14581,0.54034,0.80346,0.86305,0.52391,0.86238,-0.04810,-0.55092,0.48437,0.65048,0.40789,-0.41940,-3.85565,-16.05730,5.55124
-0.25265,1.68818,-0.15884,-0.01178,-0.14711,0.53329,0.79827,0.73200,0.56655,0.76070,-0.06579,-0.38923,0.47931,0.65010,0.40869,-0.42498,-0.82823,-11.31210,2.34102
-0.25192,1.68596,-0.15172,0.00097,-0.14959,0.52911,0.86506,0.66442,0.55501,0.87642,-0.11574,-0.19335,0.47480,0.64735,0.41103,-0.43193,3.30713,-6.00096,0.09322
-0.25080,1.68354,-0.14446,0.01692,-0.15466,0.52788,0.98284,0.61320,0.50572,1.06347,-0.39752,0.04387,0.47033,0.64284,0.41523,-0.43947,7.38652,-1.56601,-3.55527
-0.24970,1.68101,-0.13705,0.02937,-0.15995,0.52852,1.03038,0.48699,0.47413,1.20821,-0.69737,-0.04624,0.46506,0.64033,0.41974,-0.44444,7.03325,-6.78130,-3.11236
-0.24832,1.67827,-0.12978,0.04314,-0.16726,0.52711,1.03990,0.29560,0.42197,0.89164,-0.44066,-0.22413,0.45947,0.63918,0.42557,-0.44635,1.30593,-13.70679,-4.89240
-0.24694,1.67566,-0.12283,0.05417,-0.17116,0.52186,1.03894,0.12776,0.38460,0.63457,-0.11364,-0.48525,0.45366,0.63845,0.43132,-0.44782,-0.03211,-12.61557,-3.82792
-0.24555,1.67333,-0.11626,0.06329,-0.17026,0.51159,1.08211,0.04048,0.31874,0.33234,0.16327,-0.73253,0.44860,0.63573,0.43774,-0.45054,2.77630,-6.06782,-4.56195
-0.24446,1.67111,-0.10982,0.06621,-0.16811,0.50166,1.10425,-0.02098,0.29078,0.21386,0.16351,-0.96636,0.44330,0.63339,0.44331,-0.45362,2.65705,-3.45852,-3.85909
-0.24345,1.66902,-0.10394,0.06743,-0.16456,0.48622,1.07685,-0.10695,0.27874,0.08169,0.25280,-1.22671,0.43787,0.63248,0.44831,-0.45525,-0.90876,-6.22060,-1.38548
-0.24237,1.66710,-0.09852,0.06950,-0.15919,0.46663,1.00964,-0.21291,0.25554,0.14623,0.33878,-1.19794,0.43286,0.63258,0.45307,-0.45520,-3.83670,-6.38894,-1.95122
-0.24129,1.66522,-0.09315,0.07107,-0.15429,0.45030,0.95334,-0.26479,0.21416,0.00629,0.42069,-1.13568,0.42883,0.63190,0.45757,-0.45545,-4.22002,-5.64018,-2.71333
-0.24013,1.66340,-0.08785,0.07358,-0.14965,0.43667,0.94593,-0.21558,0.15149,0.23801,0.55006,-1.03160,0.42628,0.62875,0.46190,-0.45782,-1.99283,1.76235,-3.90078
-0.23862,1.66176,-0.08286,0.08054,-0.14336,0.42102,0.99599,-0.06845,0.01002,0.43807,0.36830,-0.91806,0.42653,0.62155,0.46722,-0.46201,2.57379,9.60975,-7.68755
-0.23711,1.66004,-0.07779,0.08612,-0.13948,0.40990,1.02145,0.04013,-0.08473,0.58484,0.28389,-0.97761,0.42644,0.61495,0.47204,-0.46601,3.54987,10.50932,-7.65817
-0.23543,1.65831,-0.07303,0.09277,-0.13643,0.39634,1.03119,0.11310,-0.20278,0.47920,0.14863,-1.00479,0.42725,0.60797,0.47754,-0.46881,1.16312,6.66066,-7.84682
-0.23377,1.65655,-0.06849,0.09800,-0.13440,0.38257,1.01618,0.15436,-0.28704,0.42050,0.12591,-1.00595,0.42790,0.60180,0.48261,-0.47098,-0.70396,3.88121,-6.39271
-0.23192,1.65474,-0.06413,0.10487,-0.13376,0.36914,0.99821,0.18998,-0.38028,0.60071,-0.06394,-0.91350,0.42922,0.59527,0.48788,-0.47265,-1.19312,3.46386,-6.06944
-0.22994,1.65284,-0.05982,0.11219,-0.13412,0.35732,0.95324,0.12323,-0.47841,0.42308,-0.01673,-0.67828,0.42994,0.59035,0.49434,-0.47144,-2.46188,-1.98704,-7.10440
-0.22798,1.65114,-0.05540,0.11800,-0.13170,0.34923,0.92669,0.07740,-0.56448,0.26111,0.38579,-0.29597,0.43064,0.58519,0.50090,-0.47032,-3.55810,-4.28566,-5.14537
-0.22611,1.64948,-0.05082,0.12136,-0.12916,0.34513,0.97350,0.10598,-0.62115,0.21108,0.22238,-0.32478,0.43102,0.57788,0.50768,-0.47174,2.92814,1.91908,-5.40796
-0.22416,1.64790,-0.04635,0.12513,-0.12603,0.34041,1.02439,0.13762,-0.67563,0.35242,0.17700,-0.38218,0.43148,0.56995,0.51471,-0.47334,4.44814,2.70110,-3.99346
-0.22203,1.64622,-0.04201,0.13079,-0.12497,0.33436,1.08501,0.13427,-0.74927,0.36743,-0.03149,-0.41157,0.43167,0.56163,0.52297,-0.47406,3.17579,0.02851,-4.44686
-0.21990,1.64430,-0.03771,0.13544,-0.12771,0.32937,1.11898,0.08028,-0.81498,0.42740,-0.44241,-0.39863,0.43133,0.55420,0.53168,-0.47344,3.92140,-1.04342,-4.59809
-0.21783,1.64213,-0.03334,0.13805,-0.13338,0.32611,1.11183,-0.07156,-0.87246,0.25088,-0.56887,-0.28860,0.42967,0.54899,0.54143,-0.46994,-0.86021,-9.85939,-5.47078
-0.21578,1.63972,-0.02899,0.13983,-0.14133,0.32333,1.11315,-0.25247,-0.94941,-0.02521,-0.49203,-0.16026,0.42734,0.54413,0.55264,-0.46464,-1.70585,-12.65272,-6.35057
-0.21397,1.63734,-0.02476,0.13788,-0.14725,0.31961,1.14681,-0.38909,-1.00388,-0.31714,-0.29704,-0.35323,0.42433,0.53854,0.56416,-0.46004,1.90944,-10.29599,-5.48890
-0.21233,1.63513,-0.02071,0.13371,-0.14950,0.31363,1.18742,-0.49909,-1.02795,-0.33621,-0.10274,-0.47843,0.42059,0.53287,0.57558,-0.45593,2.12436,-8.06358,-2.80544
-0.21081,1.63305,-0.01687,0.12880,-0.14939,0.30610,1.19409,-0.63641,-1.03233,-0.29592,-0.05682,-0.68727,0.41596,0.52859,0.58687,-0.45073,1.07085,-8.72059,-1.37562
-0.20927,1.63098,-0.01335,0.12540,-0.14934,0.29563,1.16074,-0.77841,-1.04344,-0.11523,-0.00862,-0.79640,0.41137,0.52542,0.59788,-0.44412,-3.09834,-10.38924,-1.39898
-0.20744,1.62886,-0.00997,0.12655,-0.14995,0.28485,1.14873,-0.88429,-1.09527,0.16075,-0.01131,-0.74960,0.40738,0.52108,0.60962,-0.43691,-2.68139,-8.13452,-3.97780
-0.20552,1.62668,-0.00660,0.12876,-0.15120,0.27659,1.15025,-0.93903,-1.14689,0.18917,-0.17696,-0.88231,0.40387,0.51576,0.62120,-0.43011,0.52842,-6.06704,-5.21824
-0.20345,1.62441,-0.00393,0.13259,-0.15350,0.26023,1.11213,-1.06623,-1.23471,0.27607,-0.14597,-1.01840,0.40001,0.51165,0.63382,-0.42009,-1.50873,-5.69705,-5.46043
-0.20131,1.62228,-0.00145,0.13707,-0.15333,0.24362,1.05321,-1.17845,-1.31044,0.11771,0.18181,-0.78678,0.39637,0.50815,0.64583,-0.40936,-4.25024,-6.51469,-5.69140
-0.19928,1.62030,0.00135,0.13883,-0.15086,0.23474,1.04320,-1.22592,-1.33182,0.12088,0.31588,-0.67469,0.39221,0.50365,0.65723,-0.40069,-1.11656,-3.40782,-2.88600
-0.19721,1.61859,0.00402,0.14080,-0.14520,0.22586,1.02704,-1.29743,-1.31892,0.20901,0.40357,-0.70288,0.38679,0.50012,0.66837,-0.39186,-0.43602,-4.57244,-0.11674
-0.19503,1.61700,0.00648,0.14412,-0.13884,0.21594,0.93019,-1.44486,-1.32434,0.47485,0.40198,-0.86991,0.38080,0.49926,0.67926,-0.37991,-5.31822,-7.75175,-0.62778
-0.19258,1.61547,0.00882,0.15046,-0.13302,0.20619,0.80756,-1.57904,-1.36755,0.65643,0.56491,-0.79496,0.37554,0.49906,0.68994,-0.36591,-11.54794,-11.84828,-4.18440
-0.18960,1.61401,0.01086,0.16323,-0.12739,0.19446,0.79514,-1.58337,-1.43335,0.83088,0.49890,-0.70593,0.37181,0.49505,0.70097,-0.35401,-4.68009,-3.80188,-5.92635
-0.18624,1.61246,0.01273,0.17873,-0.12434,0.18260,0.87389,-1.46930,-1.47116,1.22217,0.15441,-0.77124,0.36927,0.48742,0.71165,-0.34586,6.70006,7.47396,-1.63493
-0.18217,1.61082,0.01455,0.20160,-0.12309,0.17225,0.97719,-1.34131,-1.51009,1.64892,-0.05602,-0.50876,0.36714,0.47815,0.72249,-0.33851,7.04358,7.92899,-1.50352
-0.17781,1.60885,0.01659,0.22424,-0.12693,0.16714,1.02643,-1.30129,-1.55078,1.82204,-0.61488,-0.26690,0.36406,0.47021,0.73342,-0.32933,5.95678,4.79707,-1.16447
-0.17313,1.60637,0.01892,0.24707,-0.13750,0.16724,0.97131,-1.41244,-1.67172,1.83666,-1.12351,0.07635,0.36008,0.46488,0.74529,-0.31427,-1.21782,-4.48001,-7.21784
-0.16817,1.60315,0.02146,0.26909,-0.15664,0.17031,0.89039,-1.55906,-1.86105,1.46287,-1.60161,0.36479,0.35638,0.45973,0.75798,-0.29514,-6.85622,-9.82584,-14.31151
-0.16309,1.59918,0.02425,0.28850,-0.18281,0.17655,0.95326,-1.61371,-2.05663,1.07666,-1.77658,0.71054,0.35318,0.44998,0.77193,-0.27732,0.63802,-5.45488,-15.34347
-0.15802,1.59465,0.02721,0.30366,-0.21152,0.18385,1.21683,-1.51249,-2.15169,0.70186,-1.88843,0.62488,0.35000,0.43377,0.78655,-0.26586,17.08063,2.79370,-7.02717
-0.15296,1.58980,0.03037,0.31556,-0.23916,0.19247,1.58835,-1.37134,-2.14975,0.84612,-1.90999,0.75592,0.34528,0.41343,0.80166,-0.25923,26.94113,6.48946,2.26433
-0.14788,1.58482,0.03363,0.32556,-0.26295,0.20083,1.87107,-1.29533,-2.13697,0.91647,-2.25046,0.60089,0.33949,0.39352,0.81630,-0.25210,27.03217,3.63805,5.35207
-0.14272,1.57868,0.03741,0.33426,-0.29846,0.21509,2.02049,-1.37393,-2.22649,0.36191,-2.68393,0.86270,0.33212,0.37527,0.83170,-0.23905,13.55105,-3.55422,-2.85206
-0.13842,1.57209,0.04151,0.32901,-0.33387,0.23118,1.91931,-1.62629,-2.44353,-0.69586,-2.83350,1.20539,0.32367,0.36281,0.84667,-0.21625,-5.92323,-13.54938,-15.89244
-0.13517,1.56466,0.04600,0.30959,-0.37440,0.24970,1.92962,-1.88479,-2.63521,-2.06448,-2.69887,1.59983,0.31256,0.34786,0.86263,-0.19280,-6.11776,-15.75305,-19.79410
-0.13277,1.55662,0.05075,0.28173,-0.41505,0.26791,2.16517,-2.08830,-2.70921,-2.16201,-2.59619,1.33196,0.29778,0.32684,0.87990,-0.17399,11.63091,-17.36521,-7.79757
-0.13079,1.54841,0.05548,0.25361,-0.45010,0.28234,2.54172,-2.21603,-2.65258,-2.30817,-2.14496,0.86836,0.28059,0.30094,0.89712,-0.16090,21.88711,-14.76051,1.57828
-0.12957,1.53982,0.05988,0.21987,-0.48441,0.28912,2.93580,-2.35110,-2.47964,-2.04666,-2.32407,-0.11599,0.25995,0.27349,0.91352,-0.15204,22.53290,-15.73389,13.80313
-0.12792,1.53145,0.06375,0.19938,-0.50767,0.28663,3.11508,-2.42638,-2.41514,-2.05073,-2.58481,-0.58036,0.24194,0.24836,0.92749,-0.13980,16.55585,-13.79392,9.39787
-0.12761,1.52133,0.06663,0.16431,-0.55118,0.27060,3.33873,-2.53630,-2.37909,-2.24921,-3.11583,-1.48739,0.22160,0.22040,0.94135,-0.12718,12.26743,-10.46686,3.72617
-0.12752,1.51043,0.06873,0.13276,-0.59826,0.24659,3.57410,-2.60581,-2.38078,-2.29752,-3.58287,-1.87438,0.20171,0.18999,0.95404,-0.11409,12.80501,-7.42240,0.41186
-0.12820,1.49791,0.06952,0.09565,-0.65915,0.20761,3.95257,-2.67412,-2.32485,-2.49128,-3.87122,-2.92086,0.17933,0.15362,0.96615,-0.10393,21.89497,-9.12255,4.99565
-0.12885,1.48553,0.06980,0.06671,-0.70603,0.16940,4.24701,-2.72078,-2.23991,-2.50006,-3.91261,-3.43439,0.15680,0.11742,0.97603,-0.09484,21.36142,-9.72759,7.70030
-0.12998,1.47239,0.06907,0.03758,-0.75322,0.12562,4.55209,-2.77213,-2.11393,-2.54105,-3.93448,-3.90952,0.13271,0.07895,0.98408,-0.08799,22.19544,-11.86259,11.74040
-0.13255,1.45754,0.06614,-0.00636,-0.81508,0.05910,4.91006,-2.88618,-1.96793,-3.01846,-3.94087,-4.47550,0.10508,0.03688,0.99034,-0.08261,19.14196,-13.43498,10.41168
-0.13584,1.44232,0.06244,-0.05254,-0.87025,-0.00593,5.24277,-3.04587,-1.86759,-3.56461,-4.01582,-4.75814,0.07510,-0.00676,0.99424,-0.07616,18.72274,-14.98323,7.22996
-0.14043,1.42650,0.05725,-0.10807,-0.92332,-0.07939,5.57169,-3.29122,-1.79949,-4.38411,-3.52801,-5.80033,0.04091,-0.05228,0.99541,-0.06886,21.56971,-20.93324,3.92333
-0.14720,1.41039,0.04915,-0.18483,-0.97026,-0.18154,5.86627,-3.67173,-1.74982,-5.15226,-2.36096,-7.06613,0.00054,-0.09813,0.99332,-0.06068,15.59461,-25.06874,-2.62548
-0.15460,1.39510,0.03937,-0.25598,-0.99629,-0.28872,6.07055,-4.09326,-1.67274,-5.12510,-1.31090,-8.39511,-0.04350,-0.14212,0.98745,-0.05337,11.90249,-31.31041,-4.14027
-0.16298,1.38065,0.02702,-0.32699,-1.00506,-0.41189,6.14138,-4.44477,-1.73756,-4.86934,-0.08262,-9.68043,-0.08745,-0.18293,0.97833,-0.04184,6.24816,-26.46077,-9.85839
-0.17216,1.36743,0.01168,-0.39464,-0.99231,-0.55302,6.12209,-4.70040,-1.93571,-4.60725,1.91288,-10.95424,-0.13043,-0.22113,0.96615,-0.02530,2.78280,-11.62714,-20.29885
-0.18161,1.35638,-0.00677,-0.45283,-0.95156,-0.71163,6.09164,-4.92773,-2.12344,-3.73826,4.08516,-11.86147,-0.17368,-0.25763,0.95047,-0.00810,2.49875,-9.37134,-19.17103
-0.19085,1.34805,-0.02796,-0.49592,-0.87933,-0.87785,5.98164,-5.13147,-2.29090,-2.55782,6.50363,-12.19814,-0.21714,-0.29029,0.93193,0.00928,-1.05895,-6.42936,-19.65349
-0.19956,1.34385,-0.05354,-0.52203,-0.75824,-1.07655,5.82031,-5.48189,-2.37088,-1.00371,9.07976,-12.67156,-0.26570,-0.31936,0.90932,0.02347,-8.75505,-12.55004,-17.23417
-0.20673,1.34270,-0.08041,-0.52004,-0.61550,-1.25612,5.69272,-5.93012,-2.36779,1.11500,11.69583,-12.85917,-0.31799,-0.34725,0.88157,0.03375,-9.46766,-25.26174,-16.41651
-0.21251,1.34250,-0.10649,-0.49860,-0.49300,-1.38261,5.57714,-6.27346,-2.31326,3.05218,13.21680,-12.59576,-0.36842,-0.37357,0.85029,0.04158,-12.99953,-29.67657,-16.06499
-0.21454,1.35115,-0.13888,-0.42671,-0.26823,-1.57117,5.36778,-6.83172,-2.19259,5.83855,15.28100,-10.91126,-0.42556,-0.39496,0.81305,0.04317,-16.30444,-30.31530,-12.44610
-0.21360,1.36276,-0.17011,-0.32545,-0.04333,-1.70744,5.06605,-7.39280,-2.06789,8.57047,17.43422,-8.50875,-0.48333,-0.41108,0.77184,0.04087,-21.30093,-35.29996,-17.20070
-0.20961,1.37676,-0.19626,-0.21349,0.16828,-1.79084,4.67991,-7.80506,-1.99029,10.29791,18.41210,-5.54488,-0.53799,-0.42117,0.72925,0.03712,-29.60305,-30.70952,-21.61673
-0.21060,1.39145,-0.21778,-0.04308,0.46076,-1.84216,3.94009,-8.19567,-2.00623,11.30756,18.81580,-1.09736,-0.59355,-0.41668,0.68792,0.02901,-37.37957,-16.05695,-30.36802
-0.21284,1.40704,-0.23406,0.11414,0.72077,-1.83269,3.11161,-8.49310,-2.14569,11.26088,19.26046,2.41824,-0.64724,-0.40300,0.64673,0.02018,-42.26800,-6.61758,-41.09379
-0.21389,1.42594,-0.24544,0.29369,1.02907,-1.76635,1.90960,-8.77903,-2.51209,11.50063,20.45333,5.88266,-0.70237,-0.37005,0.60801,0.00791,-47.72261,-3.10460,-61.95147
-0.21317,1.44635,-0.25481,0.45173,1.31887,-1.66813,0.63900,-9.08848,-3.01780,10.79597,22.03881,8.19548,-0.75738,-0.32425,0.56673,-0.00742,-52.24089,0.91745,-76.19394
-0.21088,1.46913,-0.26368,0.58167,1.58428,-1.56123,-0.64547,-9.51516,-3.75701,10.21552,23.70406,9.57388,-0.81344,-0.26212,0.51868,-0.02411,-50.88269,-13.04400,-104.19340
-0.21158,1.49556,-0.26568,0.74507,1.96641,-1.40410,-2.44959,-10.25672,-5.19911,10.46453,24.85505,10.26327,-0.87294,-0.15928,0.45901,-0.04378,-39.90808,-36.11882,-145.34840
-0.21166,1.52601,-0.26966,0.88050,2.33722,-1.26695,-3.77036,-10.24685,-7.31391,10.82567,28.45658,9.57837,-0.91388,-0.03632,0.40252,-0.03848,-11.28403,-21.08071,-160.01530
-0.21028,1.56366,-0.27295,1.06334,2.77193,-1.13353,-4.93640,-9.54479,-9.36238,17.23420,34.66423,10.55630,-0.92857,0.09849,0.35686,-0.02663,28.55022,-14.65071,-166.96730
-0.20332,1.60904,-0.27768,1.29546,3.19884,-1.03305,-5.02392,-8.42188,-11.39645,23.90173,35.88530,8.18737,-0.92085,0.22727,0.31651,0.01416,118.79380,-13.37211,-168.46030
-0.18669,1.66441,-0.27953,1.81069,3.81466,-0.89501,-4.26889,-6.96400,-13.75488,42.63628,39.82149,11.15706,-0.88512,0.35986,0.28228,0.08593,135.07410,-44.50458,-109.14450
-0.15130,1.72595,-0.27887,2.53082,4.36241,-0.70187,-2.84462,-5.41828,-15.64342,61.29608,36.07363,17.79254,-0.82423,0.47553,0.25524,0.17136,154.21610,-69.06763,-92.03145
-0.09586,1.78788,-0.27139,3.50227,4.80531,-0.39840,-0.51277,-4.17582,-17.02173,78.48370,25.40649,28.10077,-0.74236,0.56417,0.22990,0.27885,159.91670,-125.97250,-54.44722
-0.02232,1.84652,-0.25639,4.50701,5.02129,-0.01904,2.12603,-3.49742,-18.07618,90.56498,9.32306,37.74611,-0.63697,0.62998,0.19758,0.39793,140.26180,-175.64290,-45.10067
0.07599,1.88933,-0.22324,5.84441,4.96823,0.60432,5.52509,-3.76062,-19.12920,101.17510,-18.54035,53.79387,-0.49786,0.66061,0.14736,0.54223,74.43282,-227.78050,-83.23091
0.19745,1.89426,-0.16177,7.45351,4.31167,1.60740,9.23646,-5.07255,-20.43186,99.75104,-67.83427,72.31924,-0.31237,0.64851,0.07035,0.69058,6.72229,-232.75850,-139.87430
0.31958,1.86842,-0.09048,8.50572,3.19430,2.53589,10.37704,-5.80366,-22.12407,75.67458,-119.72160,79.15134,-0.11287,0.64276,-0.02927,0.75714,7.62835,-124.64570,-184.27760
0.42418,1.78535,-0.00286,9.09133,1.45324,3.54725,10.75734,-3.53511,-22.38841,26.27871,-166.80060,83.46301,0.07016,0.65791,-0.05588,0.74774,114.07830,-1.52814,-45.90138
0.46831,1.60779,0.09895,9.02793,-1.44969,4.74492,13.76939,0.73438,-21.92798,-30.53353,-201.46300,63.22974,0.30331,0.65492,0.01102,0.69207,209.91410,-236.24520,69.77043
0.44668,1.38064,0.16880,7.97282,-4.91008,5.37814,19.90033,5.16985,-21.19467,-104.94040,-234.44520,6.69980,0.59154,0.57209,0.12944,0.55321,248.20710,-292.52710,-201.35120
0.39201,1.16776,0.19582,6.26792,-7.64230,5.17608,28.09116,9.21767,-17.43126,-170.50570,-219.51890,-48.33928,0.81277,0.38761,0.31711,0.29765,361.22370,-298.08330,-472.03140
0.24390,0.94793,0.15245,3.47186,-10.36313,4.01639,40.40301,7.29140,-10.88846,-227.65760,-164.67210,-120.92160,0.85353,-0.04601,0.51728,-0.04220,545.87280,142.19750,-883.84530
0.02841,0.81685,-0.00413,-0.12650,-11.65968,1.13593,43.44028,-3.82674,-9.66898,-209.20510,15.26847,-195.20960,0.69491,-0.46264,0.53165,-0.14288,441.73300,648.49280,-307.63450
-0.10237,0.79805,-0.13502,-2.07459,-10.60988,-1.02561,36.60201,-7.88818,-12.45784,-119.16700,135.11790,-139.29830,0.61491,-0.62982,0.46482,-0.09573,-35.88156,700.72980,191.28870
-0.03749,0.83470,-0.20152,-2.97766,-8.48112,-2.16729,28.23414,-7.79934,-12.25741,-14.34546,153.66560,-25.07321,0.59139,-0.67060,0.44675,-0.03107,-278.79810,462.46900,328.31500
0.28827,0.81965,-0.15581,-2.95729,-6.48233,-2.00429,20.02206,-10.29807,-9.22273,13.03661,104.53460,33.44467,0.50386,-0.66352,0.55250,0.02457,-498.17300,289.36770,-219.33000
0.39602,0.78410,-0.12321,-2.74424,-5.52426,-1.48209,14.51217,-10.06461,-6.83783,13.04854,62.74322,48.66248,0.45863,-0.64412,0.61073,0.04220,-440.42090,185.91230,-136.51170
0.44960,0.74390,-0.07614,-2.60219,-4.90070,-0.73848,7.43631,-6.87938,-4.83181,0.27445,26.75111,52.18400,0.48741,-0.54823,0.66452,0.14244,-456.34640,274.05060,47.19310
0.44626,0.69160,-0.03713,-2.63700,-4.63764,-0.14707,1.01503,-2.45872,-4.77598,-6.46670,26.16866,38.91710,0.52509,-0.43504,0.66061,0.31402,-442.35730,512.75850,-35.87485
0.42614,0.65181,0.00029,-2.72800,-4.27278,0.33503,-2.80438,3.02621,-3.50377,-6.45821,29.92116,20.53920,0.61059,-0.28936,0.59121,0.44036,-194.67440,462.98180,83.79383
0.38884,0.62421,0.02013,-2.84480,-3.81792,0.52008,-2.75391,5.13482,-4.75395,-0.81787,34.97643,13.34290,0.63190,-0.28394,0.50136,0.51838,22.65270,190.38480,-190.74450
0.35099,0.60733,0.03473,-2.89019,-3.30592,0.60614,-2.75080,3.37069,-4.79686,-0.01598,31.12212,3.03126,0.59760,-0.30073,0.50761,0.54293,-34.13043,-91.29228,19.56528
0.31461,0.58658,0.04507,-2.87660,-2.95622,0.62303,-2.75161,2.36385,-4.57998,1.05597,28.54456,-0.51730,0.57234,-0.30853,0.50821,0.56477,-39.19925,-112.30290,39.60039
0.28675,0.58147,0.05477,-2.80735,-2.53358,0.63152,-2.77502,2.45396,-3.94329,3.90050,24.31234,-0.66157,0.56914,-0.29319,0.49598,0.58662,6.60564,2.78069,40.55943
0.25271,0.56840,0.06433,-2.74108,-2.21378,0.62789,-2.86531,3.05544,-3.56696,4.48506,21.94900,-1.22269,0.57163,-0.26966,0.46963,0.61641,11.03576,44.66942,21.37755
0.22062,0.56077,0.07140,-2.65593,-1.87334,0.59616,-2.95621,3.69053,-3.25238,6.70773,20.13229,-2.86176,0.57491,-0.24203,0.43948,0.64635,12.70454,51.15928,6.52230
0.18887,0.55053,0.07661,-2.58099,-1.64029,0.54143,-3.10810,3.46264,-2.81337,7.58121,19.45067,-5.95307,0.56562,-0.22213,0.42910,0.66828,-5.45874,12.36081,27.42494
0.15946,0.54662,0.07737,-2.49114,-1.36653,0.43380,-3.07419,2.66290,-2.15109,6.12190,20.72524,-9.54463,0.55258,-0.21110,0.43762,0.67718,-0.49530,-40.04276,60.54166
0.13501,0.56483,0.06536,-2.33251,-0.75755,0.12368,-1.08422,3.04823,-2.46271,3.54995,19.59546,-9.93084,0.58115,-0.22450,0.40047,0.67193,81.31000,19.34504,-42.42645
0.07360,0.55836,0.06241,-2.28087,-0.54319,0.02551,-0.18606,3.57490,-3.16673,5.18851,15.76685,-6.71610,0.59864,-0.22535,0.32124,0.69832,73.11617,33.31413,-80.71097
0.04700,0.56466,0.05836,-2.20646,-0.34326,-0.04019,0.29585,3.61205,-3.64178,7.41734,12.49714,-2.65050,0.60670,-0.23614,0.27453,0.70767,41.00591,8.29377,-55.08685
0.02380,0.57165,0.05612,-2.09795,-0.17408,-0.06697,0.30408,3.17548,-3.69645,9.63616,10.86388,-0.89594,0.60323,-0.24568,0.24868,0.71688,-8.77670,-30.81361,-11.67972
0.00337,0.57754,0.05501,-1.97187,-0.05650,-0.07171,0.29823,3.03520,-3.60261,11.22732,9.22460,-0.41551,0.60289,-0.24712,0.22167,0.72548,-8.56624,-15.73330,10.46373
-0.01025,0.58578,0.05437,-1.77354,0.07086,-0.06784,0.27691,2.56251,-3.35288,14.27527,6.75595,0.99930,0.60031,-0.25373,0.20631,0.72985,1.49414,-23.91224,8.55231
-0.02073,0.59320,0.05471,-1.56718,0.16206,-0.05046,-0.01404,1.99015,-2.87051,15.75159,5.64004,1.74408,0.59215,-0.25653,0.20471,0.73597,-23.40382,-40.52507,35.03193
-0.02694,0.59996,0.05624,-1.34000,0.22481,-0.01935,-0.31412,1.71309,-2.41298,16.02313,3.32047,2.82381,0.58460,-0.25292,0.20167,0.74404,-21.12906,-21.61864,37.29403
-0.03020,0.60527,0.05939,-1.11730,0.25372,0.02995,-0.71903,1.59569,-1.87668,16.05649,0.92703,3.61178,0.57543,-0.24190,0.20210,0.75467,-20.80441,-7.94362,39.57962
-0.02836,0.60889,0.06361,-0.86326,0.25064,0.08559,-1.08406,1.66884,-1.16238,15.48634,-1.22785,3.99155,0.56881,-0.22094,0.20622,0.76493,-15.16288,8.00309,44.56456
-0.02596,0.61117,0.06769,-0.64889,0.22977,0.12798,-1.12104,2.10870,-0.68882,14.32992,-1.20444,2.28702,0.56976,-0.19446,0.19841,0.77343,-3.96117,28.44007,40.37636
-0.02343,0.61304,0.07078,-0.48004,0.20851,0.14713,-0.91357,2.63378,-0.56661,13.25667,-1.63060,0.83157,0.57541,-0.17000,0.17865,0.77980,15.70426,41.32476,13.67733
-0.01787,0.61433,0.07294,-0.30452,0.18221,0.14901,-0.63082,3.09965,-0.49301,12.21696,-2.05490,-0.74586,0.58376,-0.14522,0.15601,0.78345,23.84381,38.91779,-3.64651
-0.01157,0.61542,0.07367,-0.15320,0.15837,0.12983,-0.48289,3.20175,-0.32316,10.46148,-1.82713,-2.00149,0.58881,-0.12443,0.14233,0.78585,15.95754,15.04187,5.85662
-0.00476,0.61656,0.07313,-0.02499,0.14006,0.09650,-0.47898,2.96840,-0.05696,8.82127,-1.23606,-2.84977,0.58973,-0.10862,0.13956,0.78800,5.72231,-10.56887,16.85129
0.00247,0.61791,0.07153,0.08348,0.12731,0.05513,-0.53561,2.58302,0.22435,7.07269,-0.89764,-2.98988,0.58821,-0.09644,0.14325,0.79006,0.92785,-25.46551,22.15712
0.00990,0.61908,0.06940,0.17310,0.11522,0.01423,-0.56768,2.18808,0.41666,5.78474,-0.76578,-2.75775,0.58619,-0.08734,0.14788,0.79176,-0.31743,-29.71011,18.46136
0.01791,0.62005,0.06704,0.25323,0.10180,-0.02222,-0.55761,1.92017,0.52509,5.46577,-1.10092,-2.48003,0.58506,-0.07820,0.14998,0.79315,3.12875,-20.20234,7.48920
0.02697,0.62070,0.06389,0.33373,0.08493,-0.06336,-0.54350,1.66780,0.66610,4.51085,-1.09273,-2.55768,0.58396,-0.06898,0.15427,0.79400,1.66742,-16.87621,10.98992
0.03532,0.62099,0.06091,0.38734,0.06940,-0.09372,-0.44933,1.59985,0.65184,3.98047,-1.19765,-2.45292,0.58520,-0.05911,0.15213,0.79430,6.40623,-9.82547,3.42807
0.04462,0.62084,0.05725,0.44358,0.04937,-0.12698,-0.31372,1.57868,0.59782,3.89539,-1.61045,-2.22304,0.58811,-0.04964,0.14781,0.79361,9.90302,-1.65349,-6.61987
0.05465,0.62028,0.05303,0.50010,0.02693,-0.16223,-0.17899,1.53626,0.61434,3.23810,-1.31039,-2.08259,0.59168,-0.03972,0.14560,0.79192,8.53960,-2.14841,0.55235
0.06415,0.61988,0.04912,0.53672,0.01357,-0.18584,-0.07381,1.53495,0.58062,2.79898,-0.84713,-1.89799,0.59515,-0.02978,0.14152,0.79049,8.60625,-1.36772,-1.81298
0.07398,0.61990,0.04495,0.56946,0.00685,-0.20784,0.02426,1.54978,0.49757,2.53629,-0.30617,-1.71986,0.59895,-0.02072,0.13547,0.78897,7.60710,0.96084,-6.21382
0.08506,0.62041,0.04004,0.61429,0.00648,-0.23622,0.16029,1.63576,0.29597,2.37576,0.15258,-1.30033,0.60428,-0.01272,0.12409,0.78695,6.79958,4.64500,-12.29131
0.09595,0.62116,0.03564,0.64797,0.01185,-0.25247,0.22572,1.70882,0.16186,2.55004,0.48546,-0.94185,0.60838,-0.00373,0.11352,0.78547,4.52404,5.84076,-11.52216
0.10759,0.62297,0.03142,0.68546,0.02542,-0.26315,0.22799,1.77349,0.12765,2.87695,1.09645,-0.44942,0.61120,0.00707,0.10479,0.78448,1.34904,4.68107,-4.78782
0.11956,0.62525,0.02743,0.72010,0.04449,-0.26848,0.16043,1.83013,0.15937,2.95705,1.71310,-0.35482,0.61206,0.01958,0.09763,0.78451,-3.71377,5.26956,1.70542
0.13278,0.62896,0.02352,0.76497,0.08040,-0.27090,0.02967,1.89532,0.25844,2.65289,2.56491,0.18374,0.61084,0.03454,0.09206,0.78562,-6.71900,3.43898,7.41362
0.14601,0.63354,0.02009,0.80148,0.11948,-0.26601,-0.11775,2.04204,0.26530,2.28600,2.93770,0.66962,0.60851,0.05063,0.08262,0.78761,-9.72382,7.83021,4.61468
0.15918,0.63831,0.01693,0.83003,0.15464,-0.25828,-0.24290,2.22093,0.21130,2.21411,2.92953,0.69275,0.60586,0.06717,0.07006,0.78963,-11.43973,14.06152,-2.49256
0.17331,0.64438,0.01408,0.86421,0.20223,-0.24745,-0.40422,2.44563,0.17460,2.01188,2.94654,0.72628,0.60142,0.08631,0.05574,0.79230,-10.53125,14.12981,-1.58992
0.18746,0.65085,0.01130,0.89135,0.24492,-0.23757,-0.55629,2.61828,0.18093,1.79620,3.02138,0.68261,0.59600,0.10589,0.04253,0.79484,-11.34743,12.26632,2.14023
0.20185,0.65787,0.00857,0.91750,0.28775,-0.22881,-0.69631,2.81022,0.20589,1.80427,3.04633,0.59782,0.58973,0.12725,0.02865,0.79700,-9.54897,13.52768,2.57076
0.21633,0.66486,0.00583,0.94196,0.33130,-0.22223,-0.85155,2.99218,0.27396,1.76030,3.16366,0.33848,0.58175,0.15048,0.01530,0.79918,-10.19055,13.47985,5.06027
0.23114,0.67295,0.00292,0.96689,0.38263,-0.21962,-1.02620,3.15026,0.42262,1.45056,3.17375,-0.08539,0.57164,0.17578,0.00406,0.80144,-9.47230,10.44230,10.36800
0.24560,0.68074,-0.00029,0.98209,0.41928,-0.22218,-1.13611,3.25752,0.54702,1.10364,2.98791,-0.43211,0.56178,0.20045,-0.00654,0.80261,-7.79310,9.82258,11.52407
0.26013,0.68934,-0.00397,0.99409,0.45928,-0.23059,-1.23118,3.38190,0.66420,0.54608,2.89734,-0.81195,0.55100,0.22651,-0.01749,0.80299,-5.03081,9.27290,10.34659
