posX, posY, posZ, velX, velY, velZ, angVelX, angVelY, angVelZ, accX, accY, accZ, rotX, rotY, rotZ, rotW, angAccX, angAccY, angAccZ
0.06349,1.17271,-0.42516,-0.09235,0.14818,-0.07487,1.44518,0.44361,-0.30938,-0.73118,1.14619,-1.36558,0.15102,0.90098,0.03371,0.40534,-0.78852,1.92364,-4.21103
0.06141,1.17556,-0.42799,-0.10530,0.16193,-0.10134,1.16353,0.40068,-0.30830,-1.14037,1.13064,-2.02952,0.15324,0.90135,0.03329,0.40370,-17.54266,-1.88295,0.67586
0.05902,1.17869,-0.43126,-0.11975,0.17654,-0.12830,0.88327,0.35887,-0.31553,-1.39138,1.40932,-2.35197,0.15482,0.90162,0.03088,0.40269,-23.91334,-3.63846,0.12163
0.05592,1.18264,-0.43518,-0.14151,0.19989,-0.15900,0.69012,0.34368,-0.35872,-1.82699,1.87967,-2.39979,0.15789,0.90190,0.02856,0.40103,-18.34673,-1.18978,-2.06098
0.05183,1.18766,-0.43949,-0.17483,0.23681,-0.18905,0.80419,0.43474,-0.46635,-2.45788,2.56894,-2.01359,0.16689,0.90281,0.03287,0.39497,2.76056,4.08532,-5.64903
0.04686,1.19331,-0.44326,-0.21443,0.27530,-0.20518,1.14690,0.47988,-0.67180,-3.67825,2.69705,-0.72270,0.18276,0.90222,0.04342,0.38822,23.06619,6.73696,-9.60301
0.04105,1.20067,-0.44703,-0.25761,0.33049,-0.21852,1.56245,0.67939,-0.70828,-2.51160,5.05033,-1.14655,0.19711,0.90367,0.05898,0.37556,26.69973,10.88346,-11.62043
0.03448,1.20988,-0.45075,-0.30548,0.40486,-0.22764,1.94095,0.70654,-0.71244,-3.53605,4.66951,-0.12475,0.21088,0.90308,0.07709,0.36610,25.66381,2.82547,-0.14544
0.02738,1.21892,-0.45421,-0.35021,0.45983,-0.23113,2.14995,0.67745,-0.69538,-3.93179,4.73474,-0.25326,0.22274,0.90174,0.09301,0.35861,18.95783,-3.18083,-1.07592
0.01889,1.22950,-0.45794,-0.40574,0.52523,-0.23830,2.29429,0.61986,-0.64194,-4.06001,4.81922,-0.57392,0.23300,0.89992,0.10911,0.35206,11.87901,-4.69778,2.34092
0.00906,1.24140,-0.46193,-0.47180,0.60036,-0.24757,2.55941,0.61695,-0.60282,-4.38798,4.59233,-0.99768,0.24498,0.89756,0.12909,0.34308,12.60513,-3.89921,2.22834
-0.00024,1.25258,-0.46589,-0.51398,0.64575,-0.25444,2.86746,0.72411,-0.63324,-4.29168,4.48209,-1.07922,0.26013,0.89493,0.15063,0.32975,24.81208,3.95991,-0.35655
-0.01167,1.26602,-0.47019,-0.57844,0.71508,-0.26512,3.47931,1.01717,-0.74228,-3.98697,4.24628,-0.66035,0.28251,0.89080,0.18063,0.30667,38.63398,16.78436,-4.83777
-0.02355,1.27984,-0.47463,-0.63891,0.77945,-0.27583,3.89146,1.28382,-0.81000,-3.67791,3.99121,-0.23974,0.30316,0.88599,0.20789,0.28265,33.14233,19.00713,-3.87454
-0.03575,1.29380,-0.47932,-0.69121,0.83118,-0.28797,3.80734,1.32847,-0.76458,-3.78215,3.68136,-0.38636,0.31571,0.88228,0.22538,0.26668,2.02572,6.26336,3.23100
-0.04838,1.30747,-0.48399,-0.73981,0.87132,-0.29666,3.58484,1.23014,-0.72568,-4.51456,3.21427,-0.68371,0.32569,0.87810,0.23926,0.25617,-16.04065,-6.61524,5.90640
-0.06232,1.32230,-0.48908,-0.79775,0.92306,-0.30806,3.37102,1.44130,-0.58048,-3.92656,4.22896,-1.05336,0.33328,0.87769,0.25007,0.23675,-21.15637,9.77356,11.33308
-0.07692,1.33808,-0.49367,-0.85239,0.97526,-0.30930,3.39443,1.66700,-0.47958,-4.19602,3.48502,0.24574,0.34322,0.87528,0.26567,0.21332,1.25156,13.66544,12.79293
-0.09248,1.35436,-0.49737,-0.90902,1.01992,-0.30011,3.41976,1.88677,-0.38963,-3.96429,3.03574,0.99896,0.35306,0.87235,0.28089,0.18828,5.19433,13.92210,9.21897
-0.10799,1.37053,-0.50069,-0.95274,1.05409,-0.28676,3.32333,2.02579,-0.30183,-3.43915,2.73812,1.62803,0.36106,0.86982,0.29285,0.16522,-2.37200,12.70682,10.29789
-0.12469,1.38746,-0.50281,-1.00489,1.09267,-0.25790,3.09290,2.10046,-0.17277,-3.21014,2.08933,2.24415,0.36576,0.86880,0.30089,0.14448,-12.86385,3.32657,11.32924
-0.14134,1.40402,-0.50391,-1.04555,1.11598,-0.22086,2.95429,2.14482,-0.11567,-2.80732,1.40212,2.91857,0.37191,0.86620,0.30982,0.12405,-11.60782,1.78106,8.00723
-0.15802,1.42018,-0.50385,-1.07867,1.12970,-0.17400,2.91643,2.20102,-0.12617,-2.21761,0.73429,3.50349,0.38017,0.86172,0.32000,0.10254,-3.99599,3.52904,2.10370
-0.17471,1.43607,-0.50282,-1.10473,1.13556,-0.12213,2.92008,2.27819,-0.17116,-1.75142,0.23247,3.82569,0.38977,0.85590,0.33034,0.07992,-0.19935,5.76850,-1.73460
-0.19156,1.45162,-0.50076,-1.12729,1.13536,-0.06801,2.89892,2.35455,-0.20113,-1.56821,-0.12899,3.89915,0.39900,0.84983,0.33962,0.05703,-1.00835,5.77863,-1.66525
-0.20850,1.46682,-0.49792,-1.14688,1.13045,-0.01328,2.84687,2.46105,-0.19775,-1.23740,-0.37950,3.97751,0.40748,0.84400,0.34718,0.03294,-2.73194,7.24263,0.84127
-0.22548,1.48189,-0.49440,-1.16251,1.12393,0.04060,2.65574,2.50012,-0.12319,-0.86941,-0.57990,4.00577,0.41281,0.84033,0.35117,0.01132,-9.57240,3.97858,6.49873
-0.24239,1.49654,-0.49001,-1.17319,1.11389,0.09632,2.43236,2.50906,-0.02126,-0.62045,-0.73400,4.07768,0.41630,0.83775,0.35326,-0.00903,-16.50769,-2.11563,10.53999
-0.25895,1.51070,-0.48442,-1.17659,1.09840,0.15852,2.33667,2.55310,0.03113,0.03727,-1.20858,4.61725,0.42105,0.83331,0.35684,-0.03128,-7.62240,2.58053,6.63665
-0.27506,1.52437,-0.47764,-1.17229,1.07714,0.22531,2.26795,2.53276,0.05481,0.61613,-1.70499,4.88874,0.42563,0.82806,0.36120,-0.05182,-4.15482,-0.15913,2.22569
-0.29079,1.53733,-0.46984,-1.16260,1.05066,0.29204,2.15160,2.47596,0.08453,0.89362,-1.96122,4.73723,0.42926,0.82345,0.36429,-0.07043,-6.92471,-4.27150,3.10800
-0.30623,1.55009,-0.46181,-1.15117,1.02652,0.34812,2.05722,2.42569,0.11905,1.03747,-1.93513,4.56942,0.43238,0.81873,0.36719,-0.08890,-8.47072,-4.99897,3.14465
-0.32128,1.56227,-0.45249,-1.13669,0.99761,0.41011,1.94726,2.37506,0.19334,1.11041,-2.14081,4.25459,0.43389,0.81489,0.36911,-0.10704,-6.17781,-5.23762,5.31348
-0.33563,1.57362,-0.44174,-1.11443,0.96097,0.47741,1.82403,2.32768,0.29525,1.76229,-2.45466,4.04926,0.43408,0.81184,0.36994,-0.12504,-6.48349,-3.34300,7.01869
-0.34959,1.58481,-0.43152,-1.09158,0.92953,0.52514,1.69916,2.24108,0.35960,2.22919,-2.86235,3.85508,0.43420,0.80883,0.37065,-0.14103,-7.18510,-6.46640,6.27908
-0.36199,1.59419,-0.41955,-1.05047,0.87688,0.58855,1.40298,1.99640,0.46905,2.42788,-3.16710,3.22893,0.43125,0.80981,0.36840,-0.15003,-14.73390,-14.47987,7.31886
-0.37436,1.60344,-0.40811,-1.01682,0.83132,0.63118,1.19503,1.81790,0.52318,2.30429,-3.24407,2.58580,0.42938,0.80976,0.36670,-0.15955,-16.00159,-15.82729,5.57209
-0.38680,1.61280,-0.39734,-0.99218,0.79826,0.65595,1.10410,1.77126,0.52494,2.33979,-3.14080,2.05481,0.42944,0.80766,0.36559,-0.17208,-11.31857,-10.08133,2.92660
-0.39729,1.61987,-0.38579,-0.94331,0.73968,0.68847,1.10984,1.90465,0.44012,2.69118,-3.22002,1.35621,0.43337,0.80230,0.36428,-0.18922,-1.42096,5.98497,-2.79313
-0.40764,1.62704,-0.37496,-0.90088,0.69335,0.70548,1.17480,2.12470,0.31327,3.24658,-3.34229,1.00080,0.43982,0.79420,0.36313,-0.20960,3.83458,16.74828,-8.84260
-0.41688,1.63331,-0.36423,-0.85035,0.64254,0.71789,1.12177,2.24724,0.23322,3.34545,-3.31919,0.67180,0.44553,0.78761,0.35984,-0.22734,-2.03545,10.09866,-5.47473
-0.42680,1.64025,-0.35381,-0.82037,0.61151,0.72332,1.00109,2.23085,0.24546,3.13076,-3.24421,0.58030,0.44828,0.78367,0.35559,-0.24180,-8.89730,2.16605,-0.08415
-0.43541,1.64578,-0.34321,-0.77959,0.56816,0.73100,0.82402,2.14768,0.28869,2.98265,-3.03956,0.58028,0.44975,0.78176,0.34985,-0.25333,-12.69360,-5.69654,4.84101
-0.44332,1.65073,-0.33251,-0.73785,0.52598,0.73966,0.72474,2.09320,0.28512,2.87207,-2.89981,0.59473,0.45203,0.77859,0.34524,-0.26512,-9.04455,-6.28471,2.82770
-0.45055,1.65507,-0.32164,-0.69364,0.48263,0.74796,0.75043,2.18179,0.16748,3.12650,-3.03870,0.50954,0.45807,0.77095,0.34212,-0.28066,-0.96882,3.73043,-5.45224
-0.45688,1.65891,-0.31078,-0.64539,0.44097,0.75434,0.83584,2.32664,-0.01790,3.55118,-2.92862,0.35084,0.46679,0.75997,0.34020,-0.29802,4.33014,11.46641,-13.51566
-0.46262,1.66238,-0.30002,-0.59829,0.40229,0.75797,0.84235,2.40719,-0.15983,3.45687,-2.73119,0.23282,0.47528,0.74982,0.33705,-0.31349,-0.06299,8.35010,-11.26622
-0.46329,1.66566,-0.28787,-0.54052,0.36624,0.76079,0.79862,2.41933,-0.23486,3.22633,-2.27065,0.22278,0.48263,0.74099,0.33296,-0.32732,-3.26313,2.78090,-5.76392
-0.46350,1.66878,-0.27577,-0.48625,0.33526,0.76573,0.77849,2.40134,-0.25279,2.87841,-1.88064,0.42043,0.48825,0.73275,0.32925,-0.34101,-3.15820,-1.56607,-1.44582
-0.46432,1.67146,-0.26389,-0.43279,0.30449,0.77420,0.82286,2.39312,-0.26582,2.88376,-1.76377,0.54076,0.49307,0.72352,0.32691,-0.35570,2.38218,-0.04537,-1.80499
-0.46377,1.67429,-0.25211,-0.38224,0.28061,0.77928,0.82971,2.33597,-0.24470,2.91237,-1.70473,0.28678,0.49667,0.71549,0.32425,-0.36912,2.01042,-3.05680,0.45375
-0.46261,1.67693,-0.24073,-0.33124,0.25911,0.77992,0.78606,2.22331,-0.19767,2.91860,-1.47654,-0.05607,0.49922,0.70922,0.32109,-0.38038,-2.00941,-7.09595,2.79190
-0.46285,1.67917,-0.22997,-0.28274,0.23750,0.77619,0.70283,2.09800,-0.12071,2.66723,-1.25624,-0.32637,0.50085,0.70458,0.31693,-0.39022,-5.04486,-9.05946,5.45027
-0.46432,1.68129,-0.21951,-0.24509,0.21932,0.77100,0.66149,2.04338,-0.08819,2.62597,-1.24369,-0.39948,0.50327,0.69854,0.31290,-0.40106,-3.41005,-4.90276,3.47674
-0.46572,1.68325,-0.20908,-0.21478,0.20294,0.76643,0.64928,2.00604,-0.06814,2.46706,-1.45829,-0.38238,0.50557,0.69197,0.30927,-0.41223,-1.37607,-2.72000,1.00000
-0.46645,1.68470,-0.19883,-0.18133,0.18246,0.76017,0.63100,1.95712,-0.05149,2.40845,-1.44988,-0.54202,0.50767,0.68566,0.30568,-0.42273,-1.35159,-2.92869,1.73674
-0.46653,1.68570,-0.18887,-0.14469,0.15931,0.75072,0.60732,1.89060,-0.02821,2.21674,-1.47304,-0.64159,0.50928,0.67991,0.30219,-0.43249,-0.82608,-4.60673,1.55674
-0.46708,1.68691,-0.17886,-0.12308,0.14444,0.74422,0.60781,1.86254,-0.02683,2.09512,-1.45773,-0.65832,0.51120,0.67320,0.29891,-0.44286,-1.00241,-3.52361,0.57801
-0.46660,1.68730,-0.16917,-0.09112,0.12091,0.73447,0.61720,1.82169,-0.01633,1.95703,-1.45973,-0.57335,0.51253,0.66672,0.29597,-0.45299,0.58930,-2.13929,0.33855
-0.46593,1.68748,-0.15946,-0.06216,0.09843,0.72669,0.64995,1.73604,0.00159,1.71891,-1.37955,-0.47446,0.51269,0.66082,0.29435,-0.46240,2.04602,-5.37059,0.67838
-0.46523,1.68760,-0.14986,-0.03838,0.07940,0.71889,0.69840,1.70453,0.00045,1.65555,-1.27628,-0.64167,0.51315,0.65381,0.29274,-0.47277,3.12348,-3.11925,-0.09242
-0.46441,1.68770,-0.14045,-0.01820,0.06434,0.70988,0.73949,1.68410,-0.01421,1.70608,-1.29125,-0.85510,0.51381,0.64635,0.29131,-0.48308,3.93909,-1.27399,-1.72781
-0.46315,1.68743,-0.13145,0.00416,0.04714,0.69680,0.75057,1.63257,-0.01478,1.57930,-1.26343,-1.03298,0.51414,0.63978,0.28981,-0.49230,0.97874,-3.19526,-0.54551
-0.46165,1.68702,-0.12272,0.02527,0.03148,0.68265,0.74644,1.55308,0.01169,1.56936,-1.06422,-1.01582,0.51364,0.63436,0.28825,-0.50067,0.14573,-4.56495,0.59014
-0.46013,1.68665,-0.11394,0.04222,0.01985,0.67212,0.75016,1.42853,0.06158,1.45978,-0.94248,-0.83550,0.51172,0.63039,0.28747,-0.50804,0.49602,-8.63183,2.93522
-0.45816,1.68593,-0.10522,0.06215,0.00551,0.66287,0.78840,1.20220,0.15965,1.18358,-0.86558,-0.48602,0.50666,0.62923,0.28878,-0.51378,2.69223,-14.34239,5.04813
-0.45612,1.68510,-0.09652,0.07968,-0.00803,0.65508,0.85788,0.98748,0.23434,1.01128,-0.73606,-0.53004,0.50072,0.62811,0.29146,-0.51943,4.39254,-14.87764,4.29878
-0.45400,1.68432,-0.08804,0.09485,-0.01814,0.64533,0.94835,0.89026,0.22970,0.94763,-0.65171,-0.75915,0.49625,0.62426,0.29456,-0.52656,6.17372,-8.84438,-0.39949
-0.45176,1.68344,-0.07995,0.10872,-0.02757,0.63176,1.02581,0.81602,0.20212,1.02263,-0.72476,-1.18051,0.49216,0.61980,0.29810,-0.53363,6.55517,-4.07092,-3.15633
-0.44938,1.68253,-0.07242,0.12176,-0.03553,0.61259,1.04755,0.69978,0.20217,0.94940,-0.50793,-1.60327,0.48769,0.61707,0.30140,-0.53902,2.52924,-7.84706,-1.31876
-0.44689,1.68179,-0.06548,0.13377,-0.03910,0.58855,1.04795,0.55856,0.20878,0.77936,-0.13543,-1.84812,0.48286,0.61548,0.30502,-0.54314,0.03220,-9.71442,-0.39219
-0.44446,1.68111,-0.05903,0.14228,-0.04108,0.56224,1.02770,0.40781,0.25693,0.54802,-0.22612,-1.94879,0.47706,0.61545,0.30811,-0.54654,-0.26446,-10.39726,2.15919
-0.44198,1.68037,-0.05302,0.14979,-0.04374,0.53489,0.98704,0.26325,0.29572,0.52216,-0.18378,-1.95200,0.47138,0.61617,0.31104,-0.54900,-2.37813,-11.19475,3.00585
-0.43935,1.67953,-0.04738,0.15791,-0.04712,0.50776,0.95370,0.17599,0.28625,0.51368,-0.18966,-1.85456,0.46679,0.61579,0.31418,-0.55155,-2.98477,-8.44520,-0.05419
-0.43658,1.67864,-0.04184,0.16652,-0.05070,0.48527,0.93859,0.19001,0.21868,0.74620,-0.22756,-1.76595,0.46411,0.61279,0.31726,-0.55537,-2.03465,-0.94161,-3.52960
-0.43347,1.67762,-0.03672,0.17802,-0.05514,0.46139,0.93618,0.19076,0.11550,0.86253,-0.39727,-1.66805,0.46222,0.60897,0.32165,-0.55861,0.03050,1.67970,-7.49716
-0.43031,1.67643,-0.03180,0.18786,-0.06145,0.43945,0.92195,0.18525,0.02201,0.59386,-0.47733,-1.53871,0.46070,0.60525,0.32612,-0.56132,-1.04324,-1.10692,-6.84108
-0.42718,1.67521,-0.02701,0.19532,-0.06652,0.42046,0.92585,0.21619,-0.06990,0.58994,-0.28171,-1.60587,0.45963,0.60035,0.33063,-0.56480,-0.72486,2.23250,-6.63990
-0.42386,1.67395,-0.02300,0.20387,-0.07141,0.39406,0.92109,0.25858,-0.15731,0.52674,-0.42731,-1.72525,0.45920,0.59488,0.33496,-0.56838,0.19821,4.18054,-5.96828
-0.42058,1.67269,-0.01929,0.21036,-0.07520,0.36789,0.86826,0.20818,-0.17882,0.44584,-0.17799,-1.64578,0.45775,0.59237,0.33869,-0.56996,-3.07195,-2.27919,-2.06257
-0.41717,1.67153,-0.01572,0.21766,-0.07698,0.34449,0.82757,0.16848,-0.20392,0.44065,-0.02806,-1.22305,0.45634,0.58980,0.34256,-0.57144,-3.39021,-4.00780,-0.66125
-0.41367,1.67033,-0.01184,0.22477,-0.07890,0.33060,0.83666,0.19168,-0.26344,0.62444,-0.08126,-1.01083,0.45551,0.58508,0.34713,-0.57418,-0.37081,0.60573,-3.69594
-0.40988,1.66905,-0.00815,0.23477,-0.08165,0.31698,0.88576,0.25619,-0.36548,0.71482,-0.18516,-0.91816,0.45548,0.57806,0.35286,-0.57781,3.10072,4.23679,-6.57673
-0.40578,1.66777,-0.00476,0.24734,-0.08380,0.30149,0.93392,0.35138,-0.46703,0.91082,-0.13084,-1.06627,0.45611,0.56971,0.35844,-0.58216,3.51443,7.11966,-6.60445
-0.40148,1.66656,-0.00147,0.26051,-0.08445,0.28765,0.96019,0.36182,-0.52456,1.08513,-0.11397,-1.04791,0.45576,0.56303,0.36429,-0.58530,2.09259,3.28874,-4.31257
-0.39720,1.66532,0.00194,0.27022,-0.08540,0.27878,0.96709,0.31346,-0.54589,1.03567,-0.15222,-0.90113,0.45453,0.55795,0.37032,-0.58733,0.91489,-2.30995,-3.72859
-0.39250,1.66410,0.00502,0.28386,-0.08584,0.26703,0.95718,0.13548,-0.52537,0.84271,0.02505,-0.77516,0.45123,0.55634,0.37752,-0.58682,-0.68640,-10.06237,-0.03047
-0.38783,1.66310,0.00808,0.29462,-0.08279,0.25723,0.93551,-0.04440,-0.47787,0.74532,0.36826,-0.64866,0.44707,0.55614,0.38439,-0.58574,-2.01349,-13.70712,2.62364
-0.38291,1.66242,0.01106,0.30681,-0.07582,0.24846,0.94926,-0.15829,-0.45772,0.86762,0.69646,-0.49037,0.44290,0.55472,0.39168,-0.58541,-0.41540,-10.14933,1.79468
-0.37753,1.66198,0.01397,0.32351,-0.06647,0.24020,1.00536,-0.21004,-0.47011,1.12567,0.61721,-0.39886,0.43881,0.55150,0.39972,-0.58611,3.25631,-4.12172,-0.63749
-0.37198,1.66151,0.01700,0.33931,-0.05959,0.23543,1.09357,-0.20291,-0.51693,1.39259,0.70295,-0.26919,0.43512,0.54611,0.40852,-0.58783,5.42758,-0.53461,-2.69351
-0.36583,1.66116,0.02008,0.36044,-0.05266,0.23262,1.22861,-0.15902,-0.57690,1.63761,0.33479,-0.10402,0.43097,0.53864,0.41836,-0.59085,9.52897,2.75468,-3.89693
-0.35897,1.66049,0.02329,0.38814,-0.05179,0.23222,1.38003,-0.19057,-0.67022,2.10955,-0.04623,-0.18403,0.42585,0.53100,0.43074,-0.59259,10.33215,0.62562,-5.40545
-0.35201,1.65973,0.02644,0.41149,-0.05244,0.23088,1.43565,-0.34828,-0.74709,2.09311,-0.13170,-0.33458,0.42018,0.52670,0.44389,-0.59076,6.59293,-9.06274,-6.92633
-0.34424,1.65907,0.02930,0.44205,-0.05123,0.22549,1.43463,-0.65571,-0.82861,1.92239,0.19167,-0.51399,0.41315,0.52613,0.45917,-0.58451,0.00567,-17.11229,-7.41433
-0.33651,1.65875,0.03201,0.46591,-0.04518,0.21896,1.38054,-0.98770,-0.85740,1.57518,0.44514,-0.45016,0.40510,0.52839,0.47387,-0.57632,-4.37008,-23.45127,-5.64072
-0.32848,1.65860,0.03469,0.48970,-0.03789,0.21346,1.33603,-1.30631,-0.87925,1.38903,0.46413,-0.13706,0.39604,0.53157,0.48899,-0.56699,-4.82576,-20.52954,-2.96381
-0.32062,1.65830,0.03764,0.50581,-0.03434,0.21306,1.33687,-1.51115,-0.91476,1.23719,0.24379,0.17832,0.38705,0.53291,0.50426,-0.55850,-1.73633,-17.72637,-4.33628
-0.31236,1.65789,0.04090,0.52441,-0.03340,0.21769,1.41116,-1.69464,-0.98695,0.92831,-0.03611,0.48108,0.37682,0.53274,0.52167,-0.54959,3.61138,-13.09328,-5.29513
-0.30423,1.65734,0.04425,0.53741,-0.03477,0.22268,1.52378,-1.72931,-1.04362,0.74997,-0.06557,0.38980,0.36716,0.52952,0.53833,-0.54314,7.56195,-4.48799,-4.16562
-0.29605,1.65672,0.04752,0.54820,-0.03687,0.22536,1.63516,-1.68303,-1.08716,0.68868,-0.22809,0.08888,0.35809,0.52439,0.55429,-0.53810,8.92287,1.76199,-2.08146
-0.28790,1.65603,0.05066,0.55613,-0.03960,0.22535,1.70515,-1.65162,-1.11943,0.66087,-0.31759,-0.11572,0.34913,0.51940,0.56980,-0.53259,7.55673,3.07589,-1.71859
-0.27958,1.65517,0.05363,0.56491,-0.04433,0.22274,1.75536,-1.62533,-1.14309,0.69996,-0.45801,-0.28540,0.34015,0.51423,0.58499,-0.52692,5.02187,2.84430,-1.03088
-0.27118,1.65405,0.05657,0.57310,-0.05203,0.22026,1.71653,-1.77659,-1.17701,0.58533,-0.65752,-0.21771,0.32971,0.51299,0.60084,-0.51684,-1.73925,-6.96900,-2.99372
-0.26290,1.65280,0.05961,0.57769,-0.06010,0.21990,1.64225,-1.97305,-1.22901,0.41182,-0.69741,0.02781,0.31884,0.51343,0.61694,-0.50409,-6.50370,-14.11827,-5.49068
-0.25450,1.65132,0.06275,0.58310,-0.06974,0.22109,1.60000,-2.15713,-1.31590,0.29468,-0.56826,0.21389,0.30759,0.51331,0.63408,-0.48973,-4.70884,-14.21849,-8.30625
-0.24595,1.64983,0.06590,0.58958,-0.07761,0.22219,1.63057,-2.21014,-1.40274,0.48430,-0.35086,0.19732,0.29709,0.50991,0.65124,-0.47710,1.49531,-5.67164,-6.76715
-0.23711,1.64841,0.06894,0.59924,-0.08269,0.22139,1.72422,-2.13100,-1.48189,0.60299,-0.10984,-0.10142,0.28782,0.50284,0.66811,-0.46684,6.17875,3.45928,-4.83471
-0.22811,1.64710,0.07178,0.60953,-0.08513,0.21751,1.82106,-1.97371,-1.52198,0.74558,-0.26481,-0.39504,0.27965,0.49382,0.68376,-0.45870,8.37706,10.39710,-0.79735
-0.21896,1.64565,0.07446,0.61983,-0.08929,0.21221,1.89811,-1.84954,-1.54933,0.80609,-0.46716,-0.43270,0.27137,0.48456,0.69905,-0.45043,7.03057,9.55092,0.06986
-0.20961,1.64375,0.07706,0.63108,-0.09969,0.20660,1.92241,-1.81905,-1.62913,0.93259,-0.81487,-0.35207,0.26308,0.47625,0.71486,-0.43926,2.90419,3.50567,-3.04907
-0.20013,1.64180,0.07978,0.64208,-0.10850,0.20416,1.90858,-1.86111,-1.76473,1.19151,-0.62923,-0.10824,0.25488,0.46867,0.73140,-0.42478,0.42399,-1.28624,-9.21732
-0.19006,1.63978,0.08260,0.65959,-0.11635,0.20388,1.93723,-1.85676,-1.94620,1.20983,-0.50581,0.12529,0.24790,0.45869,0.74883,-0.40915,1.82650,-0.34058,-13.50911
-0.17958,1.63742,0.08545,0.67981,-0.12813,0.20399,2.04745,-1.74119,-2.08383,1.06888,-0.94410,-0.04467,0.24186,0.44496,0.76604,-0.39585,8.44419,6.36646,-7.85174
-0.16928,1.63477,0.08824,0.69290,-0.14164,0.20324,2.13427,-1.64290,-2.13515,1.05596,-1.41321,-0.14367,0.23508,0.43135,0.78194,-0.38372,9.11488,8.60349,-2.90205
-0.15883,1.63123,0.09096,0.70531,-0.16611,0.20153,2.19861,-1.57718,-2.22857,0.89089,-2.07219,-0.00601,0.22880,0.41717,0.79802,-0.36984,6.00562,5.57353,-3.79774
-0.14833,1.62682,0.09385,0.71563,-0.19846,0.20294,2.33019,-1.53016,-2.34628,0.72606,-2.50539,0.18159,0.22176,0.40037,0.81516,-0.35502,9.42880,2.74197,-6.88194
-0.13777,1.62195,0.09695,0.72473,-0.23030,0.20715,2.56421,-1.44861,-2.43107,0.56416,-2.60048,0.84582,0.21384,0.37934,0.83288,-0.34160,13.99867,4.31805,-6.90151
-0.12724,1.61553,0.10017,0.73116,-0.27919,0.21204,3.01395,-1.26725,-2.36756,0.06965,-3.24000,0.04971,0.20339,0.35047,0.85073,-0.33476,29.31400,5.45846,7.17541
-0.11699,1.60867,0.10314,0.73233,-0.32487,0.21232,3.34716,-1.13828,-2.24854,0.02621,-3.46694,-0.05223,0.19201,0.32252,0.86656,-0.32892,26.35153,4.38287,12.10686
-0.10694,1.60132,0.10612,0.73010,-0.36752,0.21272,3.58014,-1.10449,-2.14345,-0.30544,-3.86159,-0.00351,0.17900,0.29571,0.88141,-0.32192,20.61707,-0.88447,10.67157
-0.09740,1.59176,0.10910,0.72043,-0.43490,0.21287,3.88878,-1.16393,-2.03660,-0.73090,-4.71049,-0.05256,0.16172,0.26608,0.89661,-0.31485,17.86893,-7.36069,7.41050
-0.08835,1.58109,0.11187,0.70539,-0.50572,0.20994,4.12321,-1.29244,-1.99867,-1.23803,-5.60504,-0.44073,0.14278,0.23688,0.91130,-0.30502,16.07376,-11.56090,3.21489
-0.07958,1.57014,0.11440,0.68977,-0.56391,0.20399,4.26827,-1.42106,-2.03081,-1.60161,-6.20853,-0.87224,0.12387,0.20818,0.92509,-0.29244,14.04548,-12.73316,-2.19027
-0.07265,1.55423,0.11577,0.64965,-0.68382,0.18189,4.53203,-1.71616,-2.21000,-2.60599,-7.20612,-1.67384,0.09886,0.17564,0.94053,-0.27346,13.60625,-14.47262,-12.49737
-0.06641,1.53793,0.11644,0.60671,-0.78746,0.15327,4.76276,-1.96681,-2.39777,-3.42584,-7.74806,-2.40660,0.07338,0.14204,0.95424,-0.25271,15.37271,-15.32449,-16.24897
-0.06152,1.51989,0.11585,0.55218,-0.89545,0.11145,5.00208,-2.23719,-2.63773,-4.37177,-7.78116,-3.58372,0.04554,0.10653,0.96669,-0.22821,16.59126,-15.84281,-20.11255
-0.05833,1.50042,0.11348,0.48337,-1.00218,0.05136,5.24352,-2.53433,-2.84909,-5.71516,-7.42380,-5.08950,0.01457,0.06974,0.97680,-0.20193,16.71564,-16.41090,-20.58155
-0.05819,1.47914,0.10774,0.38090,-1.11508,-0.04940,5.53257,-2.97311,-3.01838,-7.34728,-6.61844,-7.63137,-0.02348,0.03138,0.98396,-0.17402,15.49400,-23.87479,-17.27809
-0.05887,1.45886,0.10030,0.28823,-1.18776,-0.15403,5.77982,-3.38357,-3.11285,-8.33629,-5.51052,-9.76719,-0.06404,-0.00730,0.98710,-0.14653,15.61887,-30.79313,-17.09236
-0.06279,1.43812,0.08793,0.16758,-1.25180,-0.31013,6.08842,-3.96441,-3.18152,-9.13182,-3.54176,-12.48405,-0.11337,-0.04780,0.98540,-0.11771,16.87552,-38.38935,-17.68346
-0.06972,1.41832,0.06935,0.02480,-1.28751,-0.53093,6.40815,-4.74876,-3.21179,-8.98719,-0.75805,-15.14756,-0.17262,-0.08868,0.97701,-0.08831,12.42366,-47.03519,-18.06027
-0.08548,1.40270,0.05708,-0.09309,-1.27683,-0.75669,6.62472,-5.51543,-3.27217,-7.83199,2.54421,-17.52439,-0.23490,-0.12756,0.96189,-0.05762,10.02009,-52.20411,-21.43053
-0.10280,1.38692,0.04361,-0.17728,-1.22545,-0.97471,6.70515,-6.07231,-3.45501,-5.79853,5.95838,-19.35073,-0.29415,-0.16311,0.94145,-0.02311,6.43723,-44.51098,-29.81011
-0.12281,1.37612,0.02467,-0.24085,-1.10959,-1.25126,6.70657,-6.38145,-3.88932,-2.37215,10.59428,-21.09266,-0.34800,-0.19529,0.91670,0.02021,8.77753,-18.64428,-34.59218
-0.14010,1.37125,0.00192,-0.24941,-0.92689,-1.54255,6.80254,-6.15865,-4.38561,1.88487,15.31526,-20.89398,-0.38630,-0.22980,0.89058,0.06949,22.66018,18.06045,-28.98003
-0.15363,1.37101,-0.02261,-0.19882,-0.70488,-1.80630,7.04973,-5.74042,-4.61637,5.65496,17.39373,-17.58045,-0.41524,-0.26949,0.86118,0.11541,29.96929,26.27113,0.49718
-0.16293,1.37558,-0.04756,-0.09041,-0.44588,-2.02367,7.30044,-5.17186,-4.55184,9.93934,20.93817,-13.92590,-0.43449,-0.31144,0.83073,0.15525,26.07174,24.66059,22.26221
-0.16776,1.38448,-0.07113,0.06264,-0.15310,-2.18066,7.27082,-4.91028,-4.29980,10.77514,21.11359,-8.87833,-0.45646,-0.34706,0.79797,0.18557,-0.13847,21.24970,40.97099
-0.16850,1.39818,-0.09087,0.28905,0.19699,-2.27643,6.74557,-4.88676,-3.25538,14.62066,22.09135,-2.92494,-0.47962,-0.37784,0.77014,0.18461,-54.43133,-14.30696,66.48380
-0.16494,1.41035,-0.11032,0.47337,0.45253,-2.28958,6.04391,-5.25573,-2.61989,15.10586,21.55387,1.14378,-0.51383,-0.39881,0.73733,0.18240,-60.95377,-21.71300,16.90816
-0.15934,1.42464,-0.12464,0.69360,0.73049,-2.24276,4.71183,-6.17421,-2.02171,15.62080,20.14300,5.84441,-0.56580,-0.40102,0.70248,0.15993,-99.81553,-51.71604,-11.99239
-0.15206,1.44041,-0.13535,0.91391,1.00167,-2.13118,2.87417,-7.32514,-1.76528,15.29472,19.82572,10.40127,-0.63107,-0.38008,0.66449,0.12551,-125.08930,-61.60364,-52.10776
-0.14374,1.45750,-0.14482,1.08731,1.22683,-1.98808,0.96755,-8.07987,-2.01148,14.37194,18.75594,13.33572,-0.69496,-0.33827,0.62748,0.09422,-130.24330,-52.92860,-95.47830
-0.14145,1.47689,-0.14101,1.29613,1.53160,-1.75916,-1.49542,-8.50214,-2.70793,13.12469,20.47396,15.26821,-0.75718,-0.26124,0.59591,0.05766,-110.49390,-14.81215,-118.86090
-0.13778,1.49923,-0.13690,1.47258,1.83577,-1.54627,-3.66942,-8.69283,-3.69788,12.46400,23.86076,15.13980,-0.81091,-0.16957,0.55951,0.02496,-91.62651,-4.90583,-137.15320
-0.13176,1.52614,-0.13522,1.62431,2.12750,-1.37329,-5.59902,-9.02816,-4.95703,12.52837,25.88644,13.67696,-0.85918,-0.06034,0.50806,-0.00688,-81.63538,-31.56399,-162.86320
-0.13161,1.55726,-0.12761,1.83152,2.54550,-1.17395,-7.69362,-8.94809,-7.26326,15.48717,27.06777,11.90973,-0.88815,0.09372,0.44926,-0.02390,-50.61673,-56.50600,-189.50130
-0.12585,1.59487,-0.12590,2.05845,2.95101,-1.04107,-8.26925,-7.74821,-9.34444,20.32983,29.31810,9.63380,-0.88331,0.22864,0.40916,-0.00808,38.31391,-29.71545,-171.91850
-0.11002,1.63969,-0.13352,2.36728,3.38521,-0.95607,-7.05764,-6.08795,-11.89893,26.98245,30.84228,5.61579,-0.85298,0.35241,0.37958,0.06435,165.88990,-46.50658,-148.97050
-0.08262,1.69122,-0.14098,2.84475,3.80944,-0.86937,-5.03226,-3.83890,-13.81803,42.50562,29.42499,7.68744,-0.79283,0.45411,0.37537,0.15588,202.08410,-64.53710,-110.83800
-0.04106,1.74575,-0.14420,3.54066,4.16034,-0.76908,-2.54915,-3.03968,-15.64188,57.62505,21.11306,7.30845,-0.72182,0.53986,0.33889,0.26960,180.28870,-184.30260,-97.89053
0.02057,1.79559,-0.14265,4.46043,4.34454,-0.59748,-1.68623,-3.21238,-17.86015,74.70416,5.90150,14.30937,-0.62576,0.64418,0.25862,0.35576,44.53120,-114.87860,-109.35480
0.10527,1.83109,-0.13463,5.56733,4.23989,-0.30856,-1.46735,-3.36069,-19.86098,85.65969,-20.87209,28.42914,-0.50234,0.73971,0.16238,0.41729,-5.23023,-38.61935,-153.68610
0.21265,1.83312,-0.10990,6.95424,3.63966,0.25349,0.46314,-2.75787,-21.68007,88.45903,-58.20705,46.07584,-0.33431,0.79586,0.09780,0.49526,53.09245,-102.35800,-101.86740
0.32356,1.81636,-0.07128,7.95960,2.75774,0.84808,2.77652,-2.23161,-22.96328,79.07205,-91.62539,53.46949,-0.14584,0.81261,0.04593,0.56239,62.56947,-193.88910,-96.61043
0.42818,1.72696,-0.00669,8.96376,0.89360,1.76534,5.23022,-1.04643,-24.71356,45.30123,-144.32790,59.65368,0.08708,0.80122,0.00415,0.59198,68.18053,-135.46360,-129.17340
0.50400,1.59361,0.06139,9.22403,-1.42916,2.58432,8.50265,1.11393,-26.33330,-11.71546,-190.29700,51.59760,0.34917,0.74762,-0.00473,0.56490,92.95375,-184.04050,-154.97480
0.51024,1.41704,0.12158,8.36534,-4.12652,3.17609,14.82994,7.03201,-25.14162,-101.92100,-189.92480,22.74178,0.61396,0.66265,0.12512,0.41024,290.90260,-313.12290,-258.93580
0.43727,1.24262,0.15584,6.46118,-6.59255,3.32216,25.78264,11.72298,-19.98295,-157.95100,-156.31230,-6.54828,0.80197,0.43074,0.38269,0.15765,362.83250,-467.57060,-686.15650
0.34924,1.10245,0.16945,4.46508,-8.24548,3.04352,35.38797,9.45615,-14.97227,-174.17030,-119.34590,-32.76247,0.82369,0.05318,0.56232,-0.05006,307.90830,24.65242,-916.23530
0.21216,0.98648,0.14566,1.97308,-9.52021,2.06909,38.76019,0.21619,-13.16035,-182.30000,-60.03777,-88.29577,0.70459,-0.32211,0.62681,-0.08311,207.99510,525.96190,-632.30920
0.07630,0.92972,0.08513,-0.30555,-9.50817,0.57269,31.70206,-5.94943,-15.52528,-141.15150,48.47921,-102.58410,0.63280,-0.49503,0.59371,0.04488,-78.35298,717.41250,-50.98456
-0.02663,0.93240,0.02820,-1.76889,-8.42065,-0.52775,23.30555,-6.30516,-16.29092,-71.62077,99.82084,-55.42859,0.61586,-0.54574,0.54513,0.16034,-201.30000,566.93740,227.58430
-0.08777,0.94272,-0.00447,-2.34691,-7.28409,-0.94149,17.67625,-4.84597,-14.37110,-27.40664,93.98171,-17.14569,0.61857,-0.55219,0.51996,0.20517,-300.49950,359.39040,310.10190
-0.12981,0.97823,-0.02224,-2.57666,-6.15578,-1.01158,13.85804,-4.72518,-11.42717,-3.58754,75.26984,6.54381,0.59931,-0.55266,0.53877,0.21241,-301.85330,136.51780,175.97290
-0.15622,1.01346,-0.02319,-2.60658,-5.26710,-0.81713,10.93772,-6.00182,-8.42880,-0.63918,54.60822,22.38363,0.54846,-0.55478,0.59505,0.19318,-313.00580,-44.45211,67.69153
-0.01199,0.99003,-0.03280,-2.65013,-4.54312,-0.37819,5.90690,-6.25411,-7.58532,-2.07725,35.85286,26.82332,0.48658,-0.52811,0.64246,0.26753,-291.06080,120.38790,-69.36441
0.30637,0.84217,-0.07001,-2.74196,-4.12861,0.00004,1.92438,-3.83964,-6.54182,-1.68025,26.71552,20.18329,0.48712,-0.46995,0.64677,0.35150,-238.99550,247.98320,19.09077
0.38462,0.76329,-0.06827,-2.83417,-3.77356,0.27899,-0.16978,-0.14401,-5.41156,1.21848,26.46315,16.28677,0.53656,-0.40735,0.60605,0.42293,-66.72056,319.65610,70.34859
0.37612,0.72391,-0.05508,-2.84882,-3.37063,0.48084,-1.03584,2.23866,-4.62885,3.09273,25.12216,11.80718,0.57294,-0.36523,0.56139,0.47243,5.31970,200.30290,51.79429
0.34943,0.69237,-0.04310,-2.82946,-3.07436,0.58120,-1.30228,2.19518,-4.57110,4.14362,23.92925,8.83609,0.56309,-0.36557,0.54372,0.50365,-5.57916,48.80413,13.32530
0.32391,0.67195,-0.02896,-2.74747,-2.70178,0.68514,-1.81525,1.03268,-4.22019,7.67180,23.29631,5.87298,0.52966,-0.36970,0.55665,0.52242,-47.84666,-58.01147,21.36604
0.29634,0.65096,-0.01576,-2.64324,-2.44373,0.74507,-2.22695,0.50423,-3.45811,7.86130,20.60187,3.24743,0.50950,-0.35976,0.56951,0.53539,-50.91690,-49.18122,64.59984
0.27143,0.63369,-0.00284,-2.52171,-2.19347,0.78910,-2.43591,0.88716,-2.49753,6.68698,16.36043,1.74130,0.51156,-0.33354,0.57159,0.54803,-12.48370,27.37483,68.77275
0.24707,0.61976,0.00879,-2.42144,-1.94115,0.80839,-2.52117,1.60745,-1.78446,4.68617,15.88822,0.27568,0.52169,-0.30297,0.56356,0.56431,6.30268,55.66735,42.44187
0.21968,0.60622,0.01911,-2.37117,-1.73762,0.80286,-2.52115,2.02437,-1.63424,3.55977,18.16438,-0.93535,0.52398,-0.28323,0.55035,0.58510,4.99317,44.16403,17.12888
0.19765,0.60389,0.02682,-2.31333,-1.46087,0.78221,-2.56167,2.19845,-1.81008,4.83577,20.81745,-1.54401,0.51861,-0.27036,0.53459,0.61006,2.12642,18.25185,-15.49671
0.17258,0.60574,0.03425,-2.22454,-1.12511,0.73511,-2.66907,2.09851,-1.88327,6.37055,21.56872,-4.64427,0.50740,-0.25886,0.52518,0.63224,-14.34481,-8.61400,-2.82305
0.14835,0.60619,0.03995,-2.13504,-0.88335,0.67100,-2.32217,2.35212,-1.87417,7.09912,19.89600,-6.90745,0.51109,-0.24819,0.50655,0.64854,13.11547,5.12730,-1.94895
0.12691,0.61059,0.04201,-2.02509,-0.63598,0.56880,-1.30684,3.20781,-2.10679,8.72892,16.85735,-7.83877,0.53835,-0.24227,0.46300,0.66115,65.88766,42.19962,-30.26394
0.10794,0.61476,0.04307,-1.89792,-0.44401,0.47222,-0.14032,3.91461,-2.38629,9.38871,11.15278,-4.70272,0.57149,-0.24258,0.41174,0.66710,90.46420,53.53188,-45.46540
0.09211,0.61974,0.04481,-1.74981,-0.27580,0.40614,0.42968,3.86615,-2.53440,11.14263,9.34652,-2.54586,0.58744,-0.24695,0.37693,0.67221,39.61929,-1.80273,-26.64860
0.07811,0.62407,0.04801,-1.60128,-0.15012,0.37454,0.24625,3.15509,-2.31122,11.58845,7.88336,-0.73103,0.58395,-0.24893,0.36888,0.67894,-4.15863,-40.19212,11.28583
0.06675,0.62939,0.05231,-1.44081,-0.03735,0.36362,-0.27683,2.36823,-1.94143,11.66152,8.01786,-0.70250,0.57093,-0.24668,0.37330,0.68836,-41.19761,-56.86620,34.04012
0.05861,0.63541,0.05651,-1.26522,0.06172,0.35335,-0.55872,2.10669,-1.72533,12.09170,6.43394,-1.05510,0.56450,-0.24000,0.36774,0.69893,-28.56696,-27.21023,25.15428
0.05312,0.64052,0.06058,-1.08804,0.12659,0.34375,-0.57420,2.21214,-1.64792,12.05694,3.43892,-0.55124,0.56591,-0.23100,0.35186,0.70893,-1.10160,5.90014,8.91748
0.04935,0.64436,0.06472,-0.92092,0.15808,0.33618,-0.48960,2.27840,-1.61282,12.26412,1.39417,-0.57970,0.56870,-0.22418,0.33466,0.71716,2.80114,5.94861,-3.44749
0.04782,0.64714,0.06894,-0.75510,0.16757,0.33255,-0.58312,2.21481,-1.29383,12.12670,0.05872,-0.08924,0.56904,-0.21237,0.32762,0.72371,1.80841,-0.67383,19.42582
0.04717,0.64941,0.07297,-0.61207,0.16747,0.32645,-0.66190,2.12398,-1.03273,11.83594,-0.09605,-0.81259,0.56848,-0.20116,0.32193,0.72988,-7.12933,-9.07293,25.92690
0.05188,0.65102,0.07647,-0.41848,0.15720,0.31297,-0.65528,2.11933,-0.70370,12.41749,-0.96223,-0.92952,0.57121,-0.18691,0.31712,0.73363,3.60986,0.18124,18.85901
0.05751,0.65218,0.07968,-0.24804,0.14190,0.29717,-0.67113,2.11462,-0.30896,12.21898,-1.25044,-1.28894,0.57418,-0.16987,0.31554,0.73613,2.92816,0.46989,26.97154
0.06377,0.65314,0.08260,-0.10556,0.12711,0.28044,-0.68363,2.12003,0.04993,11.76882,-1.20476,-1.43252,0.57731,-0.15156,0.31499,0.73792,3.30813,0.99510,29.28378
0.07438,0.65365,0.08452,0.07197,0.10824,0.25183,-0.61717,2.32442,0.41250,10.02322,-1.14501,-2.16440,0.58450,-0.12752,0.31193,0.73810,5.25601,10.64945,25.19759
0.08522,0.65371,0.08561,0.22191,0.08552,0.21650,-0.41100,2.70949,0.56653,8.43336,-1.33582,-2.38853,0.59621,-0.10247,0.29999,0.73759,13.18506,23.85912,8.80146
0.09267,0.65425,0.08726,0.28673,0.07564,0.19690,-0.29981,2.93634,0.58270,7.72880,-1.08727,-2.50905,0.60504,-0.08054,0.28694,0.73831,13.80431,26.68238,2.45919
0.10443,0.65452,0.08688,0.40001,0.06468,0.15276,-0.09566,3.37457,0.54550,6.60878,-0.26812,-3.07568,0.61860,-0.05400,0.26611,0.73730,10.47177,28.86031,-5.01164
0.11598,0.65554,0.08556,0.49285,0.06697,0.10239,-0.03576,3.76141,0.42071,5.27396,0.34211,-3.33711,0.62865,-0.02742,0.24271,0.73833,3.45581,24.84306,-7.10278
0.12765,0.65708,0.08331,0.56898,0.07656,0.04686,-0.01800,4.07241,0.25662,4.56039,0.65019,-3.60101,0.63683,-0.00194,0.21766,0.73964,-0.82061,20.37156,-11.02984
0.13836,0.65856,0.08113,0.61631,0.08548,0.00354,-0.02973,4.23822,0.16804,3.87483,0.77319,-3.80619,0.64321,0.02262,0.19517,0.74005,-3.46896,16.20082,-7.60028
0.14981,0.66038,0.07723,0.66745,0.09912,-0.05756,-0.03078,4.40533,0.03630,2.98637,0.97817,-3.93919,0.64919,0.04670,0.17017,0.73988,-2.34103,10.61893,-7.50730
0.16118,0.66248,0.07305,0.70356,0.11264,-0.11027,-0.04318,4.55349,-0.12416,2.36543,0.98363,-3.74488,0.65415,0.06996,0.14333,0.73936,-3.97691,10.06201,-10.05938
0.17217,0.66434,0.06834,0.73112,0.12442,-0.16048,-0.06303,4.69958,-0.31147,2.01616,0.77714,-3.65997,0.65819,0.09265,0.11417,0.73836,-5.49101,11.76548,-12.39615
0.18322,0.66623,0.06320,0.75283,0.13407,-0.20735,-0.10179,4.75431,-0.41896,1.79851,0.56945,-3.38025,0.66069,0.11471,0.08705,0.73671,-5.19217,6.46261,-9.31075
0.19451,0.66830,0.05762,0.77087,0.14253,-0.25043,-0.16581,4.66882,-0.38794,1.46675,0.50662,-3.13039,0.66123,0.13613,0.06540,0.73482,-4.60308,-3.33885,0.64398
0.20528,0.67005,0.05144,0.78376,0.15255,-0.29508,-0.21017,4.45114,-0.23463,0.82462,0.82915,-2.80290,0.66083,0.15657,0.05007,0.73231,-0.25481,-12.32172,10.08504
