posX, posY, posZ, velX, velY, velZ, angVelX, angVelY, angVelZ, accX, accY, accZ, rotX, rotY, rotZ, rotW, angAccX, angAccY, angAccZ
0.32026,1.04364,-0.33579,-0.06196,0.19542,-0.13971,0.19656,0.14617,0.25207,0.28111,-0.49794,-0.41058,0.13221,0.80561,-0.17207,0.55127,-15.56150,-3.20679,-2.23686
0.31948,1.04646,-0.33823,-0.05860,0.18942,-0.14637,0.05314,0.10858,0.21527,0.16030,-0.45523,-0.56748,0.12985,0.80491,-0.17460,0.55207,-11.07619,-2.93576,-1.70618
0.31866,1.04924,-0.34078,-0.05793,0.18775,-0.15305,0.06113,0.11686,0.19687,0.03851,-0.13693,-0.69806,0.12929,0.80569,-0.17376,0.55132,-2.43359,-0.46615,-2.13257
0.31775,1.05219,-0.34365,-0.05867,0.18852,-0.16307,0.13468,0.14915,0.17547,-0.09676,0.04422,-0.85444,0.13002,0.80734,-0.17133,0.54950,3.54274,2.42685,-1.22897
0.31675,1.05550,-0.34696,-0.06083,0.19549,-0.17763,0.31814,0.22468,0.13870,-0.15815,0.72103,-0.93555,0.13335,0.81053,-0.16606,0.54561,11.56266,4.82561,-2.60173
0.31575,1.05910,-0.35025,-0.06280,0.20582,-0.18915,0.40951,0.25929,0.12866,-0.18819,1.07505,-0.83319,0.13530,0.81299,-0.16177,0.54274,9.91079,4.52105,-1.44940
0.31479,1.06327,-0.35385,-0.06357,0.22208,-0.20266,0.47852,0.26647,0.11150,-0.01516,1.29850,-0.99950,0.13754,0.81498,-0.15766,0.54039,4.35678,0.64585,-1.08806
0.31383,1.06836,-0.35780,-0.06425,0.24887,-0.21870,0.61849,0.27811,0.08028,-0.14478,2.01062,-1.05593,0.14178,0.81741,-0.15159,0.53737,7.60207,0.61488,-1.98577
0.31260,1.07430,-0.36177,-0.06857,0.28320,-0.23211,0.80579,0.27292,0.08794,-0.47413,2.79204,-0.92322,0.14654,0.82003,-0.14281,0.53450,11.93682,0.38401,-0.40820
0.31119,1.08100,-0.36564,-0.07476,0.32175,-0.24140,1.08793,0.25777,0.10807,-0.55062,3.41798,-0.91678,0.15340,0.82302,-0.12996,0.53125,17.99503,-0.94785,1.42799
0.30930,1.08995,-0.36969,-0.08706,0.38646,-0.25109,1.67466,0.17398,0.00023,-1.46286,4.26855,-0.68781,0.17041,0.82542,-0.10874,0.52709,35.73735,-2.24693,-2.74043
0.30586,1.10023,-0.37356,-0.12009,0.45854,-0.25661,2.21696,-0.01604,0.12879,-1.71515,5.83762,-1.47874,0.18337,0.82604,-0.08086,0.52678,41.96728,-24.59897,7.86439
0.30286,1.11261,-0.37870,-0.13920,0.54648,-0.27984,2.86414,0.19436,0.44673,-1.01870,8.23407,-2.64146,0.19249,0.83398,-0.04484,0.51519,43.58739,15.07799,12.59816
0.29802,1.13117,-0.38593,-0.18375,0.70945,-0.32911,3.83684,0.63811,0.97599,-4.04599,9.74115,-2.51398,0.20050,0.84695,0.00735,0.49236,56.14116,23.58139,33.44157
0.29126,1.14965,-0.39280,-0.24861,0.84137,-0.36396,4.26348,0.88341,1.45451,-5.05517,9.63798,-1.54895,0.20119,0.85582,0.05106,0.47380,41.88403,14.39090,35.17405
0.28516,1.16616,-0.39893,-0.28744,0.91201,-0.37948,4.25706,0.93169,1.73159,-4.94755,8.83071,-1.08296,0.19861,0.86087,0.08434,0.46080,19.97260,4.93572,37.12917
0.27572,1.18795,-0.40579,-0.36638,1.04246,-0.40169,3.98138,0.84938,2.21495,-4.23566,5.93498,-1.15741,0.18349,0.86486,0.11524,0.45284,-13.18351,-14.90363,26.56489
0.26666,1.20785,-0.41288,-0.42772,1.12462,-0.42397,3.83027,0.88861,2.32092,-3.92580,4.37471,-1.96990,0.17773,0.86825,0.14229,0.44081,-11.54860,-5.32452,8.80314
0.25770,1.22677,-0.42014,-0.47438,1.17512,-0.44428,3.86532,1.06401,2.31032,-4.04508,3.91014,-1.95679,0.17722,0.87205,0.17101,0.42295,-3.12263,10.76576,3.30721
0.24738,1.24625,-0.42786,-0.53215,1.22444,-0.46649,3.99969,1.31676,2.30640,-4.28389,3.10469,-1.39517,0.17833,0.87590,0.20213,0.40017,6.95626,19.00933,4.58006
0.23646,1.26540,-0.43550,-0.58814,1.26031,-0.48252,4.01219,1.52324,2.25796,-3.97403,2.12945,-0.51726,0.17935,0.87896,0.22962,0.37755,2.39310,17.33947,2.78379
0.22527,1.28428,-0.44273,-0.63601,1.28419,-0.48896,3.82596,1.56663,2.15620,-3.23911,1.41116,0.17037,0.17900,0.88054,0.25101,0.36001,-10.98224,6.50696,-3.38159
0.21429,1.30267,-0.44962,-0.66996,1.29706,-0.48960,3.51874,1.47799,2.04271,-2.79818,0.85551,0.20291,0.17682,0.88107,0.26792,0.34738,-21.28065,-4.84445,-7.49977
0.20235,1.32085,-0.45665,-0.71358,1.30779,-0.49118,3.08308,1.37591,1.86724,-2.99793,0.79502,-0.52530,0.17438,0.88216,0.27797,0.33781,-29.73824,-11.14268,-10.72269
0.18969,1.33941,-0.46374,-0.75761,1.31868,-0.49368,2.89026,1.43599,1.77581,-3.33011,0.77830,-0.30185,0.17345,0.88355,0.29228,0.32223,-16.96655,2.71141,-5.69378
0.17617,1.35772,-0.47084,-0.80528,1.32566,-0.49573,2.70809,1.51886,1.69535,-3.61447,0.39972,-0.09725,0.17263,0.88518,0.30541,0.30558,-14.97419,4.46838,-2.88951
0.16236,1.37596,-0.47757,-0.84648,1.32919,-0.49165,2.63007,1.61478,1.61527,-3.47077,0.36385,0.56985,0.17336,0.88597,0.31984,0.28757,-11.28398,6.74250,-3.88297
0.14757,1.39441,-0.48338,-0.89213,1.33312,-0.47503,2.63210,1.70605,1.52359,-3.22568,0.25624,1.71290,0.17586,0.88559,0.33559,0.26867,-2.49274,9.18901,-4.38594
0.13181,1.41232,-0.48744,-0.94555,1.33138,-0.43665,2.64063,1.72127,1.38560,-2.91753,-0.37824,2.52513,0.17971,0.88368,0.35110,0.25207,-0.78836,1.80945,-6.99559
0.11640,1.43005,-0.49103,-0.98220,1.32396,-0.39741,2.73303,1.78955,1.23523,-2.54707,-0.51398,2.81434,0.18593,0.88050,0.36823,0.23358,3.17580,4.68298,-10.45980
0.10070,1.44759,-0.49371,-1.01444,1.31375,-0.35368,2.84876,1.92313,1.08288,-2.22626,-0.91225,3.38621,0.19421,0.87660,0.38555,0.21263,6.97211,12.39244,-9.23277
0.08511,1.46457,-0.49582,-1.03939,1.30064,-0.31113,2.90526,2.00701,0.95201,-2.08021,-1.14846,3.86699,0.20219,0.87219,0.40162,0.19261,3.18984,10.75268,-9.89318
0.06918,1.48116,-0.49694,-1.06233,1.28340,-0.26324,2.98916,2.08591,0.83378,-1.83228,-1.49592,4.23337,0.21107,0.86649,0.41845,0.17188,3.85832,9.25182,-8.65347
0.05258,1.49646,-0.49557,-1.09135,1.25229,-0.18743,3.12230,2.22564,0.67052,-1.45723,-1.83089,4.20419,0.22317,0.85911,0.43572,0.14928,5.41802,8.76935,-7.67120
0.03666,1.51177,-0.49487,-1.10510,1.22807,-0.13607,3.22522,2.40696,0.57507,-1.01719,-1.95785,4.26385,0.23475,0.85146,0.45223,0.12410,7.17063,15.16520,-6.36692
0.02079,1.52683,-0.49346,-1.11377,1.20427,-0.08557,3.28141,2.58854,0.49358,-0.49858,-1.98880,4.43935,0.24680,0.84330,0.46733,0.09766,6.10134,19.01314,-4.14546
0.00520,1.54034,-0.49019,-1.11694,1.16241,-0.01806,2.90903,2.45507,0.35676,-0.23487,-2.51953,3.56094,0.25478,0.83963,0.47229,0.08398,-23.97628,-9.75818,-8.07453
-0.01038,1.55409,-0.48767,-1.11927,1.13185,0.02510,2.56874,2.34778,0.28996,-0.12216,-2.54874,3.86032,0.26128,0.83674,0.47611,0.07009,-26.07355,-6.43184,-2.66873
-0.02606,1.56732,-0.48439,-1.12128,1.09930,0.06962,2.22088,2.15907,0.24243,-0.04829,-2.61990,3.90149,0.26577,0.83482,0.47838,0.06002,-30.46171,-13.61916,-1.42063
-0.04140,1.57917,-0.47853,-1.11743,1.05218,0.14170,1.88370,2.01055,0.19789,0.40442,-2.32498,4.03145,0.27019,0.83374,0.47886,0.05066,-19.90607,-9.85379,-1.31386
-0.05652,1.59166,-0.47304,-1.11028,1.02144,0.19376,1.84053,2.06244,0.17375,0.43547,-2.30231,4.18594,0.27765,0.82904,0.48419,0.03407,-10.48524,-1.20067,-1.07271
-0.07144,1.60324,-0.46582,-1.10201,0.98409,0.25953,1.96875,2.29198,0.21965,0.66664,-2.83965,4.83113,0.28646,0.82191,0.49226,0.00941,8.16179,15.57970,3.11153
-0.08591,1.61353,-0.45734,-1.08989,0.93542,0.33120,1.94314,2.30948,0.24121,1.20486,-3.34517,4.52977,0.29275,0.81617,0.49807,-0.00913,1.78399,4.41127,2.35581
-0.09950,1.62325,-0.44836,-1.06588,0.88654,0.39710,1.78074,2.17497,0.19497,1.98122,-3.19214,4.00769,0.29824,0.81203,0.50121,-0.02121,-9.35879,-7.45258,-1.43817
-0.11270,1.63305,-0.43988,-1.04019,0.84778,0.44138,1.63758,2.03161,0.12398,2.33922,-3.41347,3.47892,0.30406,0.80765,0.50423,-0.03158,-11.91584,-11.00567,-4.24411
-0.12462,1.64133,-0.43118,-1.00371,0.79835,0.48495,1.51049,1.91300,0.00535,2.70961,-3.57395,2.89832,0.31143,0.80287,0.50673,-0.04043,-11.99830,-9.46606,-7.45686
-0.13535,1.64822,-0.42219,-0.95706,0.73856,0.52631,1.49885,1.90365,-0.13505,2.80585,-3.76219,2.29913,0.32129,0.79585,0.51061,-0.05164,-3.38210,-0.74568,-8.67347
-0.14642,1.65536,-0.41356,-0.92305,0.69276,0.54997,1.51231,1.98416,-0.20688,2.68145,-3.72763,1.75900,0.33143,0.78834,0.51410,-0.06618,-0.37071,5.61261,-6.49151
-0.15697,1.66128,-0.40495,-0.88808,0.64003,0.56988,1.59919,2.13878,-0.24105,2.36667,-3.64201,1.16112,0.34231,0.77909,0.51842,-0.08418,5.56895,9.49970,-3.58717
-0.16703,1.66667,-0.39674,-0.85304,0.59041,0.57977,1.65636,2.31526,-0.27572,2.70598,-3.49063,0.47950,0.35403,0.76940,0.52154,-0.10334,5.50523,12.56478,-0.80729
-0.17626,1.67179,-0.38861,-0.81269,0.54504,0.58217,1.67327,2.52530,-0.34343,3.01139,-3.17273,-0.05918,0.36786,0.75902,0.52281,-0.12346,1.96484,15.47229,-3.08107
-0.18477,1.67665,-0.38066,-0.77065,0.50438,0.57886,1.58168,2.70345,-0.41621,3.10375,-2.94737,-0.34804,0.38240,0.74977,0.52093,-0.14230,-4.37676,14.50435,-2.63834
-0.19309,1.68147,-0.37291,-0.73562,0.47240,0.57384,1.42999,2.80011,-0.47672,2.86657,-2.68023,-0.42688,0.39639,0.74172,0.51722,-0.15881,-11.39249,10.57106,-1.97220
-0.20041,1.68521,-0.36517,-0.69190,0.42988,0.56929,1.21948,2.88499,-0.53673,1.89427,-1.80038,0.07709,0.41102,0.73469,0.51087,-0.17410,-14.64479,3.84928,-0.72703
-0.20887,1.68970,-0.35655,-0.67397,0.40655,0.57919,1.33144,3.05964,-0.51088,0.82733,-1.52750,1.39140,0.42409,0.72244,0.50954,-0.19645,-0.32809,10.88947,1.10062
-0.21775,1.69338,-0.34642,-0.66657,0.37649,0.60942,1.68459,3.14336,-0.44856,0.80784,-2.21040,2.55085,0.43359,0.70552,0.51493,-0.22155,25.13677,10.41321,0.38501
-0.22636,1.69652,-0.33573,-0.65496,0.34298,0.64186,1.83983,3.02066,-0.36964,1.33112,-2.51191,1.49956,0.43968,0.69185,0.51959,-0.24094,16.36797,-4.86429,0.43572
-0.23470,1.70015,-0.32619,-0.64198,0.32340,0.65083,1.52510,2.65259,-0.25558,1.72498,-2.22711,0.29673,0.44269,0.68885,0.51729,-0.24885,-10.05548,-21.00035,6.84587
-0.24268,1.70370,-0.31727,-0.62715,0.30753,0.64895,0.93452,2.11773,-0.09946,1.35474,-1.50485,-0.38955,0.44212,0.69549,0.50982,-0.24680,-42.23935,-42.73981,15.87168
-0.24990,1.70665,-0.30859,-0.60392,0.28599,0.64150,0.32198,1.58236,0.20424,0.83713,-0.54951,-0.47720,0.43633,0.70817,0.49911,-0.24292,-37.14409,-34.85355,20.32853
-0.25710,1.70972,-0.29975,-0.58523,0.27057,0.63729,0.28430,1.54983,0.44427,1.17431,-0.88442,-0.43176,0.43418,0.70927,0.49338,-0.25496,-5.48120,-8.65932,18.23773
-0.26412,1.71271,-0.29104,-0.56861,0.25819,0.63324,0.34143,1.61451,0.58611,1.84841,-1.46088,-0.56186,0.43392,0.70727,0.48859,-0.26974,6.01138,4.90170,15.23521
-0.26940,1.71438,-0.28304,-0.52951,0.22802,0.61954,0.24927,1.55104,0.76061,2.76346,-2.23038,-0.98298,0.43124,0.70923,0.48166,-0.28110,-1.65376,-2.26414,10.78120
-0.27410,1.71571,-0.27515,-0.48930,0.19809,0.60724,0.06606,1.40230,0.82132,3.11525,-2.36301,-0.70936,0.42980,0.71283,0.47409,-0.28702,-12.58628,-11.00574,7.10581
-0.27835,1.71649,-0.26702,-0.45153,0.16702,0.60173,-0.01130,1.27408,0.80617,3.16481,-2.59735,-0.33486,0.42914,0.71455,0.46874,-0.29247,-8.63696,-11.35257,1.88781
-0.28163,1.71670,-0.25862,-0.41146,0.13537,0.59973,-0.00465,1.21207,0.74956,3.15584,-2.40047,-0.11646,0.42962,0.71411,0.46482,-0.29902,-3.24936,-8.95344,-3.35701
-0.28306,1.71585,-0.25003,-0.35647,0.09373,0.59912,0.16066,1.28368,0.60936,3.32058,-2.64453,-0.14513,0.43294,0.70832,0.46388,-0.30928,8.96747,4.63066,-8.88015
-0.28443,1.71484,-0.24173,-0.30889,0.05830,0.59629,0.23746,1.28062,0.46462,3.47571,-2.61193,-0.36901,0.43653,0.70346,0.46281,-0.31684,7.80415,3.57701,-10.79010
-0.28578,1.71353,-0.23380,-0.26566,0.02734,0.59053,0.23900,1.20369,0.34990,2.94784,-2.01121,-0.49627,0.43944,0.70039,0.46139,-0.32166,-0.71518,-5.39528,-9.20765
-0.28688,1.71227,-0.22622,-0.22772,0.00335,0.58099,0.23541,1.12924,0.26813,2.48853,-1.46945,-0.88709,0.44192,0.69765,0.45999,-0.32620,-0.73994,-6.32108,-6.48138
-0.28779,1.71110,-0.21917,-0.19483,-0.01434,0.56611,0.26512,1.13695,0.19668,2.10001,-1.05910,-1.18501,0.44520,0.69357,0.45837,-0.33264,0.32103,-1.52282,-4.83321
-0.28856,1.71000,-0.21248,-0.16651,-0.02730,0.54840,0.32128,1.20076,0.11357,1.77418,-0.75126,-1.34733,0.44965,0.68780,0.45689,-0.34058,3.61040,4.17969,-6.06901
-0.28913,1.70884,-0.20652,-0.14052,-0.03893,0.52311,0.39099,1.33736,0.04580,1.18742,-0.57356,-1.43509,0.45506,0.68058,0.45464,-0.35077,3.97730,8.58862,-4.70039
-0.29040,1.70801,-0.20036,-0.13018,-0.04331,0.50639,0.37016,1.33807,0.04885,0.83360,-0.39284,-1.41485,0.45829,0.67651,0.45162,-0.35825,0.92043,4.11320,-1.67525
-0.29184,1.70726,-0.19446,-0.12472,-0.04552,0.48888,0.31519,1.26436,0.10995,0.17308,-0.00547,-1.11322,0.45948,0.67476,0.44815,-0.36434,-4.12005,-5.20253,3.72259
-0.29351,1.70663,-0.18842,-0.12369,-0.04532,0.47771,0.33567,1.23075,0.17275,-0.03338,0.22655,-0.76679,0.45989,0.67196,0.44556,-0.37210,-0.64703,-4.50967,5.18628
-0.29519,1.70614,-0.18239,-0.12313,-0.04336,0.46881,0.41114,1.20186,0.27308,0.10336,0.02523,-0.32366,0.45835,0.66897,0.44373,-0.38145,5.11329,-2.11085,5.99204
-0.29680,1.70542,-0.17598,-0.12154,-0.04516,0.46689,0.46212,1.11227,0.35976,0.42406,-0.43382,-0.13337,0.45573,0.66697,0.44261,-0.38930,5.99405,-3.86815,5.77081
-0.29819,1.70425,-0.16969,-0.11715,-0.05308,0.46384,0.40874,0.86781,0.45711,0.59814,-0.69160,-0.36263,0.45092,0.66914,0.44174,-0.39215,-0.07691,-15.72676,7.28953
-0.29911,1.70265,-0.16337,-0.10674,-0.06591,0.46216,0.48763,0.74141,0.48427,0.36665,-0.89833,0.19043,0.44677,0.66793,0.44307,-0.39744,2.32291,-10.32278,2.22830
-0.30007,1.70069,-0.15673,-0.09884,-0.08141,0.46507,0.61388,0.65581,0.48068,0.65100,-1.19436,0.20399,0.44265,0.66496,0.44587,-0.40384,10.51302,-4.95857,-1.02279
-0.30098,1.69877,-0.15014,-0.09197,-0.09286,0.46670,0.69157,0.61042,0.45407,0.67734,-1.11136,0.17025,0.43959,0.66167,0.44819,-0.40997,7.79101,-6.36089,-1.16354
-0.30106,1.69606,-0.14373,-0.07462,-0.11333,0.46541,0.90512,0.67736,0.33992,1.15308,-1.15725,-0.40597,0.43814,0.65305,0.45359,-0.41931,12.78728,5.77832,-7.12932
-0.30116,1.69362,-0.13790,-0.06055,-0.12602,0.45537,0.91361,0.59101,0.28187,1.14690,-1.02298,-1.16641,0.43602,0.64930,0.45695,-0.42367,4.23741,-2.02283,-5.82264
-0.30122,1.69132,-0.13295,-0.04903,-0.13405,0.43454,0.80858,0.43446,0.25458,0.69683,-0.43178,-1.82276,0.43363,0.64892,0.45892,-0.42458,-6.60003,-12.22265,-2.53805
-0.30149,1.68919,-0.12856,-0.04301,-0.13791,0.41032,0.71261,0.33595,0.24824,0.28608,-0.18675,-2.17433,0.43146,0.64865,0.45998,-0.42605,-7.78673,-9.60847,-1.66808
-0.30206,1.68723,-0.12502,-0.04277,-0.13840,0.37879,0.61276,0.29580,0.24799,-0.48418,0.16424,-2.26096,0.43009,0.64835,0.45985,-0.42801,-7.97697,-6.41894,0.00597
-0.30300,1.68557,-0.12230,-0.04780,-0.13447,0.34152,0.61483,0.50490,0.23323,-0.55803,0.41243,-2.21730,0.43156,0.64308,0.45806,-0.43632,-1.47725,11.08664,0.04814
-0.30406,1.68400,-0.11931,-0.05367,-0.13018,0.31588,0.62635,0.67436,0.22094,-0.43247,0.35512,-2.11835,0.43297,0.63740,0.45644,-0.44489,1.86681,16.37656,-1.02405
-0.30531,1.68277,-0.11700,-0.06089,-0.12144,0.28544,0.59335,0.82249,0.24864,-0.27363,0.62638,-1.66798,0.43433,0.63264,0.45309,-0.45369,-2.06084,9.92893,1.90838
-0.30640,1.68164,-0.11427,-0.06443,-0.11319,0.26717,0.55526,0.86549,0.27985,-0.00848,0.53165,-1.12131,0.43449,0.62927,0.45047,-0.46078,-1.91458,5.62246,2.63215
-0.30739,1.68064,-0.11131,-0.06577,-0.10467,0.25619,0.49940,0.81023,0.33163,-0.02472,0.68783,-0.49667,0.43307,0.62808,0.44823,-0.46590,-4.38284,-3.83350,3.22031
-0.30827,1.67976,-0.10787,-0.06532,-0.09626,0.25440,0.50613,0.78286,0.35795,0.05341,0.60756,0.20778,0.43145,0.62560,0.44702,-0.47186,-0.66501,-2.60035,2.40396
-0.30912,1.67884,-0.10391,-0.06443,-0.09000,0.26056,0.52676,0.70193,0.39573,0.19439,0.32421,0.50796,0.42832,0.62395,0.44678,-0.47710,3.33094,-3.79262,1.79932
-0.30987,1.67797,-0.09967,-0.06226,-0.08449,0.26989,0.52937,0.57428,0.43899,0.19065,0.43237,0.80950,0.42413,0.62379,0.44694,-0.48088,-0.68047,-9.94568,2.80702
-0.31042,1.67715,-0.09506,-0.05746,-0.07906,0.28224,0.58499,0.51290,0.45318,0.32052,0.48424,1.03834,0.42009,0.62187,0.44792,-0.48597,2.77998,-6.13111,1.65862
-0.31072,1.67647,-0.09010,-0.05005,-0.07292,0.29776,0.70692,0.51547,0.45365,0.55705,0.30499,0.80090,0.41586,0.61771,0.44988,-0.49305,7.79570,0.82527,-0.75992
-0.31099,1.67574,-0.08548,-0.04365,-0.06870,0.30482,0.71984,0.42633,0.47141,0.76436,0.19182,0.27745,0.41119,0.61646,0.45115,-0.49736,5.07891,-3.02118,0.54775
-0.31105,1.67499,-0.08106,-0.03563,-0.06568,0.30714,0.68008,0.30068,0.49287,0.72350,0.11095,0.06263,0.40626,0.61709,0.45204,-0.49981,-2.28651,-10.95155,1.38692
-0.31056,1.67399,-0.07689,-0.02125,-0.06697,0.30560,0.62391,0.18586,0.48564,1.01009,-0.24903,-0.18054,0.40201,0.61803,0.45301,-0.50121,-3.00338,-7.78409,-0.25762
-0.30982,1.67277,-0.07276,-0.00606,-0.07122,0.30388,0.57488,0.11098,0.44559,1.07808,-0.20666,0.06251,0.39886,0.61829,0.45417,-0.50235,-4.58307,-7.40363,-2.27607
-0.30884,1.67142,-0.06847,0.00943,-0.07645,0.30471,0.60595,0.15721,0.37099,1.25705,-0.43247,0.21434,0.39706,0.61502,0.45604,-0.50608,0.27338,0.97831,-5.05416
-0.30686,1.66972,-0.06397,0.03661,-0.08575,0.30844,0.68790,0.24229,0.22753,1.68851,-0.45406,0.24625,0.39681,0.60880,0.45980,-0.51038,4.45996,5.74884,-7.73244
-0.30475,1.66816,-0.05943,0.06087,-0.09122,0.31235,0.75149,0.30950,0.11112,1.80394,-0.31147,0.33521,0.39650,0.60273,0.46352,-0.51445,3.98582,3.52803,-8.02008
-0.30234,1.66660,-0.05476,0.08397,-0.09557,0.31709,0.82663,0.39413,0.00172,1.98113,-0.35369,0.50349,0.39659,0.59537,0.46761,-0.51923,5.16096,7.52685,-8.67858
-0.29909,1.66486,-0.04982,0.11487,-0.10153,0.32480,0.93388,0.46283,-0.15022,2.00788,-0.41398,0.34699,0.39718,0.58623,0.47374,-0.52360,7.17930,5.68330,-9.63456
-0.29557,1.66307,-0.04499,0.14409,-0.10734,0.32966,0.95794,0.39618,-0.27352,1.87487,-0.48086,0.08547,0.39698,0.58002,0.48020,-0.52478,2.71350,-0.89268,-8.58502
-0.29232,1.66138,-0.04031,0.16309,-0.11037,0.33074,0.92325,0.26510,-0.35271,1.47750,-0.15605,-0.02802,0.39605,0.57632,0.48637,-0.52388,-2.69916,-10.47609,-6.92557
-0.28874,1.65983,-0.03585,0.18262,-0.11040,0.32855,0.90916,0.20154,-0.41233,1.21059,0.15431,-0.13401,0.39542,0.57178,0.49222,-0.52386,-2.02600,-6.19166,-5.74658
-0.28513,1.65853,-0.03143,0.19874,-0.10686,0.32641,0.91231,0.14682,-0.46233,1.05937,0.36403,-0.14388,0.39451,0.56698,0.49843,-0.52389,0.30056,-2.74612,-4.27737
-0.28133,1.65749,-0.02692,0.21423,-0.09998,0.32578,0.94826,0.09816,-0.50404,0.93663,0.54935,0.07151,0.39293,0.56168,0.50531,-0.52420,1.32387,-2.69296,-2.71802
-0.27769,1.65642,-0.02227,0.22426,-0.09501,0.32763,1.00531,0.07607,-0.52219,0.82785,0.42677,0.26944,0.39077,0.55579,0.51223,-0.52538,3.79113,-2.72281,-2.17269
-0.27374,1.65537,-0.01744,0.23662,-0.09103,0.33173,1.10792,0.07266,-0.56844,0.86088,0.14128,0.36364,0.38836,0.54820,0.52054,-0.52695,6.39648,-1.19383,-3.04756
-0.26960,1.65412,-0.01255,0.24913,-0.09081,0.33558,1.20613,0.03209,-0.61764,1.07716,-0.16933,0.09054,0.38522,0.54063,0.52984,-0.52782,8.66667,0.01995,-3.71208
-0.26529,1.65262,-0.00780,0.26185,-0.09451,0.33673,1.22989,-0.13051,-0.68453,1.03334,-0.47739,-0.10712,0.38129,0.53586,0.54023,-0.52499,2.57948,-9.31506,-5.09574
-0.26079,1.65083,-0.00326,0.27475,-0.10173,0.33473,1.22069,-0.33611,-0.76468,0.90927,-0.60626,-0.20564,0.37693,0.53256,0.55149,-0.51977,-1.40638,-14.86906,-6.85930
-0.25604,1.64878,0.00117,0.28835,-0.11111,0.33104,1.24935,-0.46635,-0.87034,0.86079,-0.58057,-0.11199,0.37314,0.52743,0.56362,-0.51470,-0.66914,-11.81307,-8.05549
-0.25105,1.64655,0.00536,0.30320,-0.12131,0.32471,1.30236,-0.58199,-0.99456,0.95207,-0.60989,-0.50499,0.36921,0.52119,0.57695,-0.50910,4.61749,-5.33243,-8.49115
-0.24612,1.64431,0.00958,0.31414,-0.12982,0.32022,1.31158,-0.74625,-1.10080,0.74628,-0.65926,-0.25004,0.36458,0.51659,0.59048,-0.50154,0.13917,-10.60490,-8.44599
-0.24109,1.64186,0.01385,0.32384,-0.13963,0.31704,1.34547,-0.87379,-1.20422,0.57592,-0.76427,-0.21279,0.35968,0.51107,0.60469,-0.49375,1.33575,-9.74683,-8.56229
-0.23600,1.63905,0.01806,0.33300,-0.15324,0.31411,1.39052,-0.98962,-1.32737,0.52744,-0.83376,-0.10178,0.35477,0.50483,0.61969,-0.48505,1.97380,-7.14894,-7.70212
-0.23104,1.63634,0.02231,0.33811,-0.16219,0.31234,1.44984,-1.02665,-1.40723,0.35239,-0.88079,-0.21485,0.35005,0.49727,0.63404,-0.47768,4.49550,-5.85317,-8.54535
-0.22593,1.63315,0.02607,0.34395,-0.17595,0.30314,1.49853,-1.07362,-1.52633,0.41347,-0.83124,-0.94674,0.34572,0.48891,0.64940,-0.46874,5.24072,-1.37298,-6.91989
-0.22091,1.63010,0.02938,0.34747,-0.18509,0.28923,1.44974,-1.14346,-1.62123,0.11482,-0.71063,-1.09911,0.34206,0.48277,0.66344,-0.45801,-2.62978,-4.69926,-8.22919
-0.21597,1.62694,0.03251,0.34920,-0.19405,0.27587,1.43323,-1.16979,-1.68385,0.10560,-0.79285,-1.11053,0.33832,0.47576,0.67704,-0.44811,-2.46906,-1.84008,-6.03568
-0.21103,1.62331,0.03533,0.35027,-0.20796,0.26058,1.41051,-1.21011,-1.76801,-0.03669,-0.90605,-0.66368,0.33473,0.46870,0.69102,-0.43676,-2.70582,-2.54900,-6.01264
-0.20613,1.61952,0.03839,0.35056,-0.22135,0.25201,1.48496,-1.18003,-1.79972,-0.04330,-1.16753,-0.67056,0.33029,0.45891,0.70499,-0.42814,4.65178,0.99846,-3.20662
-0.20123,1.61549,0.04127,0.35098,-0.23531,0.24304,1.52457,-1.20489,-1.84556,0.24723,-1.23565,-0.92581,0.32528,0.44978,0.71921,-0.41789,6.38359,0.35907,-1.93513
-0.19646,1.61082,0.04377,0.34893,-0.25561,0.22994,1.51522,-1.30782,-1.93634,-0.45192,-1.50162,-0.90097,0.31974,0.44193,0.73422,-0.40420,-1.01164,-5.16591,-6.59957
-0.19327,1.60449,0.04548,0.32050,-0.30140,0.20542,1.43368,-1.67182,-2.10952,-1.71374,-1.61408,-0.83960,0.31048,0.43797,0.75142,-0.38361,-4.69112,-13.02038,-9.13391
-0.18579,1.59472,0.05025,0.29932,-0.32165,0.19155,1.50839,-1.75021,-2.10570,-1.50060,-1.08161,-0.88262,0.29482,0.42170,0.77976,-0.35670,1.79365,-8.84312,-2.43641
-0.18271,1.58936,0.05198,0.28337,-0.33440,0.17765,1.63513,-1.75743,-2.06302,-1.02485,-0.75116,-0.99581,0.28507,0.41081,0.79415,-0.34539,8.73055,-1.95607,3.56571
-0.17954,1.58421,0.05361,0.27221,-0.34177,0.16548,1.68500,-1.79959,-2.04670,-0.38694,-0.45360,-0.80301,0.27523,0.40121,0.80793,-0.33246,5.11232,-3.18382,3.25972
-0.17588,1.57911,0.05529,0.27037,-0.34665,0.15624,1.72320,-1.81334,-2.07783,0.09002,-0.31403,-0.53892,0.26636,0.39068,0.82163,-0.31836,2.10775,-2.62455,-1.74307
-0.17186,1.57384,0.05704,0.27415,-0.35318,0.15007,1.75239,-1.79827,-2.12820,0.42140,-0.69226,-0.35604,0.25844,0.37935,0.83485,-0.30384,3.54073,0.88011,-2.06190
-0.16779,1.56812,0.05896,0.27796,-0.36523,0.14775,1.74781,-1.80530,-2.24830,0.16869,-1.08989,0.05545,0.25134,0.36799,0.84817,-0.28640,0.51838,0.99442,-7.46795
-0.16405,1.56199,0.06115,0.27587,-0.38018,0.14965,1.77835,-1.81198,-2.34334,-0.57297,-1.32704,0.28179,0.24358,0.35540,0.86142,-0.26890,2.24724,0.23537,-9.16874
-0.16123,1.55512,0.06362,0.26086,-0.40296,0.15533,1.86157,-1.84954,-2.41572,-1.27493,-1.42872,0.62863,0.23404,0.34131,0.87495,-0.25138,4.21730,-2.06595,-4.77982
-0.15891,1.54818,0.06623,0.24171,-0.42265,0.16191,2.00423,-1.86651,-2.43662,-1.53938,-1.26113,0.26348,0.22338,0.32503,0.88823,-0.23560,9.56903,-3.69583,-1.48617
-0.15691,1.54121,0.06887,0.22170,-0.43836,0.16744,2.15268,-1.85451,-2.41156,-1.46613,-0.96921,0.51300,0.21245,0.30756,0.90070,-0.22137,9.54555,-1.30980,1.72046
-0.15527,1.53401,0.07161,0.20027,-0.45455,0.17351,2.38068,-1.82878,-2.31546,-1.40153,-0.97097,0.36226,0.19996,0.28721,0.91287,-0.21024,12.53841,-1.58788,6.43416
-0.15337,1.52699,0.07418,0.18748,-0.46491,0.17580,2.56339,-1.80823,-2.21100,-1.32614,-0.97408,0.25937,0.18711,0.26666,0.92407,-0.19993,15.73988,-1.97908,10.85949
-0.15203,1.51945,0.07679,0.16934,-0.47981,0.17802,2.78631,-1.79705,-2.02436,-1.35471,-1.28687,-0.00585,0.17202,0.24411,0.93459,-0.19328,15.14863,-3.92672,15.55233
-0.15145,1.51112,0.07918,0.14366,-0.50368,0.17659,2.99491,-1.84044,-1.89889,-1.80897,-1.79926,-0.16610,0.15541,0.22063,0.94492,-0.18520,10.70085,-5.33852,8.24144
-0.15151,1.50219,0.08124,0.11360,-0.53193,0.17077,3.21308,-1.93679,-1.74572,-2.58480,-2.13664,-0.64085,0.13599,0.19610,0.95461,-0.17823,13.70145,-9.66703,10.38306
-0.15259,1.49272,0.08276,0.07471,-0.56175,0.15809,3.34889,-2.10335,-1.62843,-2.81734,-2.27061,-1.27039,0.11393,0.17294,0.96347,-0.16983,8.51663,-14.63512,8.22034
-0.15424,1.48267,0.08355,0.03572,-0.59426,0.13751,3.48139,-2.26023,-1.53151,-2.80968,-2.46252,-1.67521,0.09089,0.14899,0.97135,-0.16129,5.07135,-13.52233,4.40022
-0.15654,1.47135,0.08318,-0.00545,-0.63961,0.10357,3.80940,-2.44938,-1.31561,-2.54925,-3.03589,-2.26389,0.06326,0.11888,0.97830,-0.15747,14.18898,-15.97392,10.76017
-0.15876,1.45931,0.08203,-0.03743,-0.68628,0.06470,4.24919,-2.64465,-1.01981,-2.28584,-3.44802,-3.05388,0.03219,0.08328,0.98345,-0.15764,25.22810,-21.00144,19.54312
-0.16097,1.44835,0.07979,-0.06348,-0.72797,0.02277,4.64354,-2.84721,-0.75212,-2.10366,-3.54252,-3.88635,-0.00090,0.04602,0.98628,-0.15856,27.77440,-25.42114,22.72680
-0.16925,1.43143,0.07979,-0.09694,-0.78134,-0.04415,5.04637,-3.10552,-0.55310,-1.87800,-3.34076,-4.73100,-0.03745,0.00601,0.98665,-0.15837,23.05874,-22.81257,13.25767
-0.17663,1.41455,0.07796,-0.12412,-0.82403,-0.11205,5.31374,-3.31519,-0.51322,-1.82720,-2.83190,-5.36849,-0.07296,-0.03270,0.98489,-0.15365,18.54988,-17.36678,2.77537
-0.18440,1.39724,0.07609,-0.14890,-0.85853,-0.19125,5.52383,-3.50392,-0.53347,-1.66924,-2.07792,-6.18095,-0.10871,-0.07120,0.98060,-0.14676,16.53089,-13.82546,-1.86219
-0.19346,1.38097,0.07448,-0.16966,-0.87790,-0.26756,5.64841,-3.66186,-0.58256,-1.82911,-1.14384,-6.76423,-0.14412,-0.10804,0.97386,-0.13837,12.44890,-11.33259,-5.74365
-0.20475,1.36376,0.07049,-0.19822,-0.88819,-0.37905,5.77232,-3.96138,-0.62194,-1.51579,0.03701,-7.65961,-0.18517,-0.14457,0.96336,-0.12940,8.07070,-18.11775,-5.11301
-0.21427,1.34850,0.06103,-0.22131,-0.87619,-0.48608,5.83782,-4.22473,-0.68811,-1.82727,1.95805,-7.99546,-0.22605,-0.17934,0.95003,-0.11910,7.67759,-12.11059,-10.63105
-0.22646,1.33524,0.05399,-0.24260,-0.83958,-0.59784,5.79129,-4.58682,-0.76063,-1.19610,3.56490,-8.09864,-0.27083,-0.20934,0.93329,-0.10866,-1.02456,-21.97840,-13.60203
-0.23901,1.32411,0.04503,-0.25667,-0.78170,-0.70614,5.61974,-4.93558,-0.88790,-0.81465,5.32677,-7.88130,-0.31656,-0.23399,0.91415,-0.09675,-5.29575,-18.10437,-20.39099
-0.25176,1.31606,0.03445,-0.26448,-0.69536,-0.81408,5.27172,-5.36296,-1.03852,-0.55284,7.30365,-7.85031,-0.36546,-0.25016,0.89252,-0.08526,-15.63492,-19.45063,-26.99001
-0.26353,1.31070,0.02165,-0.26527,-0.60053,-0.90943,4.88865,-5.78386,-1.22490,0.37230,8.89180,-8.25005,-0.41588,-0.26100,0.86808,-0.07324,-22.91721,-24.44430,-34.91704
-0.27899,1.31116,0.00595,-0.24176,-0.42915,-1.05966,4.29982,-6.29908,-1.57832,2.82524,10.29789,-8.67894,-0.47090,-0.25979,0.84102,-0.05877,-23.24824,-20.77305,-40.06230
-0.29063,1.31296,-0.00991,-0.19314,-0.27414,-1.18051,3.96277,-6.36550,-1.91590,4.87195,11.89814,-8.80647,-0.51493,-0.26308,0.81486,-0.04042,-14.12415,0.26827,-34.91069
-0.29918,1.31677,-0.02703,-0.12712,-0.12508,-1.28326,3.78914,-6.20134,-2.18212,6.72818,12.91360,-8.41115,-0.55178,-0.26891,0.78920,-0.01996,-4.95639,15.94024,-25.77062
-0.30687,1.32537,-0.04495,-0.00328,0.08574,-1.40712,3.62354,-5.82661,-2.37122,9.04813,13.64840,-7.21989,-0.58103,-0.27433,0.76626,0.00112,-1.01900,26.17539,-10.12665
-0.31062,1.33473,-0.06232,0.13548,0.27904,-1.49981,3.51832,-5.48124,-2.35356,10.72530,14.41848,-6.18407,-0.60699,-0.28234,0.74265,0.01795,-2.70327,28.54791,2.02766
-0.31074,1.34501,-0.08014,0.27681,0.45370,-1.56735,3.39321,-5.40503,-2.11264,12.12914,15.16480,-5.14546,-0.63518,-0.29172,0.71467,0.02615,-10.99858,14.58667,11.67304
-0.30631,1.35747,-0.10144,0.46003,0.66646,-1.62385,3.00800,-5.71877,-1.70812,12.84395,16.08095,-3.03899,-0.66991,-0.29617,0.68051,0.02030,-30.82540,-14.96747,16.61652
-0.29861,1.37088,-0.12396,0.66864,0.91658,-1.64554,2.09378,-6.57591,-1.49916,12.47332,16.49337,0.01090,-0.71762,-0.28159,0.63696,0.00101,-57.56386,-44.17308,-14.95742
-0.28975,1.38506,-0.14470,0.81523,1.11190,-1.63121,1.13857,-7.43451,-1.64559,11.53366,17.44171,2.11194,-0.76794,-0.25430,0.58762,-0.01726,-66.94717,-56.22663,-43.49326
-0.28076,1.40115,-0.16412,0.96928,1.35167,-1.58778,-0.31385,-8.72683,-2.34975,10.15963,18.38691,3.67049,-0.82875,-0.19465,0.52299,-0.04207,-69.22688,-72.31213,-89.76758
-0.27357,1.42029,-0.17902,1.09264,1.57070,-1.53659,-1.68418,-9.91369,-3.41299,10.65907,19.48120,4.68478,-0.88475,-0.11564,0.44712,-0.06264,-59.88219,-91.70768,-130.34700
-0.27190,1.44276,-0.18432,1.27849,1.89486,-1.45940,-3.17693,-10.96061,-4.98529,14.63086,23.43407,7.10444,-0.92921,-0.00819,0.36090,-0.07904,-37.99270,-86.41594,-129.30500
-0.26490,1.47134,-0.19201,1.44653,2.17757,-1.39610,-3.50873,-11.01502,-6.81432,16.25643,23.86267,6.84656,-0.95129,0.09429,0.28757,-0.05875,45.15635,-34.63351,-144.80650
-0.25466,1.50526,-0.19584,1.71084,2.54256,-1.28978,-4.02733,-9.97758,-8.31891,22.58990,28.61069,9.84569,-0.94726,0.20086,0.24600,-0.04284,54.19141,10.32844,-109.79480
-0.24331,1.54609,-0.19255,2.15664,3.06486,-1.11904,-2.82601,-7.66153,-10.84560,29.58580,29.22643,12.15823,-0.91667,0.31455,0.24351,0.03840,177.45530,4.83182,-88.66803
-0.22115,1.59197,-0.18966,2.63055,3.45980,-0.93605,-0.98068,-6.00981,-12.33828,39.16347,26.74248,15.50936,-0.87662,0.40028,0.23412,0.12846,215.75500,-35.20977,-49.61908
-0.18416,1.64124,-0.18266,3.37906,3.86177,-0.60727,1.10275,-4.59360,-14.02307,55.00154,22.16131,24.33630,-0.81016,0.48796,0.22549,0.23385,182.17770,-58.59380,-48.02717
-0.12864,1.69052,-0.17851,4.09528,4.05963,-0.25978,2.45070,-4.07305,-15.50392,65.34557,10.35752,31.62208,-0.72592,0.57443,0.19290,0.32537,140.22990,-79.65553,-77.16388
-0.05340,1.72930,-0.16689,5.06953,4.05393,0.26311,3.59694,-4.24911,-16.84997,72.75644,-11.95214,42.76303,-0.62136,0.64968,0.13817,0.41563,71.15720,-85.81896,-101.18000
0.03714,1.74343,-0.13745,6.24979,3.65942,1.06677,5.67737,-4.40072,-17.47604,71.46299,-39.18052,59.20367,-0.49875,0.68759,0.09800,0.51852,66.00359,-94.89220,-51.61590
0.13344,1.74724,-0.09652,7.09283,3.06463,1.81428,8.25560,-5.39462,-17.49752,67.24726,-62.92098,68.68549,-0.36393,0.67972,0.05355,0.63456,22.93100,-203.63570,-36.09956
0.22475,1.71431,-0.01985,7.91702,1.96676,2.83121,10.43582,-6.80073,-18.12101,51.97984,-96.93202,76.29639,-0.19508,0.64709,-0.00959,0.73697,-21.56429,-187.74160,-102.44410
0.31088,1.65322,0.06687,8.35181,0.61237,3.77619,11.55849,-6.99626,-19.50944,23.46338,-131.59780,79.04446,0.00075,0.62125,-0.07321,0.78018,44.57708,-76.82920,-123.72640
0.34590,1.51098,0.17142,8.18206,-1.81565,4.94166,13.99171,-3.04797,-21.37430,-41.41143,-173.45500,59.16919,0.25860,0.63209,-0.05716,0.72823,233.29690,-83.78519,-30.87811
0.19261,1.26535,0.22123,5.48719,-6.50121,5.58138,26.60324,6.41901,-15.20827,-152.73620,-178.05230,-18.15148,0.55949,0.57638,0.30574,0.51115,495.15210,-476.74730,-124.06600
0.14315,0.99343,0.29974,3.15815,-8.85104,4.93708,36.36661,4.58241,-8.99216,-181.83550,-156.81510,-78.72186,0.80565,0.11835,0.56020,0.15197,418.20940,-115.70880,-697.03970
-0.04028,0.83800,0.20318,0.11347,-10.77308,2.69981,42.11689,-4.17995,-5.84413,-194.09640,-59.98513,-187.06110,0.70839,-0.32296,0.62689,-0.02971,487.23440,385.98640,-475.82600
-0.16844,0.76748,0.07481,-1.87095,-10.64583,0.31691,38.52573,-10.14433,-7.02738,-132.57190,68.89629,-179.43690,0.58881,-0.55917,0.58040,-0.06148,221.57280,528.27610,-108.39150
-0.26142,0.80323,-0.06301,-3.07087,-9.00798,-1.74523,29.72429,-10.11223,-10.31548,-43.43407,144.84270,-100.53730,0.56795,-0.64134,0.51411,0.04245,-170.54360,653.08540,203.98230
-0.28787,0.89413,-0.14110,-3.18120,-6.89018,-2.46013,21.62151,-6.92269,-8.97850,22.16356,116.65470,-1.25015,0.60162,-0.60723,0.50742,0.10885,-411.00490,309.25720,316.83120
-0.29189,0.92960,-0.16824,-2.89930,-5.75936,-2.28899,17.13900,-6.77357,-5.97944,29.10654,80.92917,28.02235,0.57786,-0.59827,0.54852,0.08527,-443.48160,75.59145,64.90038
-0.28091,0.97389,-0.16725,-2.58379,-4.88935,-1.75925,12.11986,-7.17361,-2.52979,12.95201,46.70237,45.54079,0.54574,-0.54207,0.63559,0.06596,-435.49330,-112.38490,2.39346
-0.27862,1.00174,-0.14542,-2.50327,-4.38855,-1.08668,5.66500,-4.95620,-2.82528,-4.41567,19.51147,43.85481,0.53832,-0.47411,0.67128,0.18660,-405.53590,176.76780,-71.20836
-0.28448,1.01558,-0.12181,-2.54905,-4.12119,-0.56785,0.58999,-0.33102,-2.56014,-4.41223,23.90574,30.98661,0.59265,-0.36052,0.64364,0.32330,-383.36120,401.28880,-33.01416
-0.14302,0.99500,-0.07496,-2.78398,-3.41964,-0.08297,-1.96709,4.02568,-3.28051,-8.49481,33.20901,13.00755,0.64341,-0.27983,0.56184,0.43824,-38.71009,146.62670,-138.10780
0.06879,0.73632,-0.02097,-2.93672,-2.98940,0.03565,-2.10694,3.17704,-4.10241,-6.79820,29.63676,7.62268,0.61894,-0.29344,0.52128,0.50900,-32.54399,-16.80469,-44.01297
0.14526,0.64122,0.00759,-3.03303,-2.63979,0.09858,-2.25904,1.87012,-4.56166,-6.17587,28.34015,3.55519,0.57866,-0.31707,0.52317,0.53936,-59.02729,-112.54550,-20.92500
0.17550,0.58961,0.03104,-3.08661,-2.20718,0.15618,-2.55696,1.06178,-4.72002,-1.39913,26.88436,2.85574,0.54212,-0.32917,0.52234,0.57001,-38.78476,-52.22096,-2.07842
0.16410,0.56764,0.04380,-3.06788,-1.83718,0.20213,-2.86393,1.23358,-4.58138,2.19719,26.59408,2.34928,0.52426,-0.32113,0.50700,0.60413,-22.99727,2.31563,10.56545
0.13822,0.55693,0.05182,-3.01614,-1.53163,0.22947,-2.94808,1.92015,-4.39725,4.93203,25.17364,1.34964,0.52031,-0.30463,0.47831,0.63851,3.26570,52.09282,3.95425
0.11217,0.55899,0.05835,-2.91769,-1.15194,0.24619,-2.89275,2.79097,-4.21330,7.72413,23.30287,0.70308,0.52387,-0.28278,0.44129,0.67146,23.03729,54.98767,-4.44973
0.08554,0.56712,0.06227,-2.77905,-0.79077,0.23883,-2.73581,3.36159,-3.97105,9.43665,22.46320,-2.06843,0.52623,-0.26277,0.40793,0.69830,17.17330,35.75671,5.67798
0.05812,0.57364,0.06383,-2.66186,-0.53873,0.20692,-2.19439,3.86958,-4.00068,9.82483,20.71287,-3.78255,0.53413,-0.25264,0.36436,0.71980,40.93237,26.11169,-8.48044
0.03718,0.58424,0.06275,-2.53139,-0.30861,0.15742,-1.38263,4.21944,-4.17012,12.07876,18.52450,-4.49322,0.54716,-0.25218,0.31367,0.73392,63.51428,17.59446,-37.75954
0.02021,0.60317,0.05842,-2.28169,0.01468,0.06785,-0.27905,3.75813,-4.37605,13.97369,13.30795,-3.57466,0.55871,-0.27571,0.27181,0.73345,43.13959,-36.55079,-24.57965
0.00223,0.61438,0.05687,-2.08258,0.17496,0.03309,-0.08752,2.83731,-4.22886,16.35365,8.79957,-0.68840,0.55092,-0.29480,0.25530,0.73784,5.78127,-66.23035,-6.77336
-0.00815,0.62445,0.05733,-1.81342,0.28678,0.03556,-0.55469,1.66071,-3.31476,17.50478,4.41063,1.34595,0.53351,-0.30205,0.27229,0.74161,-36.25884,-68.12379,60.52907
-0.01867,0.63069,0.05911,-1.59964,0.31988,0.05630,-0.83330,1.17395,-2.49118,17.15656,1.71868,1.90723,0.52397,-0.29830,0.28232,0.74617,-36.65183,-47.23026,73.80007
-0.02403,0.63510,0.06244,-1.35464,0.31905,0.09467,-0.77069,1.17962,-1.74887,16.35750,-0.83303,3.38331,0.52652,-0.28680,0.28478,0.74794,2.36964,-6.32891,60.54247
-0.02651,0.63774,0.06774,-1.12080,0.29290,0.15437,-0.58750,1.55882,-1.21558,17.02395,-3.03522,5.44795,0.53559,-0.26863,0.27719,0.75109,20.38117,22.15377,36.22683
-0.01377,0.63546,0.08292,-0.70705,0.19939,0.34778,-0.28820,3.35586,-0.20642,29.49849,-7.56742,16.58118,0.56729,-0.20338,0.25440,0.75637,24.90824,90.01981,68.88953
-0.00299,0.63329,0.09876,-0.41518,0.12952,0.50526,0.02577,4.81414,0.04861,19.72275,-3.41104,9.31530,0.59348,-0.14551,0.21406,0.76210,48.05598,157.53610,28.09157
0.00613,0.63562,0.11064,-0.20680,0.13852,0.57201,-0.07413,5.40187,0.04850,13.43813,3.31341,0.97399,0.60208,-0.10251,0.18229,0.77056,2.93385,62.13332,-2.20489
0.01397,0.64238,0.11762,-0.05705,0.20706,0.55728,-0.28767,5.57195,-0.06824,8.39709,5.74797,-2.30780,0.60239,-0.06879,0.15497,0.77998,-23.97883,6.43203,4.24709
0.02091,0.64908,0.12254,0.05177,0.26023,0.51664,-0.45484,5.49291,-0.59296,7.19617,2.97909,-3.66550,0.59768,-0.04991,0.12001,0.79113,-23.17262,1.50121,-31.40510
0.03051,0.65488,0.12282,0.18821,0.28944,0.40623,-0.78201,4.55538,-0.68401,4.81393,-0.50690,-5.45794,0.58683,-0.04480,0.11049,0.80088,-14.26372,-38.84243,4.86624
0.03980,0.66173,0.12790,0.24507,0.27125,0.31812,-0.88251,3.66809,-0.38481,2.86692,-1.94296,-5.66769,0.57888,-0.01652,0.09403,0.80980,-4.32222,-54.04864,24.01962
0.04530,0.66276,0.12642,0.27677,0.23064,0.23177,-0.83392,2.76636,-0.08094,1.23157,-2.77745,-5.47383,0.57541,-0.01591,0.10446,0.81101,4.72509,-56.02019,23.88009
0.04981,0.66334,0.12549,0.28724,0.19198,0.17097,-0.67491,2.22420,-0.05049,0.02696,-3.17977,-4.73747,0.57526,-0.01532,0.10484,0.81108,11.96005,-50.49459,11.77085
0.05381,0.66197,0.12293,0.28942,0.13324,0.09839,-0.32057,1.70632,-0.37747,0.02081,-3.36094,-4.78233,0.58031,-0.02542,0.09675,0.80823,18.17991,-35.38499,-18.69146
0.05794,0.66074,0.12016,0.29441,0.08705,0.03508,-0.00278,1.31742,-0.60185,0.85402,-3.36162,-4.35322,0.58654,-0.03400,0.08882,0.80432,21.99770,-29.36563,-23.71484
0.06267,0.65938,0.11679,0.30631,0.04843,-0.02396,0.19355,0.92271,-0.62059,1.27629,-2.78334,-4.21814,0.59120,-0.04134,0.08713,0.80074,13.94150,-28.86279,-6.98176
0.06780,0.65809,0.11313,0.32057,0.01997,-0.07318,0.32948,0.56885,-0.51156,1.54484,-2.23666,-4.25279,0.59544,-0.04718,0.08992,0.79696,11.42188,-28.89794,4.31726
0.07383,0.65680,0.10771,0.34686,-0.00288,-0.13920,0.43837,0.08112,-0.24647,2.06656,-0.94539,-3.91274,0.59929,-0.05512,0.10192,0.79210,8.48199,-31.54685,14.41506
0.08061,0.65639,0.10252,0.37736,-0.00870,-0.18824,0.39717,-0.27109,0.01242,2.37343,-0.23153,-3.07971,0.59970,-0.06035,0.11458,0.78968,-1.53772,-27.74084,19.26484
0.09101,0.65589,0.09568,0.46748,-0.01551,-0.26100,0.26059,-0.59240,0.55635,4.20956,-0.50191,-2.12566,0.59795,-0.06019,0.13517,0.78776,-5.53269,-10.30702,19.31946
0.10817,0.65499,0.08667,0.52901,-0.02239,-0.28781,0.21968,-0.58859,0.95155,4.44363,-0.46672,-1.64294,0.59953,-0.05417,0.15695,0.78294,-5.61725,-5.08251,29.56619
0.11978,0.65393,0.08138,0.59266,-0.03344,-0.30884,0.27527,-0.35472,1.15886,4.16651,-0.77493,-1.22987,0.60324,-0.04315,0.16546,0.77902,-0.32304,11.77911,20.57207
0.13202,0.65228,0.07620,0.65271,-0.05076,-0.32401,0.43355,0.03650,1.16952,4.11323,-1.33910,-0.91188,0.61081,-0.03031,0.16508,0.77378,7.63836,26.73689,3.96509
0.14500,0.65023,0.07110,0.70994,-0.06996,-0.33406,0.60906,0.45037,1.19828,4.18099,-1.24484,-0.67236,0.62015,-0.01456,0.16290,0.76725,10.30459,31.30036,1.05295
0.15839,0.64854,0.06620,0.76309,-0.07959,-0.34035,0.71271,0.80843,1.31673,3.70478,-0.29656,-0.30956,0.62854,0.00408,0.16271,0.76056,7.28661,27.26291,8.36039
0.17229,0.64761,0.06164,0.81405,-0.07635,-0.34101,0.72095,1.20447,1.41062,2.80547,0.56104,0.14722,0.63514,0.02585,0.16033,0.75513,-0.57576,24.31962,8.43800
0.18594,0.64724,0.05713,0.84895,-0.06518,-0.33845,0.67679,1.52652,1.44998,2.28428,1.06223,0.15296,0.64018,0.04716,0.15679,0.75058,-4.18337,23.62743,4.29046
0.19941,0.64753,0.05263,0.87536,-0.04487,-0.33744,0.61647,1.80014,1.49440,1.69285,1.95953,-0.13765,0.64434,0.06926,0.15308,0.74605,-5.87768,20.02297,4.36419
0.21252,0.64873,0.04800,0.89087,-0.01629,-0.33822,0.53795,2.00024,1.53620,0.97853,2.83299,-0.06626,0.64732,0.09119,0.14975,0.74178,-6.36569,16.61831,5.61894
0.22513,0.65418,0.04338,0.89476,0.08394,-0.34057,0.24127,2.57313,1.24698,-0.54280,3.81670,-0.27223,0.64666,0.11734,0.13098,0.74223,-13.43401,19.71393,-11.07959
0.24939,0.65900,0.03382,0.88656,0.12237,-0.34295,0.12931,2.74447,1.12050,-1.02130,3.96708,-0.25699,0.64924,0.15682,0.11356,0.73552,-14.67454,17.39768,-10.07240
0.25991,0.66529,0.02915,0.86096,0.19155,-0.34302,-0.09305,3.03057,0.86492,-1.72682,3.78356,0.17992,0.64654,0.17869,0.09312,0.73579,-15.78034,16.12494,-11.79053
0.26996,0.67122,0.02492,0.83394,0.24348,-0.33694,-0.28831,3.16546,0.70354,-1.91819,3.73662,0.46080,0.64274,0.19883,0.07591,0.73593,-16.54638,10.27481,-9.72855
0.28033,0.67660,0.02064,0.81745,0.27384,-0.33254,-0.41912,3.20351,0.65585,-1.93292,3.80884,0.49346,0.63858,0.21870,0.06225,0.73520,-17.28341,6.56248,-5.80771
0.28870,0.68572,0.01688,0.77527,0.34938,-0.32082,-0.77103,3.26623,0.61522,-2.24962,3.64278,0.61339,0.62747,0.24019,0.04641,0.73921,-17.28827,2.08830,2.84939
0.29733,0.69383,0.01288,0.74356,0.39661,-0.31408,-1.01108,3.31501,0.58420,-2.38461,3.19115,0.27661,0.61730,0.26112,0.03081,0.74149,-18.18577,2.17271,1.76326
0.30532,0.70204,0.00868,0.70940,0.43597,-0.31189,-1.19198,3.33730,0.55554,-2.54498,2.53499,-0.05236,0.60697,0.28123,0.01540,0.74314,-14.49079,1.85940,1.31432
0.31274,0.71023,0.00431,0.67316,0.46658,-0.31213,-1.33028,3.36720,0.50416,-2.75091,1.94828,-0.01490,0.59659,0.30084,-0.00109,0.74402,-9.92166,1.01252,-0.32216
0.31946,0.71825,-0.00007,0.63448,0.48862,-0.31255,-1.44408,3.37533,0.42282,-2.84499,1.33254,-0.15630,0.58604,0.31893,-0.01839,0.74465,-10.40388,1.05546,-3.35145
0.32509,0.72622,-0.00450,0.58741,0.50602,-0.31393,-1.50178,3.28740,0.40711,-2.96940,0.84602,-0.22525,0.57568,0.33544,-0.03230,0.74500,-5.34274,-3.89178,-1.05132
0.33074,0.73396,-0.00884,0.54982,0.51599,-0.31324,-1.50578,3.16280,0.45049,-3.23348,0.78135,0.18969,0.56566,0.35160,-0.04327,0.74467,0.77853,-9.50787,4.16875
0.33524,0.74184,-0.01295,0.50391,0.52609,-0.30958,-1.54410,3.01125,0.47396,-3.38699,0.66611,0.39168,0.55466,0.36596,-0.05366,0.74535,-0.81324,-11.02848,3.95865
0.33902,0.74964,-0.01686,0.45716,0.53311,-0.30389,-1.56706,2.84001,0.48547,-3.34899,0.40096,0.40399,0.54378,0.37871,-0.06320,0.74625,-2.20787,-11.20285,2.47524
0.34220,0.75739,-0.02058,0.41084,0.53759,-0.29631,-1.57092,2.64224,0.51667,-3.24614,0.26100,0.56883,0.53294,0.39030,-0.07089,0.74741,0.41154,-13.23918,3.53306
0.34491,0.76514,-0.02415,0.36695,0.54117,-0.28810,-1.56400,2.44910,0.57919,-3.07456,0.21589,0.53092,0.52185,0.40158,-0.07680,0.74867,1.54909,-13.52087,5.45522
0.34678,0.77280,-0.02767,0.31968,0.54315,-0.28105,-1.55216,2.26368,0.65734,-2.83897,-0.03288,0.39958,0.51055,0.41244,-0.08134,0.75007,2.23688,-11.54596,6.35056
0.34900,0.78022,-0.03133,0.28689,0.54107,-0.27747,-1.52637,2.16020,0.71592,-2.68375,-0.30936,0.21431,0.49944,0.42422,-0.08665,0.75039,3.05170,-8.94776,4.91276
0.35043,0.78729,-0.03518,0.24985,0.53433,-0.27738,-1.49053,2.09758,0.75149,-2.75702,-0.60836,-0.07772,0.48865,0.43616,-0.09232,0.74998,3.35797,-5.85797,4.21352
0.35146,0.79221,-0.03847,0.21238,0.51966,-0.27765,-1.46493,2.07774,0.70597,-2.81509,-1.11846,-0.06771,0.47859,0.44732,-0.10037,0.74886,1.98331,-1.81381,-1.74792
0.35257,0.79249,-0.03978,0.17593,0.49313,-0.27122,-1.46532,2.07053,0.59355,-2.76620,-1.64188,0.09199,0.46891,0.45714,-0.11064,0.74760,-0.65728,-1.13130,-6.52870
0.35361,0.79317,-0.04103,0.14563,0.46573,-0.26187,-1.42386,2.02993,0.48396,-2.57067,-1.98324,0.33626,0.46071,0.46571,-0.12031,0.74591,0.03390,-2.36819,-9.78396
0.35360,0.79576,-0.04295,0.11196,0.43707,-0.25027,-1.32292,1.91545,0.41748,-2.31817,-1.90305,0.65297,0.45430,0.47276,-0.12711,0.74428,5.67329,-7.50161,-6.29546
