posX, posY, posZ, velX, velY, velZ, angVelX, angVelY, angVelZ, accX, accY, accZ, rotX, rotY, rotZ, rotW, angAccX, angAccY, angAccZ
0.30652,1.20267,-0.46120,-0.34786,0.57085,-0.42419,1.41774,0.45248,0.38962,-2.13958,2.34220,-2.04442,0.08925,0.83054,-0.01378,0.54959,-2.67521,-8.38943,-2.42296
0.29923,1.21316,-0.46884,-0.38221,0.60508,-0.45071,1.54252,0.49431,0.35082,-2.61927,2.32551,-2.08992,0.09573,0.83331,-0.00173,0.54445,7.72213,2.21031,-2.45760
0.29110,1.22407,-0.47687,-0.42176,0.63875,-0.47814,1.77103,0.62668,0.28897,-2.90830,2.34074,-2.11026,0.10532,0.83759,0.01303,0.53590,13.16949,7.50967,-3.52553
0.28146,1.23576,-0.48496,-0.47648,0.67736,-0.50106,2.21050,0.72807,0.19181,-4.28328,1.99280,-0.68878,0.12075,0.84121,0.03394,0.52596,24.63803,14.15420,-3.33140
0.27118,1.24794,-0.49283,-0.52998,0.71645,-0.51558,2.52597,0.95533,0.13230,-2.87097,4.14020,-1.02668,0.13531,0.84652,0.05378,0.51207,25.57067,9.45089,-14.17184
0.26076,1.26185,-0.50048,-0.57308,0.76960,-0.52521,2.52893,1.02803,0.18273,-3.49063,3.91049,0.18522,0.14261,0.85041,0.06914,0.50168,9.28484,11.31712,7.68387
0.24982,1.27574,-0.50784,-0.61528,0.81195,-0.52880,2.24852,0.87791,0.19408,-4.00232,3.54599,0.06325,0.14558,0.85108,0.07668,0.49859,-15.00426,-7.69180,1.68151
0.23725,1.29059,-0.51541,-0.67221,0.85973,-0.53352,1.85515,0.69344,0.21357,-4.09602,3.43177,-0.71312,0.14501,0.85101,0.07963,0.49841,-31.04182,-16.82784,0.98672
0.22378,1.30648,-0.52305,-0.73043,0.91169,-0.53934,1.77177,0.71960,0.22083,-4.08852,3.54485,-0.98616,0.14877,0.85319,0.08811,0.49211,-14.52963,-4.05717,1.71223
0.20948,1.32324,-0.53037,-0.78920,0.96651,-0.53951,2.09321,0.99186,0.19660,-4.19810,3.82310,-0.04471,0.16048,0.85802,0.10605,0.47623,15.45170,16.39405,-0.16188
0.19443,1.34074,-0.53705,-0.84791,1.02217,-0.52879,2.58716,1.32010,0.16872,-4.25077,3.95378,1.09204,0.17674,0.86293,0.13026,0.45514,34.60937,24.13924,-0.90894
0.17871,1.35894,-0.54286,-0.90565,1.07644,-0.50880,3.02783,1.62537,0.14497,-4.16624,3.83582,1.90732,0.19379,0.86706,0.15546,0.43183,34.03122,23.61128,-0.96349
0.16281,1.37712,-0.54814,-0.95373,1.11986,-0.48530,3.22598,1.80774,0.15132,-4.01914,3.62252,2.57520,0.20729,0.87014,0.17684,0.41063,23.53215,19.13625,0.62574
0.14531,1.39653,-0.55198,-1.01485,1.17140,-0.44607,3.16806,1.85666,0.22521,-3.77826,3.04412,3.01313,0.21497,0.87279,0.19354,0.39315,0.43733,4.22429,5.33627
0.12784,1.41559,-0.55514,-1.06481,1.20813,-0.40559,2.99754,1.82980,0.32870,-3.46391,2.32640,2.93464,0.21901,0.87514,0.20738,0.37836,-12.15146,-4.51835,7.84560
0.11012,1.43447,-0.55731,-1.10868,1.23591,-0.35881,2.93146,1.86609,0.41837,-3.01078,1.51820,3.39013,0.22397,0.87740,0.22277,0.36108,-5.84733,-0.44118,8.43738
0.09210,1.45266,-0.55886,-1.14749,1.25116,-0.30753,2.91378,1.90512,0.48554,-2.60909,0.70699,3.83047,0.22956,0.87899,0.23896,0.34291,-1.22634,1.59795,5.04196
0.07408,1.47026,-0.55886,-1.18010,1.25624,-0.24244,2.93210,1.98855,0.53455,-1.58875,-0.00927,4.46132,0.23589,0.88032,0.25546,0.32268,2.83858,4.94661,4.31539
0.05678,1.48737,-0.55872,-1.19494,1.25252,-0.18934,2.78545,1.96403,0.56062,-1.09991,-0.73322,5.08838,0.23996,0.88145,0.26759,0.30636,-5.04991,2.18535,3.08811
0.03947,1.50370,-0.55652,-1.20652,1.23488,-0.12261,2.35702,1.74988,0.59634,-0.66387,-1.73160,5.21892,0.23840,0.88323,0.27215,0.29834,-25.95901,-13.42471,3.89393
0.02269,1.51872,-0.55226,-1.20992,1.20181,-0.04009,1.84554,1.42685,0.58860,-0.15773,-2.37951,4.98405,0.23489,0.88470,0.27234,0.29657,-33.42832,-21.35918,0.56794
0.00611,1.53298,-0.54789,-1.20859,1.16489,0.03034,1.63353,1.26947,0.55158,0.15531,-2.83271,4.22851,0.23522,0.88515,0.27708,0.29054,-21.51463,-17.38723,-1.56169
-0.01008,1.54679,-0.54365,-1.20140,1.12973,0.08587,1.81157,1.39654,0.47407,0.62924,-3.00964,3.66701,0.24275,0.88432,0.28943,0.27437,1.45339,1.69366,-4.90819
-0.02533,1.55907,-0.53794,-1.18292,1.08019,0.15179,2.40812,1.94650,0.27798,1.27203,-3.07704,3.68063,0.26255,0.88130,0.30978,0.24170,31.73419,35.03771,-11.46464
-0.04021,1.57101,-0.53226,-1.16150,1.03543,0.20497,2.94595,2.45315,0.12225,1.74751,-3.42346,4.08029,0.28296,0.87635,0.33094,0.20598,40.71680,41.86300,-10.13751
-0.05450,1.58198,-0.52618,-1.13519,0.98674,0.25418,3.15563,2.71392,-0.01582,2.16314,-3.60345,4.03779,0.30025,0.87105,0.34658,0.17606,20.77072,27.09533,-8.84875
-0.06816,1.59217,-0.51973,-1.10513,0.93688,0.29918,3.07139,2.74927,-0.11735,2.24378,-3.66916,3.39796,0.31337,0.86675,0.35632,0.15358,-2.93995,6.93802,-6.15558
-0.08137,1.60167,-0.51290,-1.07485,0.88647,0.33950,2.84302,2.69002,-0.18750,2.17051,-3.53917,2.78080,0.32395,0.86350,0.36210,0.13529,-15.88991,-2.63495,-3.71305
-0.09410,1.61052,-0.50585,-1.04385,0.83722,0.37404,2.59361,2.64155,-0.22476,2.24028,-3.34482,2.24245,0.33347,0.86085,0.36597,0.11746,-19.01490,-3.76469,-0.57276
-0.10648,1.61925,-0.49895,-1.01450,0.79677,0.39917,2.38425,2.62243,-0.24800,2.50149,-3.33873,2.00844,0.34282,0.85814,0.36911,0.09915,-16.18178,-1.62187,1.21369
-0.11790,1.62711,-0.49160,-0.97716,0.75177,0.42478,2.09595,2.55188,-0.28159,2.78093,-3.10132,1.83035,0.35127,0.85639,0.36896,0.08412,-20.34097,-3.29507,0.53381
-0.12877,1.63462,-0.48372,-0.93854,0.70959,0.45023,1.89680,2.50728,-0.32441,2.58377,-2.79429,1.58181,0.36048,0.85377,0.36936,0.06860,-18.16770,-4.56873,-0.42876
-0.13895,1.64141,-0.47524,-0.89788,0.66543,0.47982,1.80694,2.52213,-0.35728,2.42663,-2.47323,1.87661,0.37048,0.84997,0.37111,0.05072,-6.76834,2.10590,-1.63161
-0.14921,1.64821,-0.46675,-0.86622,0.63056,0.50527,1.72904,2.49989,-0.34946,2.24444,-2.51102,1.72495,0.37889,0.84620,0.37317,0.03353,-4.92663,-1.19218,1.23305
-0.15864,1.65397,-0.45783,-0.82877,0.58828,0.52963,1.59444,2.49576,-0.34193,2.47388,-2.67787,1.39343,0.38717,0.84303,0.37298,0.01666,-6.99750,-0.10516,1.00485
-0.16831,1.66016,-0.44945,-0.80269,0.56075,0.54265,1.40426,2.43967,-0.34418,2.86271,-2.91882,1.61013,0.39478,0.84060,0.37086,0.00249,-11.29318,-0.26538,2.91781
-0.17629,1.66498,-0.44029,-0.75714,0.51976,0.56647,0.92704,2.12997,-0.32191,3.01653,-2.12469,1.72366,0.39796,0.84266,0.36270,-0.00006,-29.99371,-16.33006,4.79200
-0.18391,1.66998,-0.43064,-0.71326,0.48885,0.59384,0.85874,2.06535,-0.27593,2.18184,-1.26845,1.00487,0.40285,0.84100,0.36097,-0.01170,-12.90846,-12.68844,4.94232
-0.19134,1.67511,-0.42104,-0.67528,0.46528,0.61500,1.18266,2.36664,-0.30621,2.66780,-1.55951,1.44203,0.41398,0.83303,0.36507,-0.03757,21.65856,20.02232,-3.67963
-0.19827,1.68002,-0.41124,-0.64213,0.44501,0.63195,1.35724,2.52939,-0.31656,3.02854,-1.87410,1.69074,0.42356,0.82562,0.36778,-0.06072,21.26240,19.25053,-3.72495
-0.20357,1.68415,-0.40073,-0.59271,0.41825,0.65491,1.39300,2.56001,-0.34307,3.18780,-1.49207,1.62634,0.43230,0.81903,0.36874,-0.07960,2.16790,3.04838,-1.41126
-0.20886,1.68843,-0.38995,-0.55110,0.39752,0.67896,1.41074,2.49960,-0.34079,2.94365,-1.39221,1.86672,0.43927,0.81275,0.37045,-0.09614,1.97174,-2.35087,-1.47799
-0.21392,1.69272,-0.37907,-0.51151,0.37981,0.70225,1.35694,2.37075,-0.29974,2.99861,-1.24017,1.66514,0.44416,0.80792,0.37135,-0.10996,-1.99062,-7.91492,2.42576
-0.21851,1.69691,-0.36799,-0.47253,0.36392,0.72286,1.24987,2.18249,-0.24325,2.73326,-1.10617,1.42123,0.44746,0.80441,0.37163,-0.12083,-6.67622,-13.65619,3.94530
-0.22297,1.70105,-0.35693,-0.44080,0.35061,0.73825,1.18598,2.05361,-0.21407,2.49977,-1.08008,1.15993,0.45123,0.80028,0.37213,-0.13218,-6.74215,-12.62199,3.22891
-0.22604,1.70440,-0.34567,-0.39769,0.33037,0.75380,1.17009,1.98827,-0.23082,2.66995,-1.16172,0.79427,0.45628,0.79486,0.37302,-0.14446,-2.18172,-5.61620,-0.54072
-0.22922,1.70794,-0.33452,-0.36398,0.31624,0.76361,1.19073,1.96755,-0.25895,2.79190,-1.11198,0.91917,0.46198,0.78836,0.37431,-0.15799,0.80517,-0.52695,-3.32350
-0.23149,1.71114,-0.32290,-0.32368,0.29958,0.77878,1.19733,1.86468,-0.26335,2.44877,-0.89030,0.98060,0.46613,0.78250,0.37656,-0.16920,0.79803,-5.98872,-1.70008
-0.23359,1.71446,-0.31116,-0.28762,0.28726,0.79314,1.22668,1.70897,-0.21727,2.20863,-0.71030,0.79439,0.46789,0.77736,0.38025,-0.17945,1.77383,-9.51959,1.89792
-0.23595,1.71791,-0.29968,-0.26270,0.27912,0.79976,1.23515,1.58348,-0.17340,2.03114,-0.76418,0.40720,0.46937,0.77244,0.38354,-0.18954,1.79045,-11.31169,2.72669
-0.23783,1.72089,-0.28836,-0.23634,0.26566,0.80256,1.20661,1.41187,-0.19185,1.63167,-0.98278,-0.12452,0.47152,0.76751,0.38732,-0.19640,-1.52072,-13.23888,-4.88821
-0.23922,1.72377,-0.27772,-0.20728,0.25415,0.79535,1.11206,1.40213,0.01681,2.00179,-0.74680,-0.60286,0.46969,0.76617,0.38600,-0.20829,-5.66243,-0.51166,15.38352
-0.24089,1.72664,-0.26702,-0.18904,0.24446,0.78968,1.04955,1.34693,0.07237,1.74229,-1.14051,-0.46261,0.46999,0.76320,0.38627,-0.21780,-3.88317,-3.31947,9.64835
-0.24167,1.72864,-0.25644,-0.16239,0.22487,0.78413,1.00224,1.26447,0.14210,1.60459,-1.13006,-0.32667,0.46903,0.76089,0.38695,-0.22655,-3.91657,-6.39212,5.13624
-0.24228,1.73043,-0.24597,-0.13942,0.20708,0.77834,1.01763,1.23044,0.16688,1.51736,-1.24885,-0.54750,0.46892,0.75705,0.38865,-0.23652,0.87185,-3.32531,1.81671
-0.24280,1.73214,-0.23577,-0.11976,0.19148,0.76914,1.01100,1.24178,0.18431,1.62758,-1.26469,-0.87998,0.46939,0.75303,0.38923,-0.24720,0.57405,-0.47881,1.64594
-0.24260,1.73340,-0.22621,-0.09301,0.17184,0.75245,0.97034,1.24518,0.19828,1.69305,-1.28364,-1.13826,0.47001,0.74944,0.38896,-0.25716,-1.62032,0.82204,1.03011
-0.24247,1.73471,-0.21678,-0.07258,0.15723,0.73789,0.91205,1.26261,0.21243,1.71190,-1.10229,-1.20181,0.47088,0.74609,0.38769,-0.26704,-4.94119,0.24393,1.93759
-0.24189,1.73584,-0.20740,-0.05032,0.14307,0.72510,0.90368,1.32596,0.19917,1.85088,-1.11880,-0.94697,0.47270,0.74127,0.38666,-0.27851,-2.86011,3.56183,0.44704
-0.24015,1.73617,-0.19822,-0.01501,0.11968,0.71226,0.89882,1.35526,0.15602,2.20390,-1.33749,-0.50400,0.47500,0.73596,0.38626,-0.28904,-0.14304,2.87157,-1.60003
-0.23864,1.73668,-0.18862,0.01042,0.10326,0.70834,0.91025,1.32247,0.10644,2.24258,-1.29295,-0.20847,0.47678,0.73067,0.38726,-0.29806,-0.83954,-1.01271,-3.64578
-0.23646,1.73682,-0.17884,0.04010,0.08478,0.70704,0.92881,1.22691,0.04254,2.23212,-1.31981,-0.01631,0.47818,0.72540,0.38990,-0.30515,1.36051,-5.07086,-5.43857
-0.23467,1.73670,-0.16843,0.07270,0.06421,0.71014,0.97816,1.06732,-0.04447,1.68547,-0.96177,0.04217,0.47898,0.71998,0.39498,-0.31016,1.12712,-9.71540,-5.36530
-0.23327,1.73677,-0.15818,0.09301,0.05061,0.71052,1.10402,1.07428,-0.14293,1.39286,-0.86024,-0.23842,0.48119,0.71155,0.40019,-0.31938,7.80972,-1.79821,-7.47337
-0.23127,1.73672,-0.14842,0.11093,0.03841,0.70511,1.26250,1.16953,-0.25018,1.33503,-0.81599,-0.72725,0.48451,0.70073,0.40557,-0.33125,10.63024,6.02347,-7.47183
-0.22848,1.73653,-0.13947,0.12995,0.02738,0.69185,1.35532,1.22521,-0.32977,1.53414,-0.99509,-1.18973,0.48774,0.69036,0.41035,-0.34224,8.81535,7.61805,-7.44634
-0.22565,1.73620,-0.13092,0.14523,0.01670,0.67597,1.31934,1.16081,-0.35642,1.43894,-1.21739,-1.43437,0.48978,0.68315,0.41395,-0.34938,0.83568,-1.37113,-3.04753
-0.22268,1.73549,-0.12278,0.15911,0.00268,0.65686,1.13577,0.88908,-0.29673,1.01443,-1.12977,-1.34613,0.48876,0.68191,0.41673,-0.34993,-10.71423,-15.34123,1.29711
-0.21987,1.73449,-0.11490,0.16806,-0.01281,0.63829,0.97932,0.56983,-0.22834,0.10092,-0.72274,-1.01684,0.48592,0.68249,0.42066,-0.34804,-13.23849,-22.66018,4.02438
-0.21744,1.73360,-0.10682,0.16922,-0.02351,0.62578,0.97501,0.43501,-0.21261,-0.19364,-0.79394,-1.15462,0.48418,0.67930,0.42586,-0.35038,-2.65921,-13.42755,1.18555
-0.21534,1.73254,-0.09941,0.16535,-0.03423,0.60652,0.96438,0.33483,-0.19028,-0.52093,-0.69412,-1.60648,0.48229,0.67630,0.43069,-0.35288,-0.15996,-8.29775,1.27406
-0.21367,1.73139,-0.09299,0.15588,-0.04432,0.57634,0.95739,0.32134,-0.17125,-0.79139,-0.61831,-2.07833,0.48123,0.67253,0.43445,-0.35690,-0.19094,-2.41435,1.00788
-0.21209,1.73034,-0.08665,0.14694,-0.05087,0.55090,0.92525,0.32817,-0.13921,-0.74951,-0.55039,-2.15219,0.48036,0.66914,0.43710,-0.36119,-1.60707,1.11764,1.68377
-0.21081,1.72904,-0.08091,0.13560,-0.05948,0.52249,0.89822,0.36218,-0.11849,-0.93629,-0.64024,-1.92318,0.47998,0.66538,0.43924,-0.36600,-2.74548,0.80858,2.40875
-0.20968,1.72741,-0.07537,0.12452,-0.07138,0.49719,0.92775,0.44493,-0.13735,-0.75310,-0.94908,-1.74118,0.48058,0.65956,0.44197,-0.37240,1.49238,6.13455,-0.22132
-0.20856,1.72550,-0.06979,0.11568,-0.08475,0.47756,0.93764,0.48409,-0.16787,-0.60308,-1.29539,-1.59699,0.48133,0.65389,0.44503,-0.37776,2.01405,5.20939,-2.44417
-0.20759,1.72299,-0.06455,0.10659,-0.10372,0.45751,0.93019,0.45535,-0.20774,-0.52304,-1.51674,-1.32833,0.48174,0.64892,0.44892,-0.38120,-0.39470,-0.42804,-2.86277
-0.20683,1.71962,-0.05950,0.09594,-0.13205,0.43860,0.88058,0.25717,-0.24706,-0.37722,-1.58179,-0.92448,0.48031,0.64662,0.45476,-0.37997,-2.56559,-9.73577,-2.83234
-0.20582,1.71655,-0.05399,0.09101,-0.15027,0.42910,0.85358,0.10210,-0.28099,-0.46158,-1.43603,-0.65225,0.47870,0.64410,0.46088,-0.37890,-4.15960,-14.76653,-2.69019
-0.20487,1.71295,-0.04853,0.08637,-0.17229,0.42159,0.91243,0.00134,-0.37083,-0.42662,-1.51211,-0.41724,0.47772,0.63903,0.46917,-0.37855,2.37135,-8.65563,-6.22409
-0.20396,1.70903,-0.04308,0.08228,-0.19480,0.41613,1.01503,-0.04566,-0.49061,-0.30812,-1.66492,-0.34105,0.47754,0.63177,0.47866,-0.37909,6.98409,-2.93885,-8.53509
-0.20311,1.70495,-0.03747,0.07787,-0.21445,0.41336,1.08348,-0.12834,-0.56996,-0.26747,-1.67406,-0.20890,0.47640,0.62539,0.48844,-0.37861,6.55906,-4.13600,-8.04884
-0.20248,1.70036,-0.03185,0.07134,-0.23766,0.41160,1.15003,-0.29307,-0.65638,-0.48879,-1.28734,-0.05775,0.47392,0.61968,0.50030,-0.37563,3.40581,-10.35480,-5.91234
-0.20187,1.69588,-0.02617,0.06572,-0.25448,0.41068,1.26606,-0.41075,-0.72191,-0.24864,-1.06816,-0.10123,0.47063,0.61262,0.51313,-0.37403,8.04594,-7.98842,-5.47024
-0.20126,1.69149,-0.02055,0.06141,-0.26692,0.40913,1.25134,-0.74203,-0.75828,-0.00684,-0.70263,-0.22785,0.46444,0.61035,0.52711,-0.36596,0.10812,-18.30310,-3.72058
-0.20044,1.68742,-0.01511,0.06091,-0.27234,0.40543,1.20514,-1.01518,-0.81966,-0.09874,-0.01985,-0.31180,0.45896,0.60826,0.54067,-0.35644,-5.75784,-22.38594,-5.63219
-0.19926,1.68373,-0.00993,0.06601,-0.27046,0.39829,1.28644,-1.06432,-0.93119,0.31567,0.59159,-0.54393,0.45591,0.60099,0.55473,-0.35104,2.67816,-7.89401,-7.84928
-0.19763,1.68059,-0.00514,0.07673,-0.26108,0.38683,1.44193,-0.95811,-1.04786,0.92852,0.89859,-1.00814,0.45473,0.58969,0.56861,-0.34954,12.35521,6.08927,-7.91713
-0.19531,1.67800,-0.00080,0.09565,-0.24542,0.37126,1.54487,-0.84597,-1.15379,1.81706,1.14385,-1.17235,0.45450,0.57800,0.58158,-0.34801,10.29585,9.60581,-6.02801
-0.19208,1.67570,0.00352,0.12420,-0.22854,0.35858,1.56572,-0.85590,-1.26192,2.57917,1.01747,-0.77504,0.45361,0.56798,0.59498,-0.34297,3.27335,2.57001,-6.64667
-0.18784,1.67329,0.00802,0.16194,-0.21718,0.35131,1.54700,-0.97621,-1.43117,3.17010,0.49666,-0.38182,0.45252,0.55842,0.61011,-0.33341,0.22743,-5.10580,-11.77568
-0.18267,1.67056,0.01283,0.20563,-0.21306,0.35028,1.42096,-1.25483,-1.65426,3.42188,-0.15668,0.05080,0.45072,0.55140,0.62651,-0.31670,-6.36389,-13.71328,-16.38515
-0.17661,1.66733,0.01794,0.25393,-0.21702,0.35371,1.22542,-1.62269,-1.94592,2.75995,-0.25670,0.36651,0.44881,0.54572,0.64407,-0.29315,-14.86108,-21.49263,-21.99160
-0.17091,1.66388,0.02316,0.28668,-0.22367,0.35854,1.21811,-1.75939,-2.15451,2.33471,-0.52567,0.61887,0.44739,0.53554,0.66138,-0.27499,-6.10151,-13.75452,-20.04903
-0.16447,1.65961,0.02876,0.32345,-0.24121,0.36754,1.49525,-1.71654,-2.41289,1.84471,-1.04670,0.71332,0.44719,0.51619,0.68204,-0.26150,15.33335,-0.89147,-14.85932
-0.15847,1.65515,0.03431,0.34613,-0.25790,0.37406,1.82708,-1.59860,-2.55329,1.79055,-1.48073,0.46269,0.44615,0.49402,0.70224,-0.25248,29.46308,5.54392,-9.55680
-0.15182,1.64981,0.03989,0.37392,-0.28467,0.37982,2.24067,-1.46953,-2.71355,1.67353,-2.03885,0.31117,0.44481,0.46682,0.72403,-0.24494,28.42300,5.21443,-6.06150
-0.14538,1.64412,0.04548,0.39221,-0.31060,0.38424,2.48388,-1.44804,-2.84651,1.63357,-2.51919,0.31554,0.44228,0.44141,0.74478,-0.23421,25.09965,1.50619,-6.98307
-0.13883,1.63770,0.05110,0.40818,-0.34139,0.38810,2.68412,-1.47552,-2.99346,1.12017,-2.81189,0.23696,0.43884,0.41481,0.76571,-0.22147,17.24189,-3.26036,-11.25189
-0.13230,1.62950,0.05650,0.42057,-0.39228,0.38806,2.98353,-1.51085,-3.14425,0.54592,-3.54136,-0.26348,0.43358,0.38368,0.78801,-0.20938,19.58141,-4.56828,-8.48855
-0.12615,1.62056,0.06151,0.42465,-0.44370,0.38198,3.19450,-1.57420,-3.27807,0.04134,-3.92941,-0.61339,0.42732,0.35264,0.80919,-0.19561,15.45263,-5.04741,-8.48297
-0.12045,1.61160,0.06634,0.42165,-0.48399,0.37517,3.31872,-1.63911,-3.36412,-0.59103,-4.26089,-0.80883,0.42015,0.32258,0.82860,-0.18121,13.58532,-6.85411,-9.03579
-0.11581,1.59940,0.07046,0.40360,-0.56248,0.35907,3.50787,-1.78501,-3.51459,-1.32211,-4.62327,-0.95712,0.40994,0.28870,0.84950,-0.16416,9.34405,-8.10003,-8.38314
-0.11179,1.58704,0.07452,0.37971,-0.62955,0.34512,3.67422,-1.90803,-3.65483,-2.07709,-4.97251,-1.05426,0.39895,0.25373,0.86889,-0.14656,11.14943,-8.74251,-10.15620
-0.10815,1.57489,0.07854,0.35618,-0.67851,0.33405,3.78915,-2.00965,-3.77535,-2.59322,-4.87320,-1.11476,0.38724,0.21855,0.88650,-0.12806,10.25119,-9.63293,-12.73396
-0.10711,1.55961,0.08173,0.29940,-0.76163,0.31285,4.06530,-2.24066,-3.90167,-3.79662,-4.26322,-1.16759,0.36910,0.17766,0.90571,-0.10900,12.81331,-13.40940,-9.79875
-0.10731,1.54471,0.08474,0.23372,-0.82585,0.29274,4.30267,-2.52093,-3.89869,-4.49320,-3.79513,-1.36157,0.34651,0.13804,0.92324,-0.09221,10.56155,-19.35051,-3.91631
-0.10844,1.52977,0.08742,0.16691,-0.87810,0.27132,4.45910,-2.80212,-3.89429,-5.20168,-3.77850,-1.82305,0.32163,0.09924,0.93870,-0.07456,5.86501,-22.05866,-3.17482
-0.11124,1.51410,0.08909,0.08899,-0.93043,0.23925,4.65026,-3.09795,-3.88738,-5.92003,-3.64914,-2.65265,0.29328,0.05837,0.95253,-0.05719,6.44515,-22.04396,-5.37336
-0.11565,1.49781,0.08940,0.00324,-0.98146,0.19316,4.88413,-3.41309,-3.86210,-6.49566,-3.61456,-4.00715,0.26108,0.01524,0.96433,-0.04097,11.21537,-26.33100,-2.31991
-0.12104,1.48144,0.08847,-0.07792,-1.02128,0.13887,4.99950,-3.65354,-3.93950,-6.94309,-3.30513,-5.32075,0.22885,-0.02744,0.97285,-0.02107,8.01180,-23.34830,-7.41147
-0.12881,1.46466,0.08499,-0.17620,-1.05870,0.05898,5.02634,-3.86093,-4.14064,-7.08081,-2.19326,-6.56474,0.19599,-0.06953,0.97813,0.00398,3.35336,-11.19996,-17.91711
-0.13864,1.44842,0.07797,-0.28613,-1.08112,-0.05840,5.04120,-4.01159,-4.35465,-6.83315,-0.71592,-8.41824,0.16292,-0.11156,0.97984,0.03047,2.10497,-6.63584,-16.21393
-0.14803,1.43326,0.06998,-0.36649,-1.08199,-0.16546,5.07818,-4.03824,-4.51294,-6.77025,0.71186,-9.66082,0.13202,-0.15414,0.97758,0.05614,4.84998,0.74071,-14.24337
-0.15931,1.41969,0.05776,-0.45702,-1.05966,-0.31118,5.26359,-4.11950,-4.57042,-6.40567,2.86248,-10.93108,0.09839,-0.20049,0.97160,0.07823,10.74826,-4.26319,-6.27766
-0.17127,1.40854,0.04262,-0.53897,-1.00675,-0.46979,5.50031,-4.33386,-4.45898,-5.59347,5.21436,-11.46764,0.05977,-0.24776,0.96240,0.09394,11.14200,-18.63230,3.31555
-0.18413,1.40171,0.02344,-0.61800,-0.89847,-0.65737,5.70282,-4.72904,-4.19862,-4.47830,8.77825,-12.01549,0.01422,-0.29391,0.95016,0.10305,1.98927,-31.13057,6.92777
-0.19608,1.39809,0.00371,-0.66791,-0.76422,-0.81631,5.75476,-5.23235,-3.91953,-2.79465,10.60147,-10.42319,-0.03647,-0.33550,0.93501,0.10890,-7.54106,-35.12726,4.87748
-0.20680,1.39625,-0.01550,-0.68914,-0.63381,-0.93289,5.65318,-5.89248,-3.62355,-1.08316,11.75960,-8.73743,-0.09504,-0.37140,0.91699,0.11024,-20.80867,-48.46125,-2.59283
-0.21635,1.39923,-0.03632,-0.68766,-0.46085,-1.04637,5.26900,-6.82473,-3.28575,1.12157,13.66105,-7.60167,-0.16648,-0.39676,0.89662,0.10461,-38.67183,-60.50405,-15.43449
-0.22346,1.40831,-0.05827,-0.65047,-0.23086,-1.15520,4.54095,-7.66406,-3.03197,3.83271,15.28086,-6.64925,-0.24060,-0.40791,0.87538,0.09711,-53.36095,-46.73763,-26.84043
-0.22897,1.41764,-0.07888,-0.59799,-0.04518,-1.22255,3.95220,-7.96341,-2.95221,5.49904,16.23533,-5.36810,-0.30257,-0.41706,0.85174,0.09517,-49.41404,-19.62085,-28.89244
-0.23047,1.43529,-0.10036,-0.49618,0.22518,-1.28705,3.11366,-8.17879,-2.85308,7.29643,17.48001,-2.86837,-0.36355,-0.41403,0.82965,0.08994,-47.20920,-1.44324,-24.87553
-0.23015,1.45435,-0.11985,-0.38769,0.46387,-1.31017,2.23480,-8.38860,-2.80630,8.25115,17.53746,-0.40979,-0.42468,-0.40359,0.80620,0.08242,-52.77515,-0.47883,-30.52859
-0.22969,1.47253,-0.13790,-0.30265,0.63445,-1.30789,1.45619,-8.55808,-2.83346,8.78094,17.45182,0.85965,-0.48507,-0.38820,0.78004,0.07450,-57.53265,0.32918,-42.48890
-0.22388,1.50049,-0.15471,-0.15877,0.90835,-1.28706,0.11898,-8.72598,-3.03386,9.49699,17.73932,1.48571,-0.54861,-0.34757,0.75775,0.06356,-61.89117,4.69405,-58.68388
-0.21499,1.53341,-0.17125,0.00524,1.20769,-1.26694,-1.19701,-8.89273,-3.34182,10.96541,20.36556,1.10721,-0.61117,-0.29748,0.73169,0.05109,-55.70677,5.50309,-62.16492
-0.20693,1.56461,-0.18832,0.12118,1.41641,-1.25856,-2.04342,-9.13219,-3.61666,11.73033,21.92602,0.77074,-0.67215,-0.25069,0.69564,0.03815,-53.37082,-4.57338,-69.36874
-0.19001,1.61190,-0.20535,0.34221,1.81632,-1.25168,-3.61947,-9.72188,-4.57464,13.38025,23.18659,0.10235,-0.74338,-0.16400,0.64797,0.02502,-49.15067,-32.98060,-90.99444
-0.17267,1.65917,-0.22306,0.53023,2.14528,-1.25682,-4.60270,-9.78916,-5.79980,15.04959,23.85502,-0.84587,-0.79870,-0.07595,0.59620,0.02923,-18.31263,-25.07876,-106.57460
-0.15012,1.71216,-0.24206,0.75692,2.48929,-1.27899,-5.08771,-9.33582,-7.31511,19.42610,25.09933,-2.08506,-0.83672,0.01744,0.54469,0.05392,32.32014,-15.74119,-111.09200
-0.11958,1.77057,-0.26316,1.05616,2.84223,-1.32882,-4.72132,-8.94551,-9.07804,24.13642,23.07598,-4.84956,-0.86349,0.10680,0.48168,0.10465,89.02822,-15.73289,-110.66670
-0.07891,1.83217,-0.28397,1.43962,3.16770,-1.36293,-4.43931,-8.28947,-10.19406,40.61829,31.66160,-1.14969,-0.87278,0.19063,0.42449,0.14737,76.77624,-61.54467,-39.35679
-0.01538,1.90395,-0.30360,2.06974,3.56482,-1.37118,-4.08495,-7.75797,-11.86413,51.20839,26.20379,0.51906,-0.86406,0.29109,0.35530,0.20596,97.44002,-41.88784,-88.93532
0.07749,1.97757,-0.31782,3.01106,3.91324,-1.29742,-3.52462,-7.53149,-13.34450,66.67979,16.99707,10.13376,-0.83999,0.38600,0.27317,0.26606,50.50427,-60.31189,-67.91601
0.17606,2.04342,-0.32524,3.84237,4.08026,-1.14094,-2.31238,-6.96920,-14.30021,73.95750,9.62923,18.51920,-0.79643,0.45973,0.20458,0.33541,80.48708,-60.89520,-28.50465
0.31362,2.10441,-0.31548,5.07093,4.13483,-0.76152,0.03943,-6.54959,-15.84328,82.92532,-4.03923,32.19484,-0.71484,0.52447,0.13079,0.44365,113.41010,-140.28000,-27.97885
0.46257,2.14936,-0.28899,6.23186,3.94346,-0.20827,1.79826,-6.32967,-17.43920,85.11038,-23.91146,48.04336,-0.60489,0.58828,0.04654,0.53467,83.95687,-138.40160,-56.76855
0.62871,2.17053,-0.23708,7.40984,3.44032,0.60743,3.82485,-5.56432,-19.10710,84.53032,-50.48970,68.00140,-0.45258,0.64478,-0.02204,0.61559,112.66970,-117.12510,-70.84363
0.79844,2.16587,-0.16791,8.37500,2.66740,1.49393,5.80787,-4.73697,-20.85964,79.12396,-81.54473,79.69885,-0.26184,0.68573,-0.08800,0.67340,114.57420,-166.13570,-96.12364
0.97891,2.09962,-0.06529,9.28527,1.17120,2.66976,7.62961,-2.20690,-23.95954,52.47047,-133.84530,88.58018,0.00273,0.73760,-0.13836,0.66091,169.29940,-136.18410,-166.52610
1.13124,1.96197,0.05303,9.60786,-1.04880,3.83270,11.37599,1.23516,-25.22675,-9.33117,-182.74740,76.29495,0.28646,0.73470,-0.10593,0.60575,266.15720,-234.54400,-155.25520
1.22333,1.75585,0.16689,8.98616,-3.79701,4.68919,16.10235,2.39625,-23.66795,-84.63858,-206.56040,44.34937,0.51945,0.64702,-0.02020,0.55779,61.91814,-321.77440,-170.13760
1.21153,1.47483,0.25051,6.97481,-7.11028,4.93922,21.45047,1.54638,-20.55980,-166.82030,-204.53510,-18.43578,0.70664,0.48802,0.11308,0.49971,-92.08275,-268.89750,-244.85680
1.14831,1.22529,0.28492,4.64203,-9.29249,4.43422,28.52204,1.96321,-17.80117,-214.74330,-162.71580,-73.31923,0.87097,0.26753,0.28026,0.30214,63.62851,-210.70910,-417.93350
0.94786,1.05133,0.20781,1.33525,-11.06413,3.09802,37.66886,-3.40997,-15.21605,-264.13520,-88.96726,-131.87550,0.88141,-0.15902,0.44205,0.04920,368.35270,2.26272,-752.88350
0.71295,0.99161,0.07233,-2.26027,-10.89099,0.50678,38.89687,-12.63983,-13.07717,-173.44880,96.66100,-148.95830,0.69358,-0.50958,0.50317,-0.07805,395.44820,341.92480,-398.10900
0.59190,1.03647,-0.01385,-3.71685,-8.99768,-1.13593,28.31776,-12.73782,-14.66571,-49.70850,142.89660,-62.03708,0.66156,-0.59634,0.45283,0.04076,-128.69880,718.13920,103.95440
0.54018,1.07375,-0.04140,-3.85073,-7.41980,-1.44988,20.03512,-10.09246,-14.56615,24.81825,121.65300,1.55885,0.65930,-0.61871,0.40277,0.14248,-183.78490,682.13020,485.56210
0.56302,1.22145,0.01835,-3.09242,-5.51045,-0.65232,7.70332,-12.58053,-3.87022,20.80523,43.70615,38.08640,0.57393,-0.41908,0.65926,0.24567,-705.81720,-116.68120,-81.95294
0.50516,1.07837,0.05909,-2.99912,-4.94685,-0.08399,1.39225,-8.21227,-1.05310,-24.50932,41.58381,21.75979,0.52766,-0.32757,0.72376,0.30075,-552.13380,154.02880,23.57545
0.41763,0.83552,0.05670,-3.34854,-4.16528,0.23199,-2.32272,1.68933,-5.26314,-21.03144,55.24950,13.51455,0.62669,-0.25846,0.50231,0.53679,-35.28781,630.11540,-477.83480
0.35024,0.73733,0.05249,-3.55541,-3.67018,0.27275,-2.18336,5.61868,-7.25418,-7.98775,56.08007,1.27328,0.65915,-0.25198,0.34045,0.62139,69.45454,557.58810,-225.19830
0.28725,0.67181,0.04058,-3.67163,-2.87809,0.22555,-0.91386,4.34989,-8.28556,7.08098,38.06587,-0.76003,0.63958,-0.32289,0.28463,0.63692,13.13647,-85.67699,-82.60340
0.24433,0.64143,0.03825,-3.53114,-2.40128,0.20719,-0.98120,1.06138,-7.27180,15.08187,30.25696,-0.10313,0.59054,-0.37537,0.33048,0.63335,-99.32997,-210.83700,74.13387
0.20237,0.61497,0.04028,-3.42812,-2.22656,0.20943,-1.25335,-0.00589,-6.72624,17.00165,27.55508,0.39544,0.55464,-0.40196,0.33670,0.64610,-133.85540,-188.66150,109.67220
0.18896,0.60711,0.04533,-2.95249,-1.77350,0.26417,-1.81164,-0.73550,-4.47087,20.45738,14.25273,3.72601,0.53825,-0.38329,0.38571,0.64389,-35.82932,3.50668,104.91490
0.16546,0.58930,0.05344,-2.70432,-1.63569,0.33140,-1.96347,0.10687,-3.12531,19.17201,10.54379,6.14427,0.54386,-0.35266,0.38598,0.65640,2.06558,53.25890,92.23069
0.15269,0.57956,0.06349,-2.42753,-1.47215,0.41519,-1.89714,1.65217,-1.86279,19.30449,13.65036,5.11139,0.56767,-0.30121,0.36940,0.67124,26.28950,118.84850,81.52254
0.13633,0.57398,0.07353,-2.18051,-1.26064,0.47431,-1.72877,3.13880,-1.06541,15.82648,16.85514,3.16099,0.59199,-0.24859,0.34082,0.68672,33.71106,115.81250,53.86461
0.12003,0.57415,0.08194,-1.98250,-1.01081,0.49898,-1.41596,4.53571,-0.97564,12.20373,18.51653,0.15357,0.61330,-0.20367,0.29255,0.70484,31.76733,105.21590,0.10995
0.10095,0.57561,0.08801,-1.86536,-0.79603,0.48663,-1.27406,5.07533,-1.34909,9.32246,16.86803,-1.98123,0.61857,-0.17921,0.24711,0.72401,16.31171,69.02129,-38.90730
0.08261,0.58337,0.09064,-1.76031,-0.53471,0.42904,-1.36811,4.74808,-1.81209,6.30774,15.99225,-5.27678,0.60866,-0.17357,0.21690,0.74321,-18.78839,-14.11286,-23.49327
0.06367,0.59076,0.09029,-1.68270,-0.32645,0.34051,-1.19952,4.25979,-2.30344,5.23153,14.36788,-7.47190,0.60116,-0.17896,0.18686,0.75608,-11.22898,-38.34278,-27.03989
0.04507,0.59697,0.08844,-1.61674,-0.17790,0.24955,-0.81850,3.85030,-2.74862,6.10958,11.39402,-8.23709,0.59903,-0.18883,0.15334,0.76289,4.60855,-39.57930,-41.76357
0.03141,0.60591,0.08186,-1.48983,-0.01954,0.11115,-0.20895,3.12054,-3.05013,8.37243,6.45007,-6.90136,0.60214,-0.21035,0.12703,0.75964,21.04595,-46.50870,-26.11009
0.01872,0.61106,0.07715,-1.37249,0.05775,0.02284,0.01162,2.38560,-2.91606,9.83617,3.89174,-6.30369,0.60124,-0.22437,0.11553,0.75817,7.84057,-51.49709,0.92549
0.00855,0.61407,0.07276,-1.24261,0.08813,-0.04264,0.09999,1.64268,-2.33894,9.08991,0.36227,-2.99479,0.60187,-0.23231,0.12018,0.75454,8.49092,-60.54131,31.72860
-0.00050,0.61563,0.06943,-1.11886,0.09066,-0.07760,0.02743,1.01766,-1.71081,8.76403,-0.26390,-1.56399,0.60023,-0.23636,0.13099,0.75279,-4.89341,-46.52573,47.16321
-0.00893,0.61676,0.06716,-1.01401,0.08687,-0.09118,-0.10161,0.61775,-1.22793,8.59199,-0.44617,-0.32413,0.59713,-0.23777,0.14009,0.75317,-10.18175,-36.60059,42.49731
-0.01371,0.61792,0.06566,-0.87935,0.08411,-0.08970,-0.37144,0.24256,-0.64841,8.64260,0.15492,0.26085,0.59089,-0.23558,0.15680,0.75549,-19.10264,-23.96950,37.14610
-0.01878,0.62042,0.06436,-0.77511,0.10054,-0.08375,-0.65277,0.04867,-0.24899,7.89956,1.01799,1.50289,0.58306,-0.23134,0.16999,0.76001,-11.54930,-12.09800,42.76965
-0.02199,0.62300,0.06252,-0.66861,0.11420,-0.08735,-0.78299,0.10318,-0.10442,8.33003,1.52102,-0.49342,0.57717,-0.22580,0.17326,0.76542,-24.70341,-1.20362,12.33289
-0.02257,0.62528,0.06039,-0.54786,0.12067,-0.09469,-0.84586,0.11561,0.01580,7.08255,-0.00778,-0.46404,0.57224,-0.22134,0.17707,0.76954,-4.10572,1.37298,6.49456
-0.02348,0.62703,0.05774,-0.45332,0.11783,-0.10695,-0.85805,0.10460,0.11648,6.64282,-0.29979,-1.01603,0.56818,-0.21772,0.18104,0.77265,-2.01700,-0.77061,7.75401
-0.02422,0.62837,0.05483,-0.37625,0.11083,-0.12134,-0.78527,0.14405,0.16001,6.12911,-0.65187,-1.10164,0.56645,-0.21406,0.18238,0.77463,2.87507,1.82564,6.48856
-0.01886,0.62835,0.05501,-0.22930,0.08417,-0.08831,-0.52050,0.76126,0.08545,11.54539,-2.28130,5.80791,0.57295,-0.19825,0.16707,0.77750,12.23576,24.39357,-4.05086
-0.00891,0.62745,0.05887,-0.04732,0.04861,-0.01086,-0.24684,1.65669,0.08259,13.27720,-2.78509,5.01492,0.58347,-0.17014,0.14390,0.78097,21.59438,68.95390,-9.54853
0.00240,0.62647,0.06183,0.11773,0.01952,0.03804,-0.12431,2.25618,0.20346,10.63089,-1.65823,2.05018,0.59082,-0.14180,0.12748,0.78395,9.76090,48.90109,7.81312
0.01420,0.62561,0.06302,0.25752,-0.00223,0.04964,0.05313,2.65355,0.13284,7.16227,-0.84032,-0.62003,0.59816,-0.11971,0.10784,0.78501,9.83600,27.95709,-3.65225
0.02386,0.62557,0.06209,0.34118,-0.00894,0.02972,0.22833,2.81717,-0.13031,5.26193,-0.22341,-2.10656,0.60405,-0.10638,0.08570,0.78515,9.71493,15.22097,-18.84173
0.03677,0.62585,0.05740,0.46648,-0.01608,-0.04722,0.22917,2.56801,-0.23047,3.45080,-0.56154,-2.59309,0.60579,-0.09961,0.07406,0.78589,-4.03661,-12.78757,2.95924
0.05317,0.62552,0.05334,0.51499,-0.02098,-0.08529,0.22320,2.40168,-0.22941,3.51870,-0.24553,-2.93243,0.60972,-0.07813,0.05293,0.78698,0.16929,-11.32663,-1.37183
0.06317,0.62543,0.04958,0.55495,-0.02147,-0.12130,0.19990,2.21529,-0.14839,3.30341,-0.18781,-3.03109,0.61101,-0.06936,0.04749,0.78715,-1.35575,-13.99111,4.34267
0.07468,0.62560,0.04504,0.59958,-0.02462,-0.15981,0.15129,1.96671,0.01672,2.91895,-0.55488,-2.47830,0.61163,-0.06121,0.04702,0.78737,-0.51664,-16.93616,10.19103
0.08688,0.62573,0.04009,0.64564,-0.02887,-0.19654,0.03644,1.59323,0.38192,2.79852,-0.32457,-2.12954,0.61063,-0.05276,0.05660,0.78813,-3.43875,-21.82897,20.29582
0.09880,0.62582,0.03538,0.68313,-0.02840,-0.22414,-0.10941,1.25835,0.77916,2.38314,0.08915,-1.71132,0.60818,-0.04291,0.07000,0.78954,-6.62559,-26.06889,30.36405
0.11115,0.62590,0.03062,0.71830,-0.02818,-0.24698,-0.18596,1.05352,1.07988,2.12089,0.12355,-1.45641,0.60660,-0.03174,0.08158,0.79017,-4.04774,-17.58281,24.58850
0.12343,0.62601,0.02584,0.74657,-0.02655,-0.26529,-0.20198,0.98249,1.24632,2.03136,0.40809,-1.42813,0.60606,-0.01970,0.08921,0.79015,-0.47944,-9.06476,17.30400
0.13672,0.62675,0.02051,0.78233,-0.01879,-0.28889,-0.18179,1.05354,1.32026,1.82212,0.69160,-1.32501,0.60644,-0.00555,0.09254,0.78971,0.76536,2.12654,6.96941
0.15009,0.62790,0.01537,0.80811,-0.01203,-0.30505,-0.14369,1.20966,1.26477,1.72570,0.49868,-1.22421,0.60741,0.00891,0.09041,0.78918,1.15549,11.16245,-2.42385
0.16402,0.62926,0.00982,0.83618,-0.00579,-0.32349,-0.06284,1.46915,1.15614,1.65834,0.45676,-1.44247,0.60991,0.02557,0.08344,0.78765,2.19335,16.83847,-7.64953
0.17799,0.63057,0.00375,0.86181,0.00160,-0.34601,0.06768,1.84345,0.96492,1.33831,0.60249,-1.51179,0.61438,0.04443,0.07000,0.78464,5.65468,25.18509,-12.08831
0.19231,0.63260,-0.00234,0.88235,0.00981,-0.36429,0.17868,2.26284,0.69719,0.96836,0.42004,-1.04871,0.61895,0.06416,0.05065,0.78116,3.91815,30.80549,-19.63535
0.20637,0.63476,-0.00838,0.89679,0.01841,-0.37796,0.24287,2.62922,0.45718,0.75043,0.52652,-1.00674,0.62249,0.08413,0.02991,0.77752,0.62023,28.04818,-18.97561
0.22027,0.63794,-0.01476,0.90739,0.03641,-0.39511,0.26690,2.92649,0.30390,0.46497,1.23958,-1.15506,0.62485,0.10493,0.01032,0.77359,-0.63412,20.24897,-11.31985
