posX, posY, posZ, velX, velY, velZ, angVelX, angVelY, angVelZ, accX, accY, accZ, rotX, rotY, rotZ, rotW, angAccX, angAccY, angAccZ
0.24009,1.20220,-0.41564,-0.30543,0.36999,-0.25307,0.74079,0.89289,0.32985,-0.31261,0.36338,-0.05530,0.05315,0.80353,-0.03450,0.59188,19.68233,10.65306,-2.11788
0.23564,1.20762,-0.41929,-0.31018,0.37475,-0.25244,1.05834,0.95067,0.27184,-0.37292,0.32661,0.31579,0.06205,0.80890,-0.02222,0.58424,17.02776,4.45624,-4.16915
0.23119,1.21309,-0.42266,-0.31308,0.37906,-0.24903,1.21901,0.93691,0.25372,-0.35369,0.61833,0.53830,0.06845,0.81282,-0.01160,0.57837,18.37937,1.85726,-3.82942
0.22655,1.21897,-0.42598,-0.31879,0.38869,-0.24640,1.38380,0.80790,0.19943,-0.65356,0.80515,-0.29439,0.07686,0.81421,-0.00053,0.57546,10.18497,-5.81589,-4.46837
0.22180,1.22510,-0.43008,-0.32478,0.39991,-0.25482,1.44752,0.84357,0.15987,-0.31801,1.00856,-0.71787,0.08358,0.81806,0.00862,0.56897,7.64688,-6.50796,-2.66542
0.21701,1.23207,-0.43447,-0.33070,0.42163,-0.26586,1.30511,0.70342,0.11316,-0.55354,1.69002,-0.80443,0.08718,0.81869,0.01252,0.56744,-6.99132,-6.28971,-5.48068
0.21178,1.23905,-0.43897,-0.34129,0.43927,-0.27670,1.31751,0.70719,0.08922,-1.02320,1.14561,-1.28452,0.09254,0.82133,0.01972,0.56255,-8.65407,-7.70468,-0.79152
0.20585,1.24662,-0.44362,-0.36078,0.46263,-0.28639,1.51806,0.78927,0.05294,-1.31752,1.57593,-0.22566,0.10224,0.82524,0.03179,0.55454,13.65676,7.08986,-2.35422
0.19988,1.25441,-0.44795,-0.37628,0.48426,-0.29012,1.63147,0.77958,0.02423,-1.11572,1.65927,-0.17939,0.11095,0.82751,0.04276,0.54872,9.31401,-0.15165,-2.25078
0.19383,1.26247,-0.45248,-0.39133,0.50717,-0.29550,1.78336,0.79725,-0.01171,-1.09796,1.69781,-0.73967,0.12111,0.82984,0.05503,0.54191,8.78521,-0.43518,-2.55528
0.18741,1.27107,-0.45749,-0.40853,0.53307,-0.30602,1.94650,0.92692,-0.03842,-1.44029,2.08333,-0.68983,0.13214,0.83397,0.06824,0.53140,13.23539,9.17984,-2.29514
0.18042,1.28022,-0.46262,-0.42992,0.56112,-0.31693,2.02273,0.98811,-0.03008,-1.72791,2.10404,-0.64072,0.14127,0.83726,0.08060,0.52206,6.52680,5.71700,0.12697
0.17293,1.28986,-0.46769,-0.45440,0.59044,-0.32558,2.12663,1.05381,-0.01052,-1.88648,2.12023,-0.62557,0.15073,0.84045,0.09423,0.51190,5.67750,3.27585,1.39339
0.16489,1.29995,-0.47263,-0.48125,0.61961,-0.32999,2.33670,1.16453,0.02034,-1.97441,2.01714,-0.17308,0.16212,0.84392,0.11148,0.49908,13.63503,7.17525,2.58684
0.15653,1.31035,-0.47727,-0.50678,0.64698,-0.32984,2.52603,1.25085,0.04738,-1.83363,1.97395,0.29674,0.17379,0.84678,0.12941,0.48582,16.68616,7.25317,2.32435
0.14836,1.32057,-0.48199,-0.52627,0.66823,-0.32999,2.51590,1.23756,0.06939,-1.74086,1.89925,0.27132,0.18233,0.84855,0.14313,0.47563,5.96384,1.63221,1.34304
0.13937,1.33124,-0.48694,-0.55416,0.69180,-0.33210,2.32189,1.07840,0.05558,-2.45485,0.71761,-0.01823,0.18796,0.84851,0.15176,0.47082,-11.92680,-8.02460,2.70355
0.12995,1.34205,-0.49206,-0.58096,0.71163,-0.33811,2.20581,1.13532,0.05047,-0.63069,2.79547,-1.21327,0.19504,0.85095,0.16016,0.46065,-14.87476,-2.66581,-15.47839
0.12106,1.35392,-0.49717,-0.59522,0.74325,-0.34287,2.22995,1.34743,0.15189,-1.24557,1.86775,-0.00238,0.20120,0.85585,0.17293,0.44400,0.48186,15.64564,15.30790
0.11174,1.36573,-0.50188,-0.61229,0.76636,-0.34024,2.33257,1.47235,0.16122,-1.49176,1.41022,0.24161,0.21064,0.85869,0.18711,0.42810,7.33700,8.34100,2.83808
0.10187,1.37787,-0.50624,-0.63401,0.79044,-0.33354,2.57259,1.69437,0.14551,-1.32939,1.60371,0.55165,0.22355,0.86151,0.20435,0.40751,13.36664,13.33527,-0.26341
0.09226,1.38987,-0.51039,-0.64844,0.80844,-0.32473,2.69846,1.80960,0.13537,-1.31237,1.50194,1.25486,0.23506,0.86324,0.22013,0.38872,15.53026,13.88570,0.15851
0.08227,1.40222,-0.51416,-0.66487,0.82717,-0.31145,2.61818,1.78992,0.13174,-1.23053,1.36393,1.35779,0.24317,0.86439,0.23160,0.37425,-1.49893,1.48995,0.09916
0.07201,1.41473,-0.51756,-0.68311,0.84768,-0.29414,2.39411,1.69310,0.14608,-1.21266,1.40014,1.13277,0.24798,0.86559,0.23918,0.36340,-14.46457,-7.31517,1.44765
0.06183,1.42710,-0.52097,-0.69736,0.86381,-0.27960,2.28014,1.66222,0.17890,-1.34130,1.54379,1.22201,0.25324,0.86680,0.24840,0.35045,-11.52213,-4.11374,2.58987
0.05125,1.43992,-0.52406,-0.71310,0.88151,-0.26300,2.23400,1.67219,0.24179,-1.42563,1.64153,1.36823,0.25812,0.86809,0.25906,0.33569,-6.20559,-2.03775,5.04164
0.03993,1.45372,-0.52604,-0.73541,0.90719,-0.23637,2.32532,1.79133,0.33209,-1.49286,1.61320,1.65017,0.26410,0.86944,0.27287,0.31602,4.95710,5.09275,5.89170
0.02852,1.46743,-0.52758,-0.75500,0.92642,-0.20887,2.44276,1.94275,0.39891,-1.39403,1.19475,2.33024,0.27109,0.87037,0.28726,0.29403,9.43120,10.38457,5.77819
0.01721,1.48093,-0.52893,-0.76743,0.93647,-0.18507,2.47248,1.98942,0.43749,-1.31191,0.41830,2.83720,0.27707,0.87048,0.30012,0.27463,7.24833,9.01523,4.71933
0.00566,1.49405,-0.52871,-0.78255,0.94865,-0.13719,2.45641,1.99918,0.47301,-0.59443,0.64651,3.14213,0.28207,0.87034,0.31182,0.25634,0.59736,2.00744,2.58303
-0.00551,1.50644,-0.52868,-0.79034,0.95112,-0.09730,2.36632,1.93767,0.50293,-0.64195,0.14244,2.99762,0.28549,0.87001,0.32182,0.24084,-5.26278,-5.58716,2.32781
-0.01692,1.51894,-0.52750,-0.79827,0.95036,-0.04961,2.36995,1.95020,0.56000,-0.51208,0.09486,3.01631,0.28911,0.86931,0.33356,0.22238,-2.24206,-1.94682,3.48985
-0.02826,1.53123,-0.52566,-0.80324,0.94348,-0.00508,2.42277,1.98379,0.58511,-0.24899,-0.89153,3.58867,0.29388,0.86759,0.34621,0.20264,6.44706,4.18337,3.06460
-0.03930,1.54277,-0.52332,-0.80276,0.92797,0.03925,2.28747,1.86818,0.55318,0.20041,-1.31286,3.49592,0.29721,0.86610,0.35457,0.18926,-6.17884,-5.44632,-1.32609
-0.05023,1.55411,-0.52024,-0.79942,0.90869,0.08265,2.10329,1.70099,0.50469,0.23845,-1.41316,3.08467,0.29977,0.86462,0.36124,0.17909,-13.20149,-11.72071,-3.73635
-0.06113,1.56498,-0.51683,-0.79658,0.88682,0.12154,1.95520,1.56983,0.45063,0.14019,-1.50634,2.47986,0.30269,0.86293,0.36759,0.16916,-12.58599,-11.10021,-3.76611
-0.07193,1.57560,-0.51334,-0.79306,0.86564,0.15351,1.98328,1.59967,0.41833,0.17397,-1.35709,1.72465,0.30767,0.86012,0.37666,0.15382,-2.26344,-1.57425,-3.15755
-0.08255,1.58583,-0.50979,-0.78635,0.84014,0.17789,2.06927,1.83152,0.38812,0.58097,-1.68321,1.22416,0.31530,0.85717,0.38537,0.13165,5.45852,13.60357,-0.16031
-0.09283,1.59610,-0.50650,-0.77640,0.81993,0.19155,2.10825,2.02771,0.36648,1.00815,-1.83700,1.23452,0.32274,0.85414,0.39287,0.10926,4.30458,17.70852,-0.16796
-0.10261,1.60558,-0.50300,-0.76144,0.79282,0.20570,2.01088,2.13652,0.33973,1.32503,-2.21040,1.29409,0.32918,0.85206,0.39701,0.08954,-3.44953,10.58126,0.13156
-0.11195,1.61443,-0.49918,-0.74245,0.76040,0.22090,1.74073,2.07885,0.27574,1.51925,-2.68339,1.39545,0.33420,0.85141,0.39693,0.07653,-17.30257,-1.30746,-0.89758
-0.12083,1.62242,-0.49488,-0.72113,0.72260,0.24028,1.50801,1.97612,0.15763,1.41232,-2.74532,1.41037,0.34038,0.85001,0.39649,0.06644,-20.69044,-7.95968,-6.06343
-0.12958,1.62971,-0.49001,-0.70242,0.68217,0.26407,1.45042,1.96354,0.02892,1.08812,-2.77251,1.69211,0.34889,0.84647,0.39865,0.05343,-9.04456,-1.57140,-8.31208
-0.13864,1.63615,-0.48526,-0.68924,0.64123,0.28934,1.51765,2.01275,-0.08309,0.82949,-2.79655,1.88600,0.35869,0.84104,0.40322,0.03757,1.67993,3.26981,-8.23475
-0.14812,1.64183,-0.48111,-0.68063,0.60229,0.31213,1.62728,2.09627,-0.15919,0.59331,-2.59812,1.84450,0.36868,0.83462,0.40878,0.01960,7.22727,6.51010,-7.32119
-0.15772,1.64768,-0.47672,-0.67637,0.57254,0.32994,1.70113,2.16939,-0.18386,0.37354,-2.22662,1.73508,0.37750,0.82839,0.41384,0.00108,6.62086,6.32775,-3.69982
-0.16702,1.65298,-0.47059,-0.67373,0.53555,0.35861,1.80667,2.28066,-0.12488,0.07798,-1.96605,1.71503,0.38470,0.82193,0.41954,-0.02066,7.49803,6.65552,2.55931
-0.17628,1.65858,-0.46434,-0.67431,0.50893,0.38019,1.77236,2.27356,-0.00966,0.05517,-2.00121,1.78318,0.38852,0.81764,0.42307,-0.03920,2.07387,1.61088,7.11510
-0.18560,1.66386,-0.45774,-0.67489,0.48230,0.40227,1.59883,2.13322,0.15419,0.08474,-2.10106,1.81612,0.38848,0.81623,0.42426,-0.05329,-7.91136,-8.41013,11.21370
-0.19509,1.66880,-0.45061,-0.67709,0.45540,0.42561,1.29914,1.87071,0.34936,-0.13180,-1.99361,1.84658,0.38470,0.81810,0.42292,-0.06202,-16.93194,-18.06404,13.07870
-0.20487,1.67346,-0.44300,-0.68296,0.42949,0.45114,0.87761,1.47106,0.62628,-0.31866,-2.01331,2.15006,0.37518,0.82435,0.41888,-0.06498,-24.89504,-27.07565,19.54436
-0.21502,1.67757,-0.43473,-0.69377,0.40084,0.48154,0.46523,0.96247,0.95452,-1.18263,-1.84833,2.14709,0.36004,0.83330,0.41475,-0.06299,-29.47142,-40.44809,24.24064
-0.22562,1.68157,-0.42603,-0.70732,0.37642,0.51046,0.45623,0.76695,1.21212,-1.71251,-1.45214,1.93093,0.34707,0.83738,0.41641,-0.07033,-11.17950,-30.42377,22.14426
-0.23642,1.68463,-0.41640,-0.72122,0.34275,0.54713,0.85362,0.88725,1.46881,-0.67826,-2.39285,1.88574,0.33564,0.83547,0.42551,-0.09102,24.10350,7.42287,16.09982
-0.24644,1.68692,-0.40758,-0.72093,0.30461,0.56481,1.05954,1.01669,1.57542,0.85945,-3.51308,0.86455,0.32751,0.83344,0.43128,-0.11008,21.29636,14.05109,9.11185
-0.25532,1.68882,-0.39950,-0.70494,0.26693,0.56457,0.86602,0.88060,1.59484,2.25017,-3.87073,-0.31146,0.31862,0.83640,0.43023,-0.11751,-2.67640,-2.37340,4.03418
-0.26267,1.68962,-0.39251,-0.67058,0.22121,0.54826,0.40656,0.57703,1.51463,2.70527,-3.42926,-1.70837,0.31046,0.84358,0.42303,-0.11420,-29.47104,-25.74212,-2.86292
-0.26861,1.68947,-0.38662,-0.62158,0.17123,0.52024,0.05758,0.55866,1.30918,2.62829,-2.62337,-2.12187,0.30936,0.84833,0.41396,-0.11521,-27.08361,-9.45270,-10.04404
-0.27457,1.68980,-0.38050,-0.58156,0.13993,0.50201,0.11508,0.91881,1.06187,2.94888,-1.86515,-1.55056,0.31496,0.84597,0.41030,-0.12954,-8.03379,16.62526,-16.91886
-0.27912,1.68973,-0.37366,-0.53015,0.10950,0.49867,0.55874,1.66945,0.66487,3.61266,-1.96073,0.40858,0.33154,0.83318,0.41309,-0.15888,19.95132,52.74843,-27.71829
-0.28176,1.68887,-0.36516,-0.45941,0.07285,0.52122,1.04927,2.29240,0.16648,4.86262,-2.14257,2.07140,0.35227,0.81512,0.41975,-0.18787,25.74054,43.07500,-30.19818
-0.28439,1.68847,-0.35590,-0.40156,0.05006,0.55058,1.19061,2.31285,-0.12803,4.37047,-1.51522,2.41350,0.36423,0.80391,0.42452,-0.20211,8.75751,7.95371,-24.15483
-0.28695,1.68832,-0.34623,-0.35599,0.03681,0.58009,1.25099,2.17183,-0.27598,3.81844,-0.78473,2.58372,0.37195,0.79502,0.42944,-0.21254,3.56533,-6.72543,-17.01099
-0.28865,1.68848,-0.33552,-0.30461,0.03073,0.61963,1.35542,1.97567,-0.36229,2.86120,0.02257,2.26239,0.37724,0.78608,0.43668,-0.22155,4.08877,-13.81616,-8.57360
-0.29090,1.68909,-0.32506,-0.27092,0.03259,0.64624,1.48779,1.93893,-0.38988,2.76611,0.32554,2.03817,0.38254,0.77576,0.44346,-0.23494,8.92172,-5.32453,-4.58339
-0.29252,1.68997,-0.31411,-0.23537,0.03791,0.67412,1.60462,1.83413,-0.37206,2.66974,0.27556,1.82521,0.38552,0.76600,0.45120,-0.24706,10.24705,-4.08728,-2.00602
-0.29365,1.69101,-0.30342,-0.20294,0.04547,0.69373,1.61573,1.63308,-0.31276,2.26696,0.64398,1.03409,0.38603,0.75890,0.45795,-0.25562,1.93489,-15.41999,1.94299
-0.29440,1.69237,-0.29308,-0.17188,0.05641,0.70356,1.59482,1.47331,-0.24353,2.13641,0.81692,0.46686,0.38607,0.75241,0.46371,-0.26420,-0.27686,-12.01036,3.37265
-0.29539,1.69377,-0.28309,-0.15133,0.06525,0.70591,1.56196,1.36660,-0.18623,2.04044,0.86222,-0.00042,0.38631,0.74602,0.46867,-0.27306,-2.58773,-11.48391,4.42592
-0.29471,1.69576,-0.27381,-0.11070,0.08101,0.69756,1.45716,1.26652,-0.13192,2.35446,0.77086,-0.85262,0.38662,0.74116,0.47169,-0.28057,-5.18753,-6.53984,3.20032
-0.29397,1.69745,-0.26502,-0.07677,0.08934,0.68393,1.35107,1.21929,-0.12639,2.42503,0.40041,-1.03965,0.38865,0.73573,0.47394,-0.28817,-7.33250,-2.78792,1.44616
-0.29373,1.69888,-0.25610,-0.05806,0.09195,0.67562,1.28890,1.18652,-0.13029,2.31141,0.25806,-1.03314,0.39075,0.72978,0.47664,-0.29589,-7.78384,-3.59838,0.42956
-0.29146,1.70036,-0.24788,-0.01413,0.09481,0.65922,1.20470,1.10846,-0.13631,2.06518,0.08264,-0.63634,0.39238,0.72494,0.47909,-0.30162,-5.16546,-4.45210,0.09355
-0.28989,1.70154,-0.23914,0.01188,0.09259,0.65248,1.21594,1.11797,-0.16267,2.17078,-0.30309,-0.55163,0.39492,0.71753,0.48278,-0.31002,0.12251,0.14879,-1.69812
-0.28731,1.70231,-0.23074,0.04734,0.08488,0.64230,1.21733,1.10302,-0.22613,2.34158,-0.70958,-0.82310,0.39819,0.70981,0.48693,-0.31705,0.47314,0.12606,-3.57048
-0.28443,1.70278,-0.22267,0.08048,0.07424,0.62958,1.17578,1.09338,-0.29739,2.42176,-0.92925,-0.92299,0.40234,0.70246,0.49014,-0.32316,-3.30437,-1.07872,-4.50464
-0.28099,1.70274,-0.21463,0.11484,0.05818,0.61849,1.15664,1.07058,-0.39632,2.53774,-1.31105,-0.74470,0.40710,0.69434,0.49427,-0.32842,-2.26900,-0.49711,-6.30115
-0.27692,1.70227,-0.20659,0.15170,0.03909,0.61011,1.16070,1.05458,-0.51695,2.74830,-1.37142,-0.39431,0.41262,0.68524,0.49918,-0.33318,-1.52743,-0.95007,-7.91332
-0.27228,1.70130,-0.19821,0.18922,0.01659,0.60885,1.25168,1.05021,-0.67189,2.57237,-1.56715,0.15043,0.41866,0.67361,0.50655,-0.33821,3.29683,0.17534,-11.08587
-0.26728,1.70005,-0.18953,0.22414,-0.00532,0.61158,1.37972,1.05340,-0.80709,2.52850,-1.51078,0.23978,0.42436,0.66047,0.51521,-0.34389,9.39308,1.67979,-11.53255
-0.26199,1.69855,-0.18055,0.25646,-0.02678,0.61854,1.42045,0.84839,-0.88105,1.93702,-1.40370,0.59546,0.42656,0.65096,0.52488,-0.34467,3.18706,-8.49112,-6.30428
-0.25746,1.69739,-0.17152,0.27082,-0.03840,0.62509,1.40894,0.63026,-0.87688,1.31783,-1.06294,0.67587,0.42664,0.64387,0.53368,-0.34438,-2.24141,-20.32093,-4.10613
-0.25261,1.69597,-0.16213,0.28622,-0.05098,0.63488,1.43130,0.35368,-0.83928,0.83366,-0.76996,0.81789,0.42356,0.63791,0.54436,-0.34254,-1.12699,-21.05616,-0.22556
-0.24781,1.69420,-0.15227,0.29798,-0.06656,0.64981,1.57585,0.10988,-0.77540,0.57850,-1.08066,0.95306,0.41773,0.63020,0.55764,-0.34261,7.45394,-16.52252,1.57959
-0.24313,1.69229,-0.14253,0.30590,-0.08098,0.66009,1.67083,-0.08822,-0.72992,0.91683,-1.39790,0.66994,0.41203,0.62264,0.57043,-0.34229,9.01739,-15.51222,2.54539
-0.23810,1.68968,-0.13295,0.31683,-0.10226,0.66538,1.63166,-0.45647,-0.72739,0.97423,-1.63705,0.02893,0.40433,0.61908,0.58405,-0.33488,-2.01210,-24.91117,-1.48637
-0.23249,1.68654,-0.12408,0.33430,-0.12716,0.65928,1.58632,-0.76310,-0.78241,1.04656,-1.52148,-0.77611,0.39762,0.61498,0.59792,-0.32586,-4.74585,-21.22738,-5.11385
-0.22652,1.68333,-0.11604,0.35390,-0.14842,0.64270,1.57004,-0.86539,-0.86657,1.45916,-1.49296,-1.50640,0.39416,0.60814,0.61047,-0.31959,-1.16522,-8.87069,-6.74879
-0.22022,1.68002,-0.10843,0.37378,-0.16644,0.62300,1.55216,-0.88938,-0.95675,1.66451,-1.57126,-1.74052,0.39227,0.60026,0.62230,-0.31394,-1.45480,-2.41300,-7.55828
-0.21331,1.67600,-0.10147,0.39815,-0.19085,0.59840,1.56106,-0.87001,-1.07380,1.79474,-1.86574,-1.70577,0.39178,0.59069,0.63441,-0.30840,0.17447,1.21956,-8.16674
-0.20535,1.67082,-0.09513,0.43403,-0.22811,0.56964,1.57771,-0.90013,-1.28580,2.31794,-2.33925,-1.55975,0.39251,0.57952,0.64828,-0.29971,2.94060,0.91313,-10.89703
-0.19782,1.66614,-0.08817,0.45560,-0.25010,0.55503,1.54088,-0.96984,-1.43060,2.23672,-2.22542,-1.42610,0.39218,0.57008,0.66134,-0.28955,-2.09475,-4.09608,-14.73890
-0.18908,1.66028,-0.08191,0.49030,-0.28457,0.53385,1.54913,-1.02712,-1.68679,1.96141,-2.00314,-1.25333,0.39406,0.55763,0.67624,-0.27651,-0.74800,-3.39418,-16.08487
-0.18036,1.65444,-0.07567,0.51831,-0.31216,0.51672,1.67859,-0.95595,-1.87158,1.75245,-1.66511,-1.12255,0.39645,0.54136,0.69140,-0.26781,7.88348,3.64942,-13.59720
-0.17191,1.64878,-0.06920,0.53553,-0.33069,0.50614,1.86206,-0.84202,-1.96202,1.33600,-1.81335,-0.93602,0.39801,0.52294,0.70656,-0.26248,16.49441,7.98647,-9.32020
-0.16297,1.64188,-0.06328,0.55650,-0.36326,0.49017,2.07493,-0.83178,-2.15032,1.32438,-1.66614,-0.92032,0.39899,0.50141,0.72457,-0.25375,15.31680,1.56764,-9.11313
-0.15430,1.63564,-0.05719,0.57015,-0.38058,0.47969,2.12591,-0.92059,-2.28242,0.59187,-1.17017,-0.56672,0.39834,0.48395,0.74080,-0.24153,2.99148,-5.09273,-11.49997
-0.14616,1.62911,-0.05079,0.57267,-0.39847,0.47552,2.24092,-1.02797,-2.36120,-0.10182,-1.15461,0.00372,0.39527,0.46498,0.75805,-0.23004,6.21155,-7.12136,-6.96372
-0.13852,1.62263,-0.04400,0.56776,-0.41193,0.47806,2.37205,-1.17533,-2.40650,-0.59373,-0.70798,0.52097,0.38965,0.44542,0.77599,-0.21820,7.43953,-10.98461,-5.48120
-0.13146,1.61608,-0.03672,0.55526,-0.42384,0.48732,2.55629,-1.35097,-2.38726,-1.17932,-0.96624,0.88193,0.38052,0.42465,0.79483,-0.20764,10.41926,-13.19211,-0.50722
-0.12521,1.60914,-0.02900,0.53346,-0.43912,0.50098,2.67383,-1.62432,-2.39141,-1.72945,-1.38093,1.01126,0.36816,0.40485,0.81423,-0.19387,8.21462,-19.25624,-1.70556
-0.11981,1.60169,-0.02091,0.50376,-0.45861,0.51732,2.74009,-1.94808,-2.40263,-2.48600,-1.48709,1.37951,0.35296,0.38599,0.83360,-0.17762,0.19303,-21.95616,-5.57434
-0.11538,1.59344,-0.01249,0.46605,-0.48601,0.53501,2.89340,-2.25258,-2.39314,-2.96379,-2.27472,1.28736,0.33476,0.36441,0.85370,-0.16231,5.11834,-23.58738,-2.37802
-0.11191,1.58402,-0.00416,0.42220,-0.52475,0.54767,3.11192,-2.51340,-2.38808,-3.27301,-3.21593,0.64604,0.31476,0.33951,0.87397,-0.14775,11.53358,-21.87622,-1.05829
-0.10949,1.57272,0.00380,0.37124,-0.58400,0.55242,3.42110,-2.73068,-2.42610,-3.00633,-4.30774,0.21201,0.29360,0.30974,0.89448,-0.13329,13.52342,-17.39003,-1.91824
-0.10774,1.55936,0.01102,0.31940,-0.66400,0.54520,3.91393,-2.88111,-2.42748,-3.48470,-5.51897,-0.90796,0.27071,0.27250,0.91514,-0.12239,28.53251,-14.17797,1.96036
-0.10613,1.54558,0.01756,0.27614,-0.73248,0.52883,4.19970,-2.99845,-2.47674,-3.66133,-6.26232,-2.07173,0.24852,0.23673,0.93293,-0.10883,26.97408,-15.13772,2.17591
-0.10643,1.52901,0.02239,0.21327,-0.82904,0.49020,4.37471,-3.15673,-2.75908,-4.18100,-6.23349,-3.20994,0.22676,0.19949,0.94934,-0.08678,14.95838,-8.87308,-15.83153
-0.10689,1.51277,0.02644,0.16140,-0.90010,0.44803,4.47632,-3.21667,-3.01539,-4.41915,-5.81672,-3.75888,0.20687,0.16239,0.96269,-0.06367,10.85824,-2.16445,-21.39055
-0.10881,1.49481,0.02881,0.09915,-0.98097,0.39021,4.80263,-3.27142,-3.13443,-4.97766,-5.21628,-4.48624,0.18419,0.11815,0.97474,-0.04475,19.79538,-2.07438,-10.78759
-0.11229,1.47637,0.02949,0.02667,-1.05184,0.31928,5.25761,-3.40635,-3.05452,-5.62164,-4.37905,-5.41401,0.15584,0.06903,0.98485,-0.03194,29.07652,-14.98267,5.85671
-0.11717,1.45790,0.02861,-0.05149,-1.10865,0.24001,5.65353,-3.65072,-2.85339,-5.72580,-3.73461,-6.01631,0.12174,0.01991,0.99210,-0.02260,21.23906,-26.30746,11.66330
-0.12349,1.43938,0.02581,-0.13505,-1.15485,0.14855,6.02777,-4.02088,-2.62303,-6.45609,-2.75149,-7.15777,0.08132,-0.03053,0.99611,-0.01488,18.55443,-32.59088,9.35707
-0.13164,1.42112,0.02028,-0.22808,-1.18632,0.03523,6.30720,-4.56277,-2.34795,-6.91045,-1.73695,-9.15688,0.03223,-0.07982,0.99625,-0.00900,11.08137,-44.81973,6.77646
-0.14046,1.40361,0.01249,-0.31073,-1.20083,-0.08625,6.45384,-5.05171,-2.19747,-6.79801,-0.83058,-11.51580,-0.01846,-0.12680,0.99176,-0.00084,4.41813,-47.63294,-1.14009
-0.15218,1.38728,-0.00275,-0.41875,-1.19509,-0.29242,6.53942,-5.56598,-2.23860,-6.31940,1.29135,-14.92597,-0.07285,-0.17279,0.98218,0.01247,2.78901,-33.16243,-13.03495
-0.16375,1.37317,-0.02168,-0.50335,-1.15635,-0.51283,6.58573,-5.72680,-2.58784,-5.27258,3.93458,-17.21380,-0.11855,-0.21870,0.96790,0.03576,9.97968,-7.97939,-22.64372
-0.17519,1.36240,-0.04533,-0.56871,-1.07676,-0.75745,6.63511,-5.64750,-3.02333,-3.85225,7.38200,-18.27987,-0.15726,-0.26402,0.94944,0.06430,17.24812,12.99417,-22.88734
-0.18598,1.35587,-0.07295,-0.61065,-0.95096,-1.00999,6.70647,-5.47189,-3.45408,-2.09000,10.75015,-18.06097,-0.19227,-0.30873,0.92657,0.09582,18.67257,21.59205,-19.12192
-0.19542,1.35414,-0.10351,-0.62402,-0.78017,-1.25337,6.75743,-5.35940,-3.76475,-0.04692,14.19957,-16.75792,-0.22756,-0.35138,0.89938,0.12594,17.46230,18.60486,-13.94572
-0.20233,1.35992,-0.13798,-0.59640,-0.52975,-1.50792,6.70236,-5.50913,-3.87361,3.14396,17.91918,-14.96244,-0.26909,-0.38967,0.86801,0.14935,1.72172,0.05370,-11.77260
-0.20674,1.36753,-0.17041,-0.53756,-0.30493,-1.67880,6.55819,-5.79767,-3.79991,6.35164,20.49904,-13.41625,-0.31405,-0.42404,0.83328,0.16496,-11.44822,-15.29564,-11.22936
-0.20517,1.38613,-0.20650,-0.40087,0.03752,-1.86778,6.18072,-6.28445,-3.58733,10.80072,23.25489,-9.93647,-0.36494,-0.45055,0.79662,0.17094,-28.09019,-24.00321,-9.86799
-0.19970,1.40812,-0.24008,-0.23263,0.36345,-1.98173,5.76939,-6.85309,-3.18613,12.94936,24.49456,-5.62334,-0.41698,-0.47472,0.75711,0.16600,-39.86481,-30.30785,-5.56253
-0.19192,1.43231,-0.27046,-0.06794,0.64925,-2.02369,4.99231,-7.63037,-3.01564,13.75223,23.93255,-0.92088,-0.47937,-0.48406,0.71525,0.15589,-58.71975,-41.52881,-25.89386
-0.17744,1.46585,-0.29729,0.16235,1.01402,-2.00103,3.30655,-9.03832,-3.19800,14.41067,22.81935,4.02998,-0.56790,-0.46029,0.66963,0.13124,-84.63406,-52.99630,-80.51828
-0.16153,1.50021,-0.32039,0.36897,1.32016,-1.92832,1.56102,-10.00228,-3.84685,16.74783,22.62816,6.22086,-0.65423,-0.41627,0.62127,0.11277,-87.24529,-45.07450,-125.34220
-0.14064,1.54081,-0.33970,0.60786,1.65746,-1.81465,-0.18526,-10.41302,-4.60908,18.30690,25.58381,9.54601,-0.72966,-0.35582,0.57600,0.09599,-63.42194,-3.96231,-120.58250
-0.11720,1.58439,-0.35697,0.83067,1.96192,-1.69487,-1.66338,-10.74628,-5.56070,18.53019,25.64973,10.21071,-0.80088,-0.28259,0.52164,0.08141,-46.28353,0.34271,-138.03170
-0.08362,1.64076,-0.36781,1.15889,2.39496,-1.50428,-3.87114,-11.18384,-7.29598,22.09464,29.03085,13.15330,-0.87243,-0.16082,0.45726,0.06261,-37.57003,-19.99357,-166.26590
-0.04916,1.69738,-0.37801,1.43227,2.74250,-1.34530,-5.25610,-11.12521,-8.94141,24.89030,29.99700,13.89400,-0.91959,-0.03819,0.38710,0.05521,-9.52280,-29.54371,-185.50400
-0.00446,1.76608,-0.38365,1.79466,3.18821,-1.15294,-6.02136,-10.34951,-11.30663,29.76504,33.11485,14.99562,-0.93928,0.10623,0.31681,0.07805,64.60193,-43.12332,-157.93930
0.05133,1.84186,-0.38555,2.24687,3.64698,-0.94573,-5.80427,-8.89537,-13.61135,38.04328,31.82472,17.32971,-0.92554,0.24707,0.25694,0.12774,130.87190,-53.62162,-139.75550
0.12325,1.92283,-0.38117,2.84461,4.08939,-0.68862,-4.38640,-6.75351,-15.53977,49.77609,29.19384,21.84346,-0.87846,0.37029,0.21945,0.20746,189.79840,-73.17258,-84.26620
0.20925,2.00274,-0.37069,3.51297,4.41699,-0.39848,-2.34971,-5.14694,-16.89269,62.57756,23.70859,27.98315,-0.80999,0.47166,0.17848,0.29934,207.37000,-127.06980,-45.07700
0.34707,2.08319,-0.33411,4.81745,4.68594,0.22169,1.27232,-3.77992,-18.57339,83.21348,4.02743,43.61021,-0.69495,0.55409,0.13698,0.43734,141.91550,-181.99010,-44.92435
0.49587,2.14033,-0.28460,6.04896,4.56040,0.92222,4.12448,-3.59460,-19.56140,92.92062,-23.16340,57.95757,-0.56510,0.61098,0.07442,0.54938,85.57832,-190.67910,-57.23288
0.65538,2.17316,-0.21915,7.15778,4.09992,1.70122,6.27039,-3.98076,-20.72497,93.06543,-55.23287,72.39951,-0.40575,0.65299,-0.00814,0.63946,32.16584,-188.14560,-97.56643
0.83581,2.15419,-0.11807,8.32812,2.98228,2.83049,8.28306,-3.67907,-22.22882,72.89310,-105.70560,87.31746,-0.20171,0.68322,-0.07895,0.69734,46.47781,-122.71390,-130.31130
1.00378,2.05304,0.01505,9.08386,0.86248,4.21293,10.81557,-2.31594,-22.58903,19.22248,-159.16840,82.60865,0.01525,0.68642,-0.09500,0.72081,99.82092,-144.38580,-56.45764
1.12432,1.90299,0.14290,8.97811,-1.56713,5.24089,13.40241,-1.07163,-21.19443,-34.93137,-187.76930,64.71651,0.20483,0.65765,-0.06632,0.72190,61.40612,-206.31870,27.08835
1.20445,1.72412,0.25774,8.30982,-3.88193,5.85259,16.51650,-1.28152,-20.19820,-79.60611,-204.40040,35.44543,0.41107,0.57317,-0.03603,0.70795,-16.39368,-250.06990,-83.07938
1.21119,1.46943,0.34794,6.71686,-6.79567,5.96796,21.69097,0.39053,-19.17027,-143.34700,-213.92550,-30.50195,0.65296,0.46485,0.06055,0.59488,74.77679,-198.86110,-196.92530
1.12824,1.19046,0.37581,4.14479,-9.45357,5.15131,33.04039,4.51862,-13.21166,-208.45000,-170.19830,-92.76758,0.85674,0.26723,0.35436,0.26272,471.17640,-459.08360,-498.04300
0.97428,0.93083,0.32421,1.07644,-11.28769,3.34590,45.44693,-0.44223,-5.49074,-228.24420,-82.25085,-163.93330,0.78994,-0.19283,0.56672,-0.13280,876.81680,275.24830,-756.92440
0.81209,0.75537,0.20849,-1.44323,-11.53254,1.02852,46.42074,-10.23517,-3.01755,-186.89390,38.33149,-178.28590,0.55916,-0.53350,0.56566,-0.28766,749.81730,576.66060,-156.66190
0.62204,0.82780,-0.00201,-3.91689,-7.75429,-2.28866,21.90452,-8.52836,-12.18948,-5.10061,134.33490,-14.45413,0.63576,-0.52426,0.52507,0.21275,-317.44510,937.95950,395.82410
0.51927,0.71871,-0.05788,-3.82218,-6.22525,-2.16741,15.15600,-4.07118,-10.23343,28.69070,95.52287,30.21657,0.64592,-0.60019,0.42283,0.20923,-251.95980,489.32020,506.22030
0.51143,0.74042,-0.04143,-3.59706,-5.33857,-1.74823,11.18945,-5.39770,-6.85806,21.19713,59.38618,44.69641,0.60792,-0.58185,0.50254,0.19835,-426.54080,13.91500,153.48940
0.43263,0.67648,-0.03259,-3.42157,-4.51120,-0.94415,3.64589,-5.74545,-6.48247,1.43025,35.93622,38.37012,0.51822,-0.52498,0.58552,0.33616,-389.56870,135.96190,-173.98830
0.38111,0.64385,-0.01946,-3.35343,-4.08680,-0.46810,0.02246,-1.60370,-5.68130,3.91033,32.64690,27.93884,0.54385,-0.44758,0.55276,0.44537,-194.17980,369.21150,26.43541
0.33464,0.61349,-0.00919,-3.30543,-3.71108,-0.18882,-1.44851,1.98840,-4.94861,5.53043,35.06007,20.02112,0.58326,-0.38295,0.49126,0.52136,-29.48212,368.38910,43.79406
0.29415,0.60143,0.00370,-3.22672,-3.13509,0.02848,-1.60022,4.97919,-4.51547,8.00487,37.58358,10.48541,0.62711,-0.33210,0.40699,0.57515,55.49861,215.48650,6.53687
0.25641,0.59200,0.01138,-3.12397,-2.63316,0.13091,-1.29549,5.45237,-4.62326,11.25194,33.64271,7.09093,0.63427,-0.32644,0.35318,0.60531,44.95706,56.99265,-27.13972
0.22383,0.58499,0.01884,-2.96530,-2.19926,0.20780,-1.55476,4.67448,-4.46680,14.07213,27.92658,5.30977,0.61859,-0.32696,0.33570,0.63067,-19.42837,-38.72110,9.36552
0.19693,0.57878,0.02708,-2.76389,-1.84739,0.27660,-2.22787,3.83958,-3.87733,14.06231,22.03044,4.48595,0.59712,-0.31498,0.33712,0.65620,-45.38130,-48.48587,59.43391
0.17170,0.57032,0.03507,-2.58129,-1.60193,0.32988,-2.80799,3.74290,-3.24895,14.65920,19.70032,3.35957,0.58259,-0.28806,0.32922,0.68500,-43.52651,-8.77949,66.64012
0.15233,0.56646,0.04254,-2.35449,-1.34177,0.36729,-3.11813,4.26698,-2.46188,15.68180,18.60133,1.13723,0.58070,-0.24449,0.31169,0.71124,-5.12836,46.72069,55.69072
0.13598,0.56547,0.04793,-2.13338,-1.09140,0.36767,-3.06930,4.90163,-1.98979,15.50193,18.14253,-1.57513,0.58367,-0.20288,0.28231,0.73380,17.89688,54.44221,25.67582
0.12056,0.56578,0.05058,-1.94399,-0.87486,0.33166,-2.86497,5.22927,-1.67551,16.04700,18.73877,-4.97720,0.58607,-0.16822,0.25385,0.75086,23.03940,36.62777,10.75440
0.11198,0.57414,0.04702,-1.69548,-0.58734,0.21528,-1.73680,5.96480,-1.76406,13.60808,18.01266,-9.95169,0.61068,-0.14081,0.19887,0.75345,56.09243,28.00614,-20.10051
0.10312,0.58016,0.04028,-1.50125,-0.38643,0.07763,-0.26739,6.61193,-2.38196,13.86278,11.37057,-9.76355,0.64143,-0.12786,0.12332,0.74633,84.53664,43.23398,-95.62301
0.09360,0.58308,0.03354,-1.35416,-0.27031,-0.02889,0.50934,6.34632,-2.59117,13.05683,6.77785,-7.74000,0.65846,-0.12305,0.07594,0.73859,59.83062,-6.73872,-68.86757
0.08863,0.58623,0.02560,-1.17101,-0.17375,-0.13092,0.77355,5.06495,-2.13974,12.09847,3.85832,-4.52587,0.66685,-0.12867,0.07218,0.73045,17.44585,-78.28915,8.87600
0.08606,0.58796,0.01946,-0.98676,-0.11284,-0.18748,0.48931,3.59527,-1.25020,11.10035,3.21675,-3.59316,0.66521,-0.12926,0.09486,0.72924,-17.18348,-95.07166,58.89259
0.08334,0.58772,0.01432,-0.83529,-0.09241,-0.21934,0.45010,2.63993,-0.57313,9.38576,0.78346,-1.03873,0.66848,-0.12608,0.11023,0.72463,5.48178,-79.09301,49.70542
0.08121,0.58666,0.01022,-0.70418,-0.08827,-0.23024,0.56458,2.11625,-0.23851,7.96807,0.79568,0.06100,0.67475,-0.12212,0.11451,0.71881,8.91259,-47.48758,30.42377
0.08045,0.58591,0.00667,-0.58105,-0.07974,-0.22904,0.74488,1.96139,-0.13536,8.07280,0.94720,0.82966,0.68331,-0.11565,0.10808,0.71277,14.97972,-16.69227,6.63850
0.07953,0.58574,0.00388,-0.48463,-0.06517,-0.21830,0.78216,1.89653,-0.12535,7.53708,1.25907,1.54931,0.68900,-0.10873,0.09900,0.70968,7.13079,-4.60309,-0.78521
0.08028,0.58639,0.00189,-0.38366,-0.04314,-0.19770,0.66093,1.71076,-0.11960,6.56445,0.89189,2.83629,0.69041,-0.10449,0.09381,0.70966,-5.73336,-9.80039,2.04917
0.08197,0.58773,-0.00003,-0.28867,-0.01581,-0.17806,0.42105,1.30930,-0.00865,5.81063,1.80702,1.01195,0.68795,-0.10331,0.09770,0.71169,-14.66247,-21.07961,5.61365
0.08258,0.58927,-0.00178,-0.22478,0.00922,-0.16417,0.14441,0.84347,0.08060,5.16402,2.15317,1.20087,0.68286,-0.10552,0.10550,0.71515,-19.33902,-35.68970,6.88389
0.08435,0.59182,-0.00329,-0.15875,0.04225,-0.14773,-0.22937,0.21952,0.16656,4.55775,2.30921,1.34378,0.67274,-0.11328,0.12060,0.72114,-24.59291,-46.71984,7.11083
0.08788,0.59506,-0.00469,-0.07994,0.07845,-0.13122,-0.61241,-0.30375,0.26023,4.84458,2.19373,1.25647,0.66018,-0.12061,0.13711,0.72857,-24.74163,-38.13346,8.10352
0.09210,0.59791,-0.00602,-0.00424,0.10280,-0.11999,-0.83202,-0.42713,0.25346,5.31664,1.46665,0.88927,0.65076,-0.12267,0.14402,0.73534,-17.50745,-13.66817,1.35621
0.09755,0.60033,-0.00757,0.07433,0.11451,-0.11268,-0.96782,-0.38382,0.25273,5.59027,0.29124,0.50666,0.64292,-0.12127,0.14747,0.74176,-11.40767,0.50196,-1.80780
0.10417,0.60191,-0.00936,0.15394,0.11169,-0.11040,-1.01873,-0.27026,0.31119,5.82011,-0.54918,0.01266,0.63708,-0.11674,0.15034,0.74692,-5.24949,7.45248,2.13193
0.11215,0.60279,-0.01147,0.23807,0.10022,-0.11557,-1.01369,-0.11752,0.44398,6.22444,-1.18008,-0.57313,0.63303,-0.10889,0.15380,0.75084,-2.08834,10.64441,6.53734
0.12204,0.60273,-0.01435,0.33435,0.07597,-0.12969,-0.93239,0.05119,0.70669,5.91568,-1.84774,-1.08311,0.63169,-0.09679,0.15979,0.75237,3.81006,11.96417,14.57852
0.13135,0.60239,-0.01750,0.40229,0.05349,-0.14619,-0.77947,0.16097,0.91017,5.54552,-1.65611,-1.61303,0.63240,-0.08585,0.16600,0.75176,9.03010,10.44853,17.61944
0.14233,0.60192,-0.02161,0.48053,0.03512,-0.17472,-0.50174,0.39828,1.04344,5.39007,-0.61890,-2.31875,0.63780,-0.07246,0.16772,0.74822,17.65787,15.35081,12.10014
0.15416,0.60210,-0.02673,0.55617,0.02933,-0.21080,-0.18569,0.77890,1.02350,5.14073,-0.12881,-2.48310,0.64613,-0.05745,0.16156,0.74371,20.83496,27.45999,-0.79281
0.16660,0.60270,-0.03213,0.62492,0.03071,-0.24360,0.07887,1.15552,0.98649,4.87040,0.26085,-2.08338,0.65492,-0.04108,0.15310,0.73888,18.37882,29.81916,-5.37987
0.18021,0.60414,-0.03775,0.69713,0.04450,-0.27453,0.23115,1.51469,1.02682,4.40964,1.21194,-1.74776,0.66232,-0.02147,0.14535,0.73467,9.88489,23.62999,1.41263
0.19373,0.60657,-0.04334,0.75431,0.06984,-0.29913,0.28035,1.82330,1.08283,3.79063,2.30628,-1.59160,0.66764,-0.00054,0.13803,0.73157,3.63218,21.52562,4.45147
0.20625,0.60906,-0.04845,0.78281,0.09055,-0.31153,0.27058,2.00862,1.08841,3.28634,2.76155,-1.29737,0.67121,0.01856,0.13088,0.72939,1.45262,22.99800,3.02958
0.22064,0.61444,-0.05420,0.83094,0.14509,-0.32999,0.16986,2.41542,0.99623,2.16534,3.17778,-0.74680,0.67289,0.04276,0.11509,0.72948,-7.89118,22.85621,-3.72300
0.23406,0.62017,-0.05949,0.85679,0.19419,-0.33925,0.03621,2.64658,0.94450,1.72904,3.83543,-0.65876,0.67252,0.06495,0.10213,0.73011,-11.09159,18.79414,-3.73372
0.24725,0.62818,-0.06464,0.87501,0.26770,-0.34482,-0.22392,2.72267,1.00317,0.74907,5.03085,-0.07710,0.66768,0.08721,0.09416,0.73330,-13.70540,5.50471,6.07235
0.25967,0.63609,-0.06936,0.87788,0.32847,-0.34337,-0.48409,2.70747,1.01454,-0.18546,5.02741,0.39441,0.66089,0.10693,0.08699,0.73772,-20.17356,-2.03138,7.43362
0.27132,0.64568,-0.07333,0.86948,0.40129,-0.33137,-0.83619,2.63638,0.98742,-0.71434,4.31758,1.01015,0.64998,0.12480,0.07986,0.74537,-21.86402,-4.80792,2.07535
0.28259,0.65534,-0.07689,0.85752,0.46155,-0.31597,-1.14344,2.51369,1.02589,-0.89709,4.30151,1.01960,0.63788,0.14222,0.07547,0.75311,-21.36894,-9.92403,5.84492
0.29360,0.66565,-0.08040,0.84333,0.51848,-0.30289,-1.41994,2.41758,1.08802,-1.16561,3.91936,0.86272,0.62444,0.16046,0.07158,0.76106,-18.75025,-9.21128,9.06430
0.30410,0.67672,-0.08387,0.82476,0.57596,-0.29177,-1.65259,2.37252,1.11671,-1.28690,3.62250,0.50886,0.61050,0.17885,0.06626,0.76871,-14.13547,-4.60460,5.31506
0.31443,0.68807,-0.08777,0.80778,0.62680,-0.28962,-1.81305,2.39820,1.10908,-1.26995,3.85312,-0.21739,0.59712,0.19786,0.05879,0.77514,-12.33499,-0.07766,2.03648
0.32452,0.70045,-0.09233,0.78990,0.68183,-0.29768,-1.95436,2.45017,1.10585,-1.38275,4.10244,-0.93515,0.58296,0.21768,0.05050,0.78116,-10.34735,2.68934,1.20349
0.33421,0.71367,-0.09760,0.77004,0.73813,-0.31479,-2.08571,2.51254,1.07722,-1.52003,4.00439,-1.47800,0.56810,0.23735,0.04095,0.78692,-9.85670,3.36790,-0.42949
0.34350,0.72736,-0.10348,0.74872,0.79010,-0.33770,-2.20256,2.55495,1.07069,-1.49853,3.38421,-1.85558,0.55241,0.25699,0.03173,0.79233,-9.33074,3.41181,-1.00514
0.35244,0.74126,-0.10995,0.72594,0.83337,-0.36429,-2.25875,2.55613,1.13203,-1.61862,2.81426,-2.13923,0.53675,0.27696,0.02499,0.79660,-5.05992,0.86072,3.90456
0.36116,0.75499,-0.11671,0.70513,0.86461,-0.38938,-2.26655,2.53875,1.22403,-1.82838,2.40068,-2.20006,0.52138,0.29704,0.02004,0.79971,-0.09894,-0.38178,7.32642
0.36757,0.77008,-0.12595,0.64957,0.91367,-0.45192,-2.19912,2.60834,1.33466,-2.22533,1.29128,-2.32364,0.50716,0.31926,0.01515,0.80039,2.49897,3.89901,1.58481
0.38337,0.79666,-0.14068,0.61600,0.93001,-0.48311,-2.14810,2.65300,1.35116,-2.61490,1.09641,-2.16183,0.47789,0.35927,0.00187,0.80159,3.98212,4.71991,0.09849
0.38906,0.81303,-0.14867,0.57683,0.94630,-0.51097,-2.13007,2.68390,1.33813,-2.98246,0.80058,-2.03431,0.46310,0.37902,-0.00555,0.80115,1.33850,2.76936,-0.86972
0.39360,0.83291,-0.15608,0.53302,0.96448,-0.53333,-2.08602,2.65166,1.36499,-3.10866,0.68583,-1.70368,0.44848,0.39774,-0.01079,0.80035,2.38128,-0.22168,-1.06732
0.39820,0.85111,-0.16370,0.49934,0.97788,-0.54616,-2.05014,2.56875,1.46571,-3.32844,0.66182,-1.48008,0.43272,0.41598,-0.01259,0.79972,5.18321,-4.48292,6.39918
0.40057,0.86757,-0.17253,0.43847,0.98935,-0.56867,-1.93217,2.41618,1.66134,-3.39095,0.23992,-1.29725,0.41785,0.43350,-0.00851,0.79838,8.97702,-6.97728,11.12949
0.40523,0.88146,-0.18101,0.41839,0.99042,-0.57637,-1.88432,2.37860,1.71512,-3.44395,0.16466,-1.29409,0.40253,0.45144,-0.00930,0.79629,10.40368,-5.04863,10.04838
0.40594,0.89523,-0.19090,0.34928,0.98989,-0.60259,-1.75514,2.33469,1.75106,-3.68303,-0.09227,-1.18297,0.38992,0.46868,-0.00857,0.79261,7.75935,-1.15089,1.90294
0.40689,0.90857,-0.20058,0.29306,0.98389,-0.62147,-1.72341,2.32715,1.63700,-3.54276,-0.52865,-1.12528,0.37691,0.48419,-0.01357,0.78950,1.07700,-0.66270,-7.40646
0.40775,0.92180,-0.21018,0.24396,0.97645,-0.63469,-1.61499,2.30798,1.61222,-3.44166,-0.62257,-0.92822,0.36500,0.50027,-0.01545,0.78503,4.38257,-0.95869,-5.61621
0.40738,0.93501,-0.21969,0.18601,0.96967,-0.64378,-1.41568,2.25444,1.71165,-3.74819,-0.41266,-0.33307,0.35422,0.51690,-0.01179,0.77923,13.76215,-0.91743,4.27782
0.40709,0.94816,-0.22884,0.14186,0.96451,-0.64582,-1.31395,2.20871,1.76957,-3.81625,-0.41722,0.16510,0.34210,0.53275,-0.00939,0.77399,12.22357,-1.48042,4.43555
0.40534,0.96101,-0.23770,0.08438,0.95572,-0.64245,-1.28472,2.16311,1.74921,-3.66633,-0.53908,0.50558,0.32952,0.54723,-0.00940,0.76933,3.42784,-2.82048,-0.36246
0.40331,0.97373,-0.24638,0.03490,0.94662,-0.63763,-1.36394,2.13457,1.66764,-3.67212,-0.64410,0.48561,0.31513,0.56082,-0.01291,0.76551,-3.65921,-3.48906,-4.05296
0.40078,0.98615,-0.25507,-0.01383,0.93429,-0.63333,-1.52043,2.10412,1.53374,-3.60087,-1.08201,0.36379,0.29924,0.57318,-0.01980,0.76258,-11.98378,-3.66023,-6.55016
0.39760,0.99803,-0.26360,-0.06170,0.91680,-0.62771,-1.67433,2.03508,1.39097,-3.45685,-1.45310,0.39230,0.28319,0.58373,-0.02777,0.76046,-12.91781,-5.71346,-9.11178
0.39411,1.00955,-0.27199,-0.10193,0.89868,-0.62222,-1.73861,1.93970,1.33066,-3.21273,-1.80512,0.28447,0.26774,0.59359,-0.03292,0.75821,-8.32266,-9.49633,-5.04684
0.38978,1.02021,-0.28048,-0.14899,0.86798,-0.61622,-1.61958,1.83014,1.36562,-2.60800,-2.36503,0.26126,0.25512,0.60354,-0.03251,0.75472,4.93724,-7.04151,1.18217
0.38592,1.03056,-0.28884,-0.17804,0.84049,-0.61055,-1.39245,1.78414,1.46054,-2.25990,-2.54287,0.51254,0.24470,0.61523,-0.02814,0.74888,17.50014,-2.56721,4.28719
0.38156,1.03986,-0.29687,-0.20732,0.80448,-0.60200,-1.11446,1.75306,1.55800,-2.07415,-2.71672,0.78137,0.23642,0.62719,-0.02109,0.74182,22.17004,0.40901,6.33436
0.37725,1.04857,-0.30483,-0.23078,0.76440,-0.59271,-0.95185,1.74650,1.55165,-1.63601,-2.91947,0.99604,0.22806,0.63859,-0.01753,0.73477,14.67335,0.64621,-0.24018
0.37300,1.05651,-0.31250,-0.24823,0.72187,-0.58132,-0.93189,1.73825,1.45018,-1.17522,-3.05939,1.08629,0.21877,0.64873,-0.01874,0.72866,3.08375,-0.65018,-6.68085
0.36866,1.06343,-0.31962,-0.26277,0.67388,-0.56535,-0.98503,1.72699,1.32415,-0.83795,-2.99813,1.12930,0.20860,0.65812,-0.02250,0.72308,-3.84487,-1.74678,-7.82963
