posX, posY, posZ, velX, velY, velZ, angVelX, angVelY, angVelZ, accX, accY, accZ, rotX, rotY, rotZ, rotW, angAccX, angAccY, angAccZ
0.26622,1.03860,-0.30819,0.00250,0.17722,-0.04897,-0.03315,-0.04971,0.35885,-0.00581,0.15562,1.38340,0.14211,0.77547,-0.23397,0.56896,6.77535,-4.12233,-1.46683
0.26638,1.04122,-0.30760,0.00272,0.18073,-0.02946,0.11671,-0.12749,0.33535,-0.01717,0.29507,1.34350,0.14429,0.77516,-0.22877,0.57094,10.14042,-5.49429,-1.94830
0.26655,1.04409,-0.30694,0.00224,0.18798,-0.01256,0.35308,-0.20158,0.30640,-0.16609,0.63264,0.97095,0.14907,0.77543,-0.22062,0.57255,14.82194,-5.32725,-1.72292
0.26647,1.04737,-0.30648,-0.00128,0.19929,-0.00242,0.62348,-0.22618,0.29561,-0.41777,1.16025,0.67382,0.15495,0.77701,-0.21005,0.57282,21.74756,-2.56188,-1.37217
0.26597,1.05135,-0.30611,-0.00973,0.21821,0.00412,0.92501,-0.23284,0.31359,-0.75203,1.61111,0.25712,0.16177,0.77950,-0.19650,0.57236,22.39688,-0.53314,1.26862
0.26497,1.05608,-0.30636,-0.02514,0.24607,0.00101,1.16172,-0.19750,0.36685,-1.22888,2.11195,-0.43869,0.16712,0.78274,-0.18254,0.57102,17.45682,1.41205,3.22128
0.26364,1.06098,-0.30715,-0.04133,0.26961,-0.00952,1.15290,-0.15878,0.42084,-1.47305,2.28390,-1.03103,0.16811,0.78483,-0.17383,0.57058,4.69172,3.02636,4.75048
0.26150,1.06707,-0.30922,-0.06530,0.30489,-0.03651,0.97809,-0.08017,0.48732,-1.66662,2.40069,-2.15024,0.16476,0.78689,-0.16952,0.57001,-10.61490,3.96572,4.90518
0.25900,1.07364,-0.31237,-0.09085,0.34116,-0.07347,1.01857,0.03718,0.50617,-2.00066,2.38688,-3.73550,0.16535,0.79082,-0.16152,0.56672,-7.41938,5.70121,3.31707
0.25564,1.08118,-0.31703,-0.12342,0.38358,-0.12501,1.73351,0.26743,0.31459,-2.97731,2.52448,-4.70885,0.18355,0.79997,-0.13962,0.55395,35.32352,17.52559,-1.40536
0.25104,1.09020,-0.32321,-0.16711,0.43919,-0.18849,2.96807,0.67765,0.24062,-2.48096,4.52813,-5.20569,0.21127,0.81543,-0.09891,0.52977,87.43390,33.43774,-10.93522
0.24653,1.10157,-0.33122,-0.20178,0.51943,-0.26566,3.37014,1.21599,0.31298,-2.58223,6.87573,-2.27468,0.22330,0.83177,-0.07203,0.50310,51.65642,49.57108,8.86191
0.24175,1.11311,-0.33809,-0.23265,0.58462,-0.31139,2.42644,1.05224,0.56945,-3.29253,6.50320,-2.60751,0.20969,0.83461,-0.07345,0.50404,-47.36034,-5.87976,18.51739
0.23540,1.12662,-0.34616,-0.28072,0.66590,-0.36442,1.25094,0.74662,0.97940,-3.54682,5.36881,-5.01290,0.18260,0.83392,-0.08265,0.51420,-95.17407,-34.31215,32.56675
0.22782,1.14217,-0.35614,-0.33864,0.76279,-0.43492,1.27256,0.72075,1.29663,-3.81113,5.10173,-5.90951,0.17196,0.83956,-0.06691,0.51097,-15.11187,-10.19679,22.37244
0.22000,1.15735,-0.36602,-0.38603,0.83166,-0.49011,2.06078,0.92393,1.41963,-4.10051,5.17981,-5.09407,0.17816,0.84999,-0.03266,0.49468,50.56702,15.91405,11.84586
0.21141,1.17317,-0.37654,-0.43435,0.89445,-0.54267,2.92811,1.17017,1.49632,-4.23411,5.11464,-4.00210,0.18897,0.86063,0.00851,0.47280,73.73179,27.82354,5.87137
0.20098,1.19045,-0.38832,-0.50032,0.96629,-0.60251,3.76026,1.38848,1.59358,-4.27477,4.30233,-2.92090,0.20062,0.86950,0.05440,0.44807,55.23872,20.96792,5.65344
0.19030,1.20728,-0.39963,-0.55586,1.01694,-0.64419,4.07908,1.43765,1.65931,-4.04876,3.49271,-2.21262,0.20646,0.87463,0.09056,0.42919,32.07470,9.30360,4.04094
0.17884,1.22376,-0.41137,-0.61742,1.06043,-0.68568,4.08811,1.39977,1.70012,-4.06638,2.41282,-2.69821,0.20831,0.87786,0.11947,0.41436,0.08290,-4.40709,2.48483
0.16699,1.24003,-0.42316,-0.67201,1.09095,-0.71852,4.23304,1.50478,1.64772,-4.02423,1.91638,-2.47746,0.21442,0.88109,0.14986,0.39402,6.69205,5.44625,-0.89682
0.15471,1.25641,-0.43483,-0.71779,1.11289,-0.74322,4.37712,1.67179,1.55140,-3.83459,1.78538,-1.87835,0.22251,0.88378,0.17947,0.37043,10.28113,15.48045,-4.25946
0.14141,1.27260,-0.44648,-0.77549,1.13961,-0.76306,4.57497,1.91555,1.41019,-3.75606,1.76829,-0.72854,0.23373,0.88558,0.20966,0.34229,9.92767,18.71355,-4.93532
0.12814,1.28890,-0.45746,-0.81919,1.15817,-0.76722,4.65749,2.05294,1.33137,-3.82206,1.54904,0.19756,0.24249,0.88576,0.23826,0.31600,8.71003,16.48022,-3.62261
0.11361,1.30536,-0.46777,-0.87121,1.17564,-0.76156,4.63930,2.14123,1.24954,-3.81582,1.21739,0.85618,0.25041,0.88491,0.26386,0.29088,-2.05769,8.49770,-3.35776
0.09894,1.32093,-0.47743,-0.91915,1.18690,-0.74630,4.47725,2.15600,1.17794,-3.33188,0.70677,1.78560,0.25636,0.88362,0.28539,0.26842,-6.01471,5.73080,-2.95411
0.08430,1.33634,-0.48705,-0.95546,1.18995,-0.73154,4.05451,2.02187,1.13022,-3.21322,0.04649,1.46995,0.25756,0.88319,0.29904,0.25341,-27.15894,-9.55764,-2.20317
0.06841,1.35193,-0.49599,-0.99914,1.18897,-0.71197,3.38747,1.82325,1.05107,-2.61923,-0.11712,1.27492,0.25580,0.88484,0.30283,0.24477,-40.77445,-13.86946,-2.80621
0.05272,1.36762,-0.50484,-1.02823,1.18471,-0.69623,2.94966,1.71779,0.99391,-2.48679,-0.44036,1.07899,0.25530,0.88591,0.30913,0.23331,-40.33199,-14.31236,-1.83594
0.03672,1.38274,-0.51303,-1.05691,1.17498,-0.67358,2.66120,1.76580,0.87998,-1.93408,-0.66460,1.47594,0.25864,0.88683,0.31507,0.21764,-27.17892,-0.90058,-3.54170
0.02063,1.39787,-0.51978,-1.07899,1.16279,-0.63606,2.61530,1.94601,0.70939,-1.13518,-0.69957,2.58352,0.26747,0.88573,0.32465,0.19631,-6.85600,12.19090,-6.80478
0.00472,1.41300,-0.52532,-1.09381,1.15168,-0.58674,2.66553,2.19210,0.54329,-0.93251,-0.66742,3.50422,0.27869,0.88337,0.33570,0.17115,1.25019,17.10607,-7.87597
-0.01119,1.42822,-0.53050,-1.10531,1.14309,-0.54269,2.64712,2.32889,0.45716,-0.91164,-0.71488,4.12991,0.28737,0.88089,0.34581,0.14788,0.60713,15.83983,-6.29226
-0.02753,1.44325,-0.53409,-1.12017,1.13295,-0.48701,2.41693,2.31247,0.41120,-1.01612,-0.74765,4.51381,0.29251,0.88005,0.35068,0.13028,-12.36067,3.77312,-1.66469
-0.04442,1.45776,-0.53519,-1.14125,1.11865,-0.40486,2.05745,2.14851,0.41415,-1.21044,-0.78047,4.72378,0.29373,0.88075,0.35202,0.11865,-21.05385,-10.51229,2.11887
-0.06111,1.47229,-0.53621,-1.15483,1.10543,-0.33597,1.91087,2.07569,0.40961,-0.86293,-0.89386,4.81515,0.29665,0.87966,0.35693,0.10391,-12.27534,-7.08781,0.67650
-0.07776,1.48674,-0.53681,-1.16292,1.09264,-0.27577,1.90367,2.11461,0.40125,-0.70287,-1.02204,4.85512,0.30123,0.87726,0.36388,0.08522,-5.69906,-1.13118,-0.18872
-0.09430,1.50087,-0.53627,-1.16814,1.07870,-0.21309,2.04713,2.28242,0.35791,-0.53407,-0.97829,5.05388,0.30899,0.87254,0.37343,0.06120,5.55866,9.23891,-1.56215
-0.11086,1.51431,-0.53322,-1.17320,1.05762,-0.12683,2.32976,2.59069,0.33197,-0.08022,-1.47696,5.46475,0.31885,0.86516,0.38592,0.02981,18.83616,21.33027,-1.03731
-0.12736,1.52779,-0.53055,-1.17438,1.03916,-0.06449,2.36492,2.68476,0.35445,0.24275,-1.86436,5.38697,0.32471,0.85968,0.39433,0.00439,11.56719,14.67410,0.93355
-0.14338,1.54094,-0.52640,-1.16914,1.02048,0.00524,2.23771,2.64420,0.42375,0.72221,-1.25264,5.02800,0.32702,0.85639,0.39923,-0.01631,-7.26074,-1.66350,4.26557
-0.15870,1.55349,-0.52175,-1.15570,0.99734,0.06872,1.78988,2.24038,0.55844,2.89228,-3.51923,4.95521,0.32191,0.85859,0.39832,-0.02323,-13.95677,-11.74347,8.45236
-0.17248,1.56464,-0.51635,-1.12062,0.95432,0.12641,0.75573,1.36424,0.57419,1.61740,-2.38384,2.79235,0.31157,0.86956,0.38311,-0.00412,-70.65889,-69.63420,5.86058
-0.18602,1.57548,-0.51076,-1.08972,0.91634,0.17713,0.51443,1.20575,0.51580,1.42322,-1.89696,2.84996,0.31097,0.87155,0.37901,-0.00701,-31.66090,-25.78790,-0.46743
-0.19953,1.58608,-0.50431,-1.06535,0.88391,0.23294,0.82350,1.62824,0.45248,1.13947,-1.89755,4.02399,0.31836,0.86628,0.38367,-0.03178,11.98136,24.77980,-4.98539
-0.21350,1.59639,-0.49705,-1.05305,0.85519,0.28979,1.24669,2.02340,0.43159,1.11616,-2.58233,5.17112,0.32550,0.85787,0.39291,-0.06101,33.90749,37.33344,-5.07396
-0.22712,1.60571,-0.48788,-1.03715,0.81765,0.36089,1.60421,2.23281,0.43386,1.92735,-2.97841,5.37007,0.33040,0.84857,0.40381,-0.08776,29.27137,22.57825,-2.50247
-0.23900,1.61414,-0.47728,-1.00026,0.77500,0.43913,1.79284,2.21391,0.39465,3.07219,-2.80300,4.87001,0.33383,0.84024,0.41368,-0.10694,12.98908,1.32743,-4.00907
-0.25035,1.62287,-0.46706,-0.96241,0.74324,0.49393,1.80150,2.07197,0.34488,3.54445,-2.98361,4.55351,0.33620,0.83393,0.42075,-0.12045,4.85077,-6.17916,-5.52009
-0.26058,1.63054,-0.45586,-0.91759,0.70361,0.55066,1.66968,1.74272,0.28955,3.18454,-3.00133,3.65634,0.33637,0.83026,0.42636,-0.12549,-7.26743,-21.11991,-6.42348
-0.27003,1.63725,-0.44474,-0.87029,0.65896,0.59784,1.48902,1.44491,0.24538,2.73167,-2.64469,2.26745,0.33613,0.82791,0.43016,-0.12865,-11.84191,-21.54603,-3.14560
-0.27890,1.64364,-0.43434,-0.82314,0.61869,0.62840,1.44094,1.39586,0.16348,2.78722,-2.34716,1.45410,0.33946,0.82276,0.43452,-0.13792,-5.33827,-5.26444,-4.34340
-0.28764,1.64999,-0.42458,-0.78236,0.58485,0.64275,1.44064,1.55172,0.09636,2.82439,-2.31204,0.58387,0.34533,0.81588,0.43775,-0.15316,1.56529,7.10346,-6.43383
-0.29562,1.65626,-0.41520,-0.73970,0.55614,0.64840,1.41365,1.72781,0.02779,3.20358,-2.00745,0.24709,0.35248,0.80869,0.43939,-0.16944,-1.09725,16.08269,-3.42732
-0.30345,1.66262,-0.40609,-0.70452,0.53505,0.64902,1.31813,1.81532,-0.01240,2.84460,-1.71136,-0.00384,0.35876,0.80285,0.43939,-0.18346,-6.84568,7.94283,-2.22710
-0.31056,1.66866,-0.39687,-0.66599,0.51332,0.65048,1.27226,1.96332,-0.04362,2.77426,-1.60135,0.16039,0.36598,0.79580,0.43903,-0.20001,-6.22548,9.80922,-1.24219
-0.31694,1.67418,-0.38762,-0.62418,0.48825,0.65337,1.19405,2.04071,-0.09221,2.79968,-1.66938,0.29424,0.37327,0.78914,0.43809,-0.21449,-5.44850,5.76389,-0.33897
-0.32280,1.67938,-0.37795,-0.58334,0.46284,0.66213,1.19347,2.17741,-0.14377,2.55079,-1.85521,0.71735,0.38157,0.78045,0.43788,-0.23146,1.00731,10.50216,-3.71698
-0.32881,1.68443,-0.36804,-0.55190,0.44003,0.67165,1.10143,2.15758,-0.15171,2.30972,-1.59115,0.77944,0.38759,0.77426,0.43658,-0.24431,-5.73831,1.03246,-0.19284
-0.33443,1.68956,-0.35774,-0.52230,0.42116,0.68419,1.02048,2.11822,-0.13422,1.98988,-1.28236,0.99835,0.39260,0.76857,0.43510,-0.25663,-6.36053,-2.99510,1.97675
-0.33989,1.69458,-0.34696,-0.49674,0.40515,0.70144,0.99096,2.06797,-0.08523,1.69288,-1.10027,1.40211,0.39606,0.76278,0.43446,-0.26933,-2.99964,-3.27602,3.20367
-0.34533,1.69926,-0.33565,-0.47530,0.38881,0.72294,1.02088,2.00183,-0.01261,1.52077,-1.22734,1.55156,0.39779,0.75665,0.43526,-0.28249,1.62971,-5.03688,4.46111
-0.35029,1.70372,-0.32403,-0.45279,0.37222,0.74386,1.04444,1.89865,0.04855,1.81537,-1.33615,1.35694,0.39865,0.75086,0.43661,-0.29439,3.81844,-4.70528,3.64869
-0.35487,1.70795,-0.31248,-0.42953,0.35591,0.75986,0.97221,1.67940,0.13114,1.75711,-1.36069,0.92585,0.39737,0.74818,0.43718,-0.30199,-2.46284,-14.73910,4.44892
-0.35899,1.71172,-0.30099,-0.40245,0.33685,0.77220,0.85722,1.39365,0.23111,1.63639,-1.18681,0.61957,0.39419,0.74786,0.43742,-0.30656,-6.39662,-18.84886,5.78733
-0.36305,1.71533,-0.28974,-0.37943,0.31967,0.77968,0.79891,1.21891,0.29468,1.49681,-1.14870,0.49898,0.39183,0.74634,0.43786,-0.31261,-5.42707,-15.28212,5.03998
-0.36693,1.71880,-0.27840,-0.35885,0.30444,0.78728,0.83728,1.18334,0.32105,1.54953,-1.26934,0.72799,0.39067,0.74220,0.43918,-0.32192,0.23653,-6.90837,3.10577
-0.37014,1.72150,-0.26656,-0.33272,0.28030,0.79987,0.99486,1.19973,0.32394,1.58588,-1.58765,0.72666,0.38930,0.73525,0.44323,-0.33377,9.93513,0.94789,-0.46419
-0.37333,1.72424,-0.25499,-0.31227,0.26122,0.80625,1.11257,1.23452,0.31572,1.78664,-1.73285,0.34532,0.38848,0.72788,0.44684,-0.34585,10.41340,2.89428,-1.41784
-0.37577,1.72649,-0.24372,-0.28540,0.23935,0.80716,1.19417,1.24496,0.28637,2.10586,-1.59736,-0.21119,0.38804,0.72041,0.45056,-0.35696,6.66515,2.29780,-2.60122
-0.37748,1.72831,-0.23297,-0.25190,0.21622,0.79902,1.16813,1.18633,0.27065,2.23298,-1.58953,-0.73797,0.38736,0.71511,0.45282,-0.36541,-0.53142,-2.53105,-1.19845
-0.37895,1.72995,-0.22266,-0.22137,0.19566,0.78712,1.10725,1.10216,0.25668,2.22701,-1.44125,-0.92877,0.38660,0.71087,0.45455,-0.37228,-4.12419,-5.60396,-1.26630
-0.38061,1.73169,-0.21234,-0.20076,0.18138,0.77820,1.05105,1.00736,0.27436,2.06100,-1.52386,-0.86911,0.38475,0.70748,0.45610,-0.37870,-4.86779,-7.48844,-0.12472
-0.38134,1.73248,-0.20238,-0.17096,0.15631,0.76535,0.97389,0.83050,0.29409,1.77272,-1.50564,-0.76516,0.38155,0.70602,0.45813,-0.38220,-5.77523,-12.17245,1.66395
-0.38183,1.73310,-0.19241,-0.14346,0.13372,0.75530,1.03750,0.86594,0.24517,1.68157,-1.40050,-0.58981,0.38104,0.69945,0.46153,-0.39061,0.59101,-3.02845,-1.96304
-0.38191,1.73335,-0.18248,-0.11550,0.11016,0.74688,1.23192,1.08173,0.15858,2.00338,-1.65363,-0.60812,0.38266,0.68725,0.46636,-0.40469,11.89440,14.42269,-5.31081
-0.38145,1.73320,-0.17285,-0.08530,0.08577,0.73561,1.40941,1.28159,0.05964,2.43513,-1.91724,-1.01691,0.38500,0.67353,0.47161,-0.41919,13.99675,17.29183,-6.58584
-0.38039,1.73272,-0.16370,-0.05266,0.06136,0.72008,1.46167,1.35335,-0.02669,2.62019,-1.89077,-1.27438,0.38728,0.66216,0.47591,-0.43020,5.87172,9.55012,-6.32540
-0.37894,1.73198,-0.15489,-0.02104,0.03832,0.70205,1.40765,1.25219,-0.08275,2.29595,-1.74530,-1.46597,0.38803,0.65469,0.47998,-0.43638,-2.57088,-4.48442,-4.96939
-0.37703,1.73097,-0.14670,0.01134,0.01563,0.67863,1.24943,1.01163,-0.09677,2.09792,-1.28056,-1.49281,0.38719,0.65181,0.48313,-0.43796,-9.66940,-12.63237,-1.51994
-0.37521,1.73013,-0.13854,0.03608,-0.00011,0.65980,1.10253,0.74185,-0.09656,1.55484,-1.00168,-1.24624,0.38513,0.65058,0.48667,-0.43769,-11.65999,-19.83577,-0.69223
-0.37347,1.72931,-0.13035,0.05424,-0.01210,0.64487,1.05138,0.61111,-0.10191,1.23873,-0.77023,-1.14874,0.38347,0.64705,0.49066,-0.43992,-7.17679,-16.23983,-1.06686
-0.37105,1.72822,-0.12272,0.07866,-0.02562,0.62513,1.11555,0.69077,-0.15563,1.28915,-0.73569,-1.15161,0.38429,0.63843,0.49516,-0.44671,2.55173,2.96382,-3.14860
-0.36872,1.72718,-0.11503,0.09680,-0.03558,0.61055,1.21865,0.86681,-0.21098,1.56196,-0.76603,-1.18545,0.38639,0.62686,0.49937,-0.45648,7.54639,13.19233,-3.12129
-0.36592,1.72595,-0.10756,0.11770,-0.04619,0.59536,1.29648,0.98424,-0.27321,1.65264,-0.91836,-1.09893,0.38859,0.61511,0.50399,-0.46543,7.45971,12.91970,-4.36068
-0.36313,1.72453,-0.10023,0.13428,-0.05742,0.58159,1.28060,0.88815,-0.30618,1.25455,-0.90005,-1.10149,0.38843,0.60788,0.50922,-0.46936,0.23006,-3.28934,-3.39086
-0.36017,1.72293,-0.09330,0.15026,-0.06923,0.56476,1.19562,0.66609,-0.32411,0.96685,-0.71336,-1.09172,0.38671,0.60437,0.51469,-0.46935,-5.48522,-13.55099,-1.61997
-0.35729,1.72139,-0.08634,0.16171,-0.07754,0.55132,1.14975,0.54214,-0.34048,0.84093,-0.65249,-1.12669,0.38553,0.59956,0.51995,-0.47068,-5.20040,-12.30193,-2.61295
-0.35401,1.71959,-0.07998,0.17669,-0.08809,0.53208,1.13059,0.46071,-0.37961,0.91018,-0.62192,-1.22618,0.38486,0.59385,0.52569,-0.47209,-2.14721,-6.01596,-2.60643
-0.35077,1.71782,-0.07359,0.18827,-0.09600,0.51740,1.12963,0.44289,-0.42746,0.86759,-0.64614,-1.12269,0.38509,0.58686,0.53131,-0.47436,-0.68659,-2.27758,-4.13722
-0.34735,1.71577,-0.06733,0.19952,-0.10634,0.50376,1.15451,0.41117,-0.46980,0.76902,-0.86101,-0.84622,0.38466,0.57948,0.53774,-0.47652,1.87641,-0.22472,-3.08178
-0.34402,1.71339,-0.06103,0.20757,-0.11937,0.49366,1.18018,0.34322,-0.51523,0.49653,-0.92522,-0.65525,0.38357,0.57254,0.54498,-0.47757,0.89316,-4.71909,-3.71554
-0.34080,1.71097,-0.05470,0.21211,-0.12998,0.48581,1.21359,0.28719,-0.53777,0.29065,-0.85381,-0.70380,0.38185,0.56548,0.55230,-0.47895,2.61873,-4.80867,-3.14236
-0.33761,1.70836,-0.04881,0.21540,-0.14121,0.47340,1.21485,0.18597,-0.54735,0.15032,-0.61684,-0.86893,0.37929,0.55993,0.55967,-0.47895,0.39898,-6.24511,-1.25876
-0.33450,1.70593,-0.04319,0.21709,-0.14788,0.45965,1.20384,0.11907,-0.55148,0.02607,-0.32746,-1.03607,0.37709,0.55439,0.56646,-0.47915,-0.66549,-5.38895,-0.30481
-0.33154,1.70367,-0.03781,0.21610,-0.15065,0.44491,1.20463,0.06463,-0.52756,-0.24537,-0.14280,-1.05156,0.37414,0.54898,0.57299,-0.47992,-0.46628,-4.43479,-0.05518
-0.32882,1.70146,-0.03283,0.21188,-0.15227,0.42726,1.20725,0.01914,-0.47881,-0.31038,-0.11262,-1.16835,0.37052,0.54390,0.57903,-0.48126,0.43820,-2.66392,2.96386
-0.32621,1.69925,-0.02797,0.20698,-0.15369,0.41145,1.16756,-0.06641,-0.43185,-0.31086,-0.16863,-1.09961,0.36651,0.54051,0.58473,-0.48126,-2.50205,-5.30803,3.09098
-0.32367,1.69689,-0.02320,0.20183,-0.15686,0.39720,1.14275,-0.12884,-0.39037,-0.43026,-0.20138,-0.92680,0.36235,0.53693,0.59041,-0.48148,-2.84229,-6.26951,2.79032
-0.32117,1.69444,-0.01861,0.19723,-0.16075,0.38325,1.16753,-0.15077,-0.35519,-0.32968,-0.28764,-1.06333,0.35793,0.53198,0.59647,-0.48281,1.47198,-2.02208,2.33791
-0.31871,1.69192,-0.01430,0.19315,-0.16500,0.36839,1.17210,-0.19432,-0.33050,-0.17146,-0.35026,-1.12161,0.35331,0.52766,0.60254,-0.48342,0.60855,-1.66825,1.94618
-0.31625,1.68937,-0.01017,0.18969,-0.16861,0.35356,1.11981,-0.31211,-0.32065,-0.19378,-0.29806,-1.12983,0.34810,0.52563,0.60878,-0.48158,-2.60220,-7.45391,0.38420
-0.31379,1.68678,-0.00626,0.18711,-0.17224,0.33883,1.05385,-0.45438,-0.32714,-0.16106,-0.23710,-0.97615,0.34255,0.52473,0.61534,-0.47819,-5.45981,-10.27459,-1.21864
-0.31130,1.68411,-0.00248,0.18538,-0.17612,0.32507,1.02772,-0.54724,-0.33877,-0.16365,-0.18481,-0.92967,0.33703,0.52286,0.62218,-0.47531,-3.06471,-8.29683,-1.58267
-0.30867,1.68154,0.00122,0.18626,-0.17795,0.31332,1.02499,-0.56857,-0.33903,0.14204,-0.08021,-0.94034,0.33208,0.51984,0.62850,-0.47379,-0.66825,-3.74669,-0.37457
-0.30577,1.67892,0.00467,0.19064,-0.17984,0.30016,1.05405,-0.54412,-0.35098,0.36447,-0.14103,-0.82488,0.32764,0.51524,0.63508,-0.47314,1.77289,1.01815,-0.73436
-0.30260,1.67621,0.00808,0.19802,-0.18289,0.28917,1.12570,-0.52446,-0.38165,0.58635,-0.18491,-0.57851,0.32278,0.50929,0.64273,-0.47258,4.14657,1.92821,-0.97047
-0.29931,1.67349,0.01158,0.20584,-0.18543,0.28154,1.16823,-0.55866,-0.42022,0.69334,-0.22624,-0.60267,0.31732,0.50422,0.65086,-0.47058,4.50990,-0.96769,-2.60293
-0.29586,1.67075,0.01507,0.21441,-0.18765,0.27523,1.16195,-0.66429,-0.48630,0.69309,-0.17337,-0.37891,0.31141,0.50085,0.65965,-0.46586,-0.47698,-6.57672,-4.37934
-0.29221,1.66794,0.01857,0.22424,-0.19069,0.27058,1.17049,-0.77943,-0.54627,0.54443,-0.21666,-0.21141,0.30470,0.49754,0.66897,-0.46053,0.32440,-6.56641,-4.75558
-0.28857,1.66499,0.02224,0.23200,-0.19518,0.26912,1.18509,-0.88563,-0.59431,0.61028,-0.42826,-0.01117,0.29746,0.49415,0.67844,-0.45503,1.31452,-6.92947,-3.17391
-0.28494,1.66183,0.02606,0.23791,-0.20169,0.27023,1.22044,-1.00510,-0.65495,0.43840,-0.58936,0.20869,0.28934,0.49045,0.68891,-0.44849,1.68654,-9.09048,-5.48703
-0.28120,1.65828,0.03001,0.24413,-0.21271,0.27315,1.29608,-1.10332,-0.71117,0.45037,-0.87167,0.29600,0.28042,0.48553,0.70014,-0.44207,4.74187,-7.40389,-4.38541
-0.27714,1.65422,0.03416,0.25381,-0.22886,0.27813,1.46325,-1.14523,-0.81093,0.59281,-0.97093,0.42310,0.27143,0.47689,0.71337,-0.43588,9.29087,-4.14634,-5.59296
-0.27287,1.65005,0.03830,0.26493,-0.24341,0.28205,1.70098,-1.06124,-0.86028,0.73729,-0.97069,0.28104,0.26296,0.46423,0.72642,-0.43320,16.30788,3.16845,-3.31044
-0.26839,1.64585,0.04235,0.27674,-0.25559,0.28399,1.93234,-0.93735,-0.87724,1.09673,-1.03153,0.12680,0.25475,0.44960,0.73898,-0.43230,19.58509,8.32848,1.16871
-0.26294,1.64101,0.04633,0.30059,-0.27458,0.28411,2.24291,-0.74468,-0.89111,1.50516,-1.21726,-0.20588,0.24671,0.43024,0.75225,-0.43375,18.73827,9.73069,1.58196
-0.25763,1.63626,0.05015,0.31748,-0.28860,0.28206,2.34490,-0.71330,-0.95136,1.69111,-1.40827,-0.40185,0.23876,0.41554,0.76479,-0.43061,13.89342,7.15889,-0.11580
-0.25217,1.63102,0.05399,0.33305,-0.30700,0.28101,2.25457,-0.93844,-1.16207,1.21380,-1.58139,-0.11724,0.22976,0.40698,0.77901,-0.41801,-2.52241,-8.24520,-13.38449
-0.24707,1.62539,0.05802,0.33962,-0.32678,0.28260,2.12600,-1.24539,-1.41286,0.28479,-1.81093,0.24871,0.21935,0.40090,0.79433,-0.40025,-12.14221,-20.02447,-25.27651
-0.24232,1.61863,0.06229,0.33978,-0.35923,0.28750,2.08687,-1.60451,-1.70878,-0.28218,-2.03499,0.47148,0.20613,0.39375,0.81198,-0.37837,-4.49515,-19.56359,-22.57416
-0.23791,1.61166,0.06654,0.33523,-0.38871,0.29130,2.16228,-1.83539,-1.92686,-0.56579,-1.97944,0.28903,0.19217,0.38279,0.82950,-0.35843,3.60548,-16.77177,-19.32764
-0.23353,1.60464,0.07062,0.33076,-0.41192,0.29147,2.30963,-1.92374,-2.01738,-0.66264,-1.71666,-0.03847,0.17796,0.36850,0.84580,-0.34230,9.69302,-10.92569,-11.85459
-0.22915,1.59699,0.07437,0.32758,-0.44034,0.28686,2.71511,-1.86663,-1.84802,-0.24572,-1.49331,-0.42106,0.15998,0.34640,0.86109,-0.33606,20.33008,-1.88393,11.12525
-0.22465,1.58958,0.07772,0.32686,-0.45974,0.27728,2.94005,-1.79769,-1.69201,0.14364,-1.85976,-1.20050,0.14375,0.32639,0.87401,-0.33003,21.45804,0.66285,19.08802
-0.22002,1.58114,0.08032,0.32797,-0.49030,0.25803,3.09524,-1.77634,-1.60826,0.28939,-2.25658,-1.50281,0.12733,0.30666,0.88660,-0.32201,10.33950,-0.51105,8.42191
-0.21533,1.57216,0.08256,0.32985,-0.52323,0.23745,3.14749,-1.81831,-1.68817,0.39171,-2.59555,-1.51377,0.11192,0.28846,0.89950,-0.30849,4.62152,-2.43378,-2.27643
-0.21059,1.56244,0.08440,0.33219,-0.56061,0.21519,3.24126,-1.87023,-1.85089,0.07404,-2.74016,-1.78013,0.09638,0.26816,0.91307,-0.29172,6.36902,-2.65945,-11.84672
-0.20589,1.55249,0.08580,0.33314,-0.59251,0.19104,3.34763,-1.86457,-1.96503,-0.05526,-2.55505,-2.21613,0.08144,0.24605,0.92568,-0.27558,10.39138,0.19172,-9.51411
-0.20132,1.54175,0.08606,0.33211,-0.62966,0.15506,3.44571,-1.85235,-2.06295,-0.18408,-2.13741,-2.37512,0.06657,0.22318,0.93738,-0.25900,7.87409,1.16138,-5.36984
-0.19691,1.53110,0.08604,0.32902,-0.65852,0.12205,3.51267,-1.84954,-2.07914,-0.44854,-2.03175,-2.46433,0.05102,0.20089,0.94740,-0.24386,5.09586,0.36086,-2.40851
-0.19288,1.51994,0.08532,0.32038,-0.68841,0.08523,3.60333,-1.85270,-2.01366,-1.02240,-2.21148,-2.83714,0.03414,0.17748,0.95607,-0.23081,5.23226,-1.63990,3.78982
-0.18935,1.50852,0.08406,0.30633,-0.71583,0.04864,3.68709,-1.88073,-1.93058,-1.32488,-2.39201,-3.27391,0.01611,0.15382,0.96353,-0.21838,5.65774,-4.25775,7.21239
-0.18647,1.49621,0.08141,0.28620,-0.75079,-0.00037,3.82691,-1.89028,-1.84776,-1.60499,-2.67077,-3.66896,-0.00228,0.12758,0.97009,-0.20651,6.77324,-4.14570,5.42154
-0.18397,1.48296,0.07764,0.26424,-0.79161,-0.05584,4.12020,-1.89941,-1.68698,-1.72565,-3.05243,-3.91711,-0.02297,0.09535,0.97538,-0.19751,15.52504,-4.81705,11.15315
-0.18182,1.46895,0.07292,0.24170,-0.83542,-0.11365,4.51486,-1.95444,-1.48652,-1.51925,-3.16761,-4.17470,-0.04680,0.05800,0.97889,-0.19031,24.96317,-10.85960,16.12457
-0.18015,1.45408,0.06678,0.21636,-0.88278,-0.18144,4.90150,-2.04020,-1.37950,-1.54064,-2.83969,-4.54736,-0.07194,0.01826,0.98073,-0.18070,23.71024,-11.08435,9.51354
-0.17889,1.43944,0.05992,0.18972,-0.91787,-0.24688,5.15791,-2.15762,-1.32115,-2.42603,-2.27898,-4.86630,-0.09760,-0.01943,0.98051,-0.16942,17.83214,-8.78984,1.70395
-0.17815,1.42480,0.05226,0.16170,-0.94661,-0.31003,5.44621,-2.40327,-1.11083,-2.49399,-2.12088,-5.61065,-0.12900,-0.05879,0.97646,-0.16258,17.79213,-22.94849,10.18611
-0.17857,1.41000,0.04132,0.12211,-0.97073,-0.40892,5.79567,-2.78581,-0.90146,-2.49371,-0.92237,-6.62448,-0.16688,-0.10111,0.96830,-0.15595,19.76124,-29.12996,7.56658
-0.17926,1.39606,0.02950,0.08604,-0.97642,-0.50099,6.00310,-3.18096,-0.76842,-2.63710,0.25014,-6.81046,-0.20633,-0.14052,0.95698,-0.14790,13.73802,-29.70847,1.66171
-0.18428,1.38172,0.01903,0.05084,-0.96696,-0.59643,6.15201,-3.65117,-0.67213,-2.40399,1.22924,-6.92571,-0.24983,-0.17805,0.94152,-0.13937,9.10299,-33.79623,-3.95183
-0.19777,1.35946,0.00942,0.02309,-0.94755,-0.67859,6.25009,-4.10050,-0.66571,-2.12804,2.22923,-7.02180,-0.29487,-0.21367,0.92241,-0.12864,8.85833,-34.97230,-9.65702
-0.21706,1.33647,-0.00438,-0.00357,-0.89390,-0.79377,6.23130,-4.73560,-0.74919,-1.07155,4.79633,-7.68677,-0.34744,-0.24363,0.89805,-0.11594,4.39175,-34.13654,-20.89619
-0.23455,1.31804,-0.02158,-0.00764,-0.82282,-0.89772,6.03556,-5.31123,-0.80694,0.58656,5.89606,-7.60389,-0.39970,-0.26677,0.87061,-0.10541,-7.71280,-34.98430,-24.01253
-0.24947,1.30392,-0.04104,0.00557,-0.74651,-0.98508,5.75172,-5.62980,-0.95392,2.05102,7.20623,-7.47399,-0.44649,-0.28492,0.84314,-0.09267,-14.90508,-25.62710,-28.02965
-0.27679,1.29445,-0.06171,0.05180,-0.59890,-1.11378,5.26217,-5.73941,-1.33927,3.70193,9.29844,-7.16248,-0.48870,-0.29281,0.81851,-0.07393,-16.68710,5.14296,-31.83624
-0.29513,1.28990,-0.08021,0.10386,-0.48257,-1.19619,4.90564,-5.69651,-1.54352,5.27509,10.37702,-6.79422,-0.52556,-0.30266,0.79300,-0.05776,-18.01761,10.20877,-25.90218
-0.31109,1.28919,-0.09980,0.17260,-0.35483,-1.27612,4.60248,-5.43460,-1.73266,6.98984,10.83201,-6.68593,-0.55522,-0.31153,0.77013,-0.03975,-19.99561,20.74566,-19.58448
-0.32654,1.29333,-0.12007,0.27349,-0.18997,-1.36819,4.43053,-4.84888,-1.89359,7.51081,12.84468,-6.49621,-0.57383,-0.32332,0.75226,-0.01712,0.20504,53.04237,-7.94450
-0.32906,1.30252,-0.15070,0.42287,0.02909,-1.46955,4.11043,-4.96388,-1.58143,9.45072,14.94113,-6.05503,-0.60338,-0.33380,0.72408,-0.01500,-22.99529,2.77874,9.68488
-0.32254,1.31156,-0.18219,0.55392,0.21138,-1.53511,3.76165,-5.59696,-1.20938,10.94920,16.07648,-5.00140,-0.64419,-0.34136,0.68408,-0.02307,-35.62971,-39.96868,3.60493
-0.31275,1.32383,-0.21560,0.72183,0.44242,-1.58986,3.23645,-6.72810,-0.76777,12.13013,17.51428,-2.80354,-0.69602,-0.34196,0.62969,-0.04602,-47.24972,-77.11096,-4.64298
-0.30082,1.33904,-0.24922,0.91449,0.73519,-1.60375,2.50714,-7.97218,-0.52307,12.00009,19.33752,1.29209,-0.75096,-0.33065,0.56662,-0.07535,-46.83837,-80.36797,-21.53349
-0.28666,1.35495,-0.27936,1.06023,1.00870,-1.56408,1.65385,-8.97130,-0.75738,9.03576,20.29381,4.40776,-0.80312,-0.30350,0.50292,-0.09973,-43.46914,-61.56094,-44.78157
-0.27290,1.37276,-0.30624,1.15498,1.24539,-1.49594,0.75976,-9.93078,-1.47117,6.54760,21.00275,6.73943,-0.85598,-0.25687,0.43269,-0.11878,-30.09332,-69.27963,-82.70942
-0.26177,1.39498,-0.33274,1.24303,1.57283,-1.37103,-0.55173,-11.16408,-3.20178,5.32815,21.47061,9.36840,-0.91256,-0.16458,0.35053,-0.13143,-2.53141,-79.43001,-135.01770
-0.24991,1.42077,-0.35619,1.31260,1.86883,-1.23508,-1.50597,-11.16349,-4.70023,5.22106,22.24601,9.60965,-0.94429,-0.07476,0.29145,-0.13338,20.09610,-19.79541,-133.35310
-0.23740,1.45323,-0.37582,1.36963,2.17466,-1.10548,-2.10553,-10.60284,-6.74525,5.90950,28.82148,10.91085,-0.96213,0.03410,0.24505,-0.11440,37.37585,-4.80621,-122.70590
-0.22606,1.49722,-0.39194,1.47616,2.60754,-0.92804,-2.76157,-9.27990,-9.07872,11.16371,35.29681,15.64156,-0.95723,0.16364,0.22315,-0.08450,132.54260,-18.49548,-148.92840
-0.21285,1.55387,-0.40097,1.67356,3.14484,-0.71519,-2.86209,-7.16043,-11.75986,18.70679,41.00304,16.95273,-0.92314,0.30635,0.23015,-0.03154,173.45080,32.29753,-171.25910
-0.19438,1.62348,-0.40450,2.01880,3.73756,-0.48371,-2.41410,-4.78948,-14.50388,32.84333,44.59260,16.74792,-0.85434,0.45354,0.25080,0.03880,190.22740,18.27989,-162.98090
-0.15948,1.70788,-0.40343,2.62954,4.35803,-0.22288,-1.22665,-3.12129,-17.25048,56.48759,44.10914,21.06370,-0.75130,0.59441,0.25454,0.13203,172.11000,-72.12997,-171.15710
-0.09929,1.80354,-0.39146,3.77402,4.93220,0.16502,0.90091,-2.05209,-20.00944,86.38242,24.30038,29.00735,-0.60641,0.71344,0.24347,0.25298,110.11510,-129.54510,-166.92290
-0.01631,1.88366,-0.37541,4.71470,5.07734,0.48485,2.55405,-1.89273,-21.36427,101.58020,2.64038,36.22166,-0.45880,0.78774,0.20957,0.35363,70.61874,-141.18680,-131.91520
0.11566,1.93613,-0.33709,6.40919,4.69589,1.13959,5.31430,-2.87754,-22.75915,104.60710,-53.38688,48.26045,-0.27960,0.81182,0.15358,0.48907,-17.87992,-155.77720,-149.27280
0.25491,1.93394,-0.28190,7.74781,3.59282,1.86857,7.99264,-4.88860,-22.11616,79.71772,-103.51060,58.11523,-0.13919,0.76718,0.09718,0.61855,-114.34360,-171.06300,-82.65665
0.38496,1.85756,-0.19732,8.70850,1.59352,2.83088,10.48656,-8.29494,-20.69278,37.63783,-145.34100,61.67748,-0.01450,0.65647,0.02805,0.75369,-206.70210,-174.60030,-106.36340
0.48179,1.74071,-0.09923,8.89134,-0.58391,3.69179,11.25619,-10.56618,-20.51164,-10.18550,-166.63980,57.45439,0.13149,0.54547,-0.05828,0.82570,-145.67080,-56.98200,-157.93200
0.50908,1.55190,0.00767,8.09780,-3.40654,4.46362,13.02404,-6.10162,-21.48749,-81.11405,-190.41030,22.06511,0.34806,0.53601,-0.05781,0.76695,135.75030,-31.79856,-2.42102
0.46532,1.35176,0.06970,6.38210,-5.92835,4.58498,20.49836,4.10238,-18.09575,-148.10630,-171.94000,-13.12089,0.60618,0.55862,0.17575,0.53814,676.20920,-547.44790,127.08660
0.36170,1.16634,0.08466,4.10444,-8.07146,4.16415,33.07157,8.44599,-10.07140,-175.29800,-137.89210,-48.41718,0.77588,0.31355,0.51011,0.19868,744.90670,-476.34030,-628.86790
0.22345,1.00993,0.05549,1.61155,-9.77648,3.00750,43.21548,1.94400,-3.01997,-187.26570,-96.81885,-111.28270,0.70907,-0.15176,0.68448,-0.07532,822.93600,257.83640,-764.13700
0.07891,0.90548,-0.03513,-0.75875,-10.32990,0.76099,39.88224,-8.09654,-4.63763,-148.44790,17.06086,-167.64120,0.58198,-0.45489,0.67232,-0.04858,299.28960,717.03400,-308.56210
-0.01818,0.87389,-0.14619,-2.17264,-9.31064,-1.30787,31.01716,-9.25343,-9.70202,-62.87647,111.76510,-117.50680,0.56862,-0.56930,0.58924,0.07328,-120.93770,771.79280,192.47250
-0.06938,0.86748,-0.22787,-2.59615,-7.93334,-2.24004,25.28706,-6.84279,-10.13246,-7.62517,123.42380,-45.45079,0.58194,-0.61163,0.52750,0.09481,-288.38940,421.21070,394.09060
-0.08917,0.92032,-0.28895,-2.54320,-6.24841,-2.45428,20.18480,-7.12380,-6.50047,16.85091,94.53671,14.44584,0.54750,-0.60462,0.57529,0.06095,-390.43070,15.14914,38.67191
-0.09778,0.94275,-0.31239,-2.38111,-5.30752,-2.15654,16.32556,-9.31969,-3.56836,10.72298,65.52636,34.33150,0.45863,-0.61175,0.64453,0.00085,-367.23400,-104.00850,-206.22780
-0.09941,0.97541,-0.30583,-2.32233,-4.59061,-1.58995,10.77337,-9.75728,-2.42832,-7.08010,35.98211,39.32138,0.38929,-0.57601,0.71850,0.02043,-374.51240,-24.44423,-203.88800
0.01211,0.92333,-0.24943,-2.45734,-4.19025,-1.02367,4.96096,-5.73620,-3.11727,-15.85337,21.27968,33.03439,0.41863,-0.51035,0.73668,0.14696,-328.83870,328.55800,-111.97140
0.27002,0.75739,-0.13774,-2.73356,-3.86559,-0.54884,0.29576,-0.08355,-3.72134,-16.26540,23.44785,26.54488,0.49718,-0.41561,0.69954,0.30120,-205.76550,449.64940,-37.81187
0.31991,0.68167,-0.09217,-2.95025,-3.56134,-0.30235,-1.42042,2.82609,-4.31571,-14.67874,28.84671,18.90110,0.53316,-0.37141,0.64847,0.39659,-119.64610,331.82970,-28.98923
0.32229,0.63935,-0.05915,-3.12984,-3.12567,-0.10547,-1.85331,4.50920,-5.17979,-7.48670,33.99474,14.08130,0.55045,-0.35775,0.58634,0.47458,-12.10299,160.32330,-84.87367
0.30544,0.62151,-0.03508,-3.19951,-2.56311,0.06675,-1.84881,4.42594,-5.72251,1.73714,29.58253,8.39472,0.53980,-0.36406,0.54871,0.52440,-9.51150,1.86247,-34.81560
0.27093,0.60114,-0.02570,-3.17150,-2.28960,0.13502,-1.91705,3.59924,-5.65724,5.66481,26.21238,7.38472,0.51882,-0.37059,0.53383,0.55543,-17.89857,-46.55980,-1.95151
0.24051,0.59269,-0.01427,-3.07076,-1.91502,0.22393,-2.56443,1.77188,-5.10923,7.60067,21.68584,4.23201,0.47193,-0.37334,0.55646,0.57293,-70.38876,-92.52492,54.98015
0.20887,0.58453,-0.00578,-2.95247,-1.62913,0.27389,-3.03256,0.88688,-4.29048,7.97849,20.59208,1.02771,0.44140,-0.36313,0.57275,0.58758,-60.27752,-55.45136,74.88187
0.18378,0.58242,0.00083,-2.83209,-1.36112,0.28928,-2.97488,0.91652,-3.56605,7.99121,19.14745,-0.86608,0.43316,-0.34971,0.57222,0.60219,-3.98004,3.79481,55.95133
0.15173,0.58072,0.00471,-2.71918,-1.10212,0.27809,-2.64897,0.99261,-2.99593,8.45661,18.64135,-0.85618,0.43113,-0.34141,0.56736,0.61292,31.99387,17.56663,38.00149
0.12080,0.58351,0.00816,-2.61356,-0.83047,0.26000,-2.63343,0.50592,-2.54853,7.40804,19.86022,-1.45184,0.41356,-0.33775,0.57418,0.62066,4.43563,-21.05573,39.87392
0.09019,0.59071,0.01081,-2.52357,-0.55038,0.23630,-2.63739,0.06790,-2.44872,5.37329,19.99908,-2.67977,0.39051,-0.33862,0.57699,0.63239,-11.84267,-35.78757,23.40054
0.06171,0.60369,0.01223,-2.42031,-0.23862,0.20006,-1.95121,0.43737,-2.80341,6.24384,19.39612,-3.56946,0.38887,-0.34609,0.55296,0.65057,31.68851,1.83883,-17.43093
0.03399,0.61440,0.01392,-2.32771,-0.02746,0.17745,-1.04487,1.12069,-3.32362,8.59854,16.30289,-1.51695,0.39922,-0.35569,0.51256,0.67185,79.23070,33.96373,-49.76300
0.01027,0.62755,0.01628,-2.19810,0.17233,0.17166,-0.38425,1.40596,-3.68536,11.24807,12.27108,1.75028,0.40448,-0.36765,0.47577,0.68912,68.41489,21.74722,-42.38270
-0.01037,0.64077,0.02022,-2.04639,0.33185,0.19165,-0.56829,0.77751,-3.72054,12.99186,9.91870,2.84227,0.38236,-0.38037,0.46526,0.70190,-7.82244,-31.11303,-6.99563
-0.02619,0.65373,0.02554,-1.85561,0.45415,0.22796,-1.10195,-0.02612,-3.46854,15.04090,7.32315,2.95738,0.34944,-0.38908,0.47001,0.71105,-52.07529,-51.45493,16.35616
-0.03857,0.66440,0.03171,-1.65814,0.51660,0.27043,-1.55233,-0.53082,-3.12111,28.18301,-1.02605,4.70440,0.31994,-0.39248,0.47629,0.71885,-45.57096,-27.29491,26.73224
0.01156,0.65489,0.04846,-0.57939,0.26801,0.46194,-4.07916,-4.97777,1.64330,38.87899,-12.51511,0.20211,0.20943,-0.38187,0.66189,0.61010,-518.13060,-449.21640,351.14470
0.03765,0.64069,0.07391,-0.07203,0.00080,0.73923,-3.80139,0.05974,3.27557,20.62489,-10.96504,7.77024,0.29521,-0.25418,0.66866,0.63335,-276.59660,461.73820,10.21468
0.04811,0.63236,0.09161,0.09912,-0.12349,0.85028,-1.79939,2.96286,3.26096,8.51979,-6.76422,7.45064,0.38377,-0.20599,0.63481,0.63821,182.08310,198.89820,-78.68003
0.05477,0.63252,0.10665,0.17816,-0.09317,0.89625,0.16087,5.81419,1.87505,4.96479,8.49180,-1.42451,0.47611,-0.16542,0.55413,0.66249,72.54193,248.92070,-108.72530
0.06114,0.64430,0.11490,0.23788,0.10055,0.83464,1.87598,6.77344,-0.95764,7.90004,15.23377,-2.94126,0.52801,-0.17967,0.44625,0.69984,51.28231,122.08920,-247.43170
0.06862,0.65887,0.12287,0.30535,0.29402,0.78421,1.71945,7.51744,-2.35178,3.35729,7.44097,-1.74497,0.55105,-0.15299,0.36939,0.73245,-30.74894,78.07816,-67.89366
0.07337,0.66715,0.13113,0.32224,0.35441,0.74670,1.38269,7.11917,-2.97593,2.76639,2.01536,-2.49873,0.55766,-0.14026,0.32072,0.75265,-47.22345,4.59947,-44.98525
0.07815,0.67320,0.13861,0.33470,0.36895,0.70435,0.80790,6.01574,-2.81620,3.17452,0.54533,-3.47414,0.55189,-0.13328,0.30438,0.76486,-51.56725,-59.88741,6.42445
0.08360,0.67860,0.14344,0.35635,0.37429,0.63441,-0.41891,3.76117,-1.67669,2.26119,-0.29937,-4.51085,0.51839,-0.13381,0.34344,0.77163,-69.89551,-125.61300,85.75195
0.08856,0.68300,0.14811,0.36962,0.36385,0.57685,-1.26496,2.07117,-0.59023,0.90423,-1.24147,-5.18055,0.48834,-0.13094,0.38387,0.77267,-70.45464,-137.36990,115.96090
0.09363,0.68537,0.15059,0.38510,0.32540,0.49865,-1.79161,0.52896,0.51443,0.11272,-2.58831,-5.39219,0.45852,-0.13124,0.43234,0.76526,-34.52389,-97.93011,90.56731
0.09907,0.68642,0.15268,0.39806,0.27862,0.43009,-1.72439,-0.10339,0.96185,0.14682,-3.22939,-5.21124,0.44604,-0.13068,0.45630,0.75879,0.13667,-52.01717,48.57148
0.10436,0.68695,0.15444,0.40744,0.23598,0.37232,-1.42122,-0.25935,1.02431,0.48682,-3.19877,-5.10557,0.44325,-0.13003,0.46616,0.75453,20.06658,-20.43329,16.46302
0.11003,0.68664,0.15455,0.42117,0.19182,0.30338,-0.92250,-0.11978,0.81555,0.89867,-2.95307,-4.86925,0.44997,-0.13092,0.46407,0.75168,33.86507,5.44119,-9.48599
0.11609,0.68539,0.15348,0.43806,0.14351,0.23038,-0.27678,0.30470,0.37153,1.15310,-2.96240,-4.46137,0.46617,-0.13196,0.44892,0.75083,38.24559,24.93563,-27.88967
0.12223,0.68390,0.15232,0.45387,0.10274,0.17032,0.30721,0.80046,-0.09377,1.55988,-2.70246,-4.03190,0.48556,-0.13169,0.42801,0.75080,40.87872,34.89737,-35.25726
0.12940,0.68234,0.15037,0.47689,0.06525,0.10810,0.82183,1.32954,-0.53161,1.93479,-2.06174,-3.57465,0.50734,-0.12977,0.40267,0.75075,33.24861,35.31950,-30.15349
0.13621,0.68103,0.14864,0.49409,0.04476,0.06397,1.06154,1.64426,-0.75119,2.08681,-1.46040,-3.38836,0.52382,-0.12591,0.38267,0.75055,23.36250,29.41054,-22.33698
0.14361,0.67945,0.14538,0.52032,0.02806,0.00706,1.23132,1.96190,-0.90030,2.28222,-0.67774,-3.40514,0.54060,-0.11957,0.36186,0.75001,11.89573,20.97523,-10.78487
0.15159,0.67887,0.14256,0.54186,0.02289,-0.03412,1.26517,2.09942,-0.93406,2.24155,-0.32967,-3.14488,0.55354,-0.11330,0.34534,0.74933,5.79983,15.33969,-4.64475
0.15971,0.67795,0.13897,0.56436,0.01904,-0.07696,1.18544,2.12757,-0.84470,2.10823,-0.31820,-2.77340,0.56325,-0.10563,0.33347,0.74859,-2.57252,5.15625,3.93728
0.16804,0.67690,0.13512,0.58447,0.01341,-0.11518,1.02320,2.01450,-0.61948,1.85388,-0.48634,-2.50653,0.56950,-0.09740,0.32830,0.74726,-8.52057,-6.42474,14.69133
0.17703,0.67601,0.13110,0.60435,0.00511,-0.14952,0.83328,1.81504,-0.30966,1.65026,-0.68052,-2.37321,0.57337,-0.08887,0.32872,0.74518,-10.77541,-14.34173,21.64891
0.18566,0.67403,0.12648,0.62259,-0.00730,-0.18405,0.68205,1.63601,0.01092,1.48072,-0.72236,-2.69370,0.57708,-0.07944,0.33150,0.74214,-10.14419,-15.98029,24.41601
0.19460,0.67175,0.12114,0.64038,-0.02192,-0.22223,0.64714,1.58213,0.22409,1.26316,-0.99744,-2.67443,0.58365,-0.06945,0.33120,0.73813,-2.04746,-6.56052,17.83594
0.20382,0.66938,0.11562,0.65383,-0.04104,-0.25652,0.65026,1.58062,0.37710,0.83640,-1.48308,-2.33795,0.59123,-0.05904,0.32951,0.73375,0.66776,-1.08764,12.27325
0.21243,0.66566,0.10952,0.66182,-0.06817,-0.29201,0.70121,1.64017,0.47175,0.62940,-1.46063,-2.22377,0.60036,-0.04819,0.32576,0.72878,3.39768,2.61306,6.17993
0.22128,0.66264,0.10351,0.66616,-0.08413,-0.31929,0.72164,1.71294,0.53011,0.55372,-0.97420,-2.22837,0.60919,-0.03672,0.32100,0.72422,3.69398,5.51393,4.94396
0.23027,0.65998,0.09685,0.67000,-0.09515,-0.35100,0.75192,1.85716,0.56687,0.07940,-0.51717,-2.17468,0.61901,-0.02347,0.31422,0.71941,1.88978,8.15426,4.32048
0.23860,0.65700,0.08991,0.66662,-0.10359,-0.37977,0.76843,2.04177,0.51510,-0.25281,-0.44795,-1.88524,0.62900,-0.00997,0.30388,0.71549,0.46800,13.38308,-1.90452
0.24664,0.65399,0.08279,0.65825,-0.11076,-0.40514,0.76661,2.21873,0.46362,-0.40799,-0.33046,-1.74162,0.63873,0.00425,0.29246,0.71167,-0.69264,13.45304,-3.61351
0.25462,0.65161,0.07518,0.64731,-0.11306,-0.43387,0.76194,2.35223,0.47999,-0.64335,0.20889,-1.88261,0.64807,0.01936,0.28245,0.70700,-0.59395,8.53949,1.12255
0.26203,0.64937,0.06745,0.63341,-0.10798,-0.45843,0.74230,2.44876,0.50929,-0.92223,0.73393,-1.63075,0.65668,0.03469,0.27296,0.70218,-0.59245,7.31823,2.78447
0.26955,0.64773,0.05993,0.62054,-0.09943,-0.47427,0.71537,2.52122,0.52606,-1.27097,1.20219,-1.48756,0.66474,0.05002,0.26322,0.69738,-2.09315,6.49251,3.05203
0.27561,0.64708,0.05174,0.59058,-0.07622,-0.49648,0.63572,2.64347,0.50152,-1.83637,1.54860,-0.93597,0.67170,0.06665,0.25103,0.69381,-4.66048,7.24492,0.08216
