posX, posY, posZ, velX, velY, velZ, angVelX, angVelY, angVelZ, accX, accY, accZ, rotX, rotY, rotZ, rotW, angAccX, angAccY, angAccZ
0.40098,1.22242,-0.41791,-0.49138,1.17252,-1.19331,1.91357,1.97015,2.08328,-4.62993,-1.05106,-0.09057,0.36532,0.72063,0.35098,0.47334,-15.64196,2.53162,-17.80272
0.39017,1.23840,-0.43441,-0.54726,1.16159,-1.19291,1.80909,1.99449,1.90807,-4.52099,-0.82245,0.00266,0.36843,0.72729,0.35660,0.45624,-13.28213,1.60811,-14.94973
0.37677,1.25528,-0.45072,-0.62258,1.15461,-1.18877,1.75013,2.05180,1.78388,-4.49681,-0.14316,0.30912,0.37195,0.73410,0.36237,0.43755,-6.54762,3.65856,-8.84087
0.36428,1.27211,-0.46693,-0.67143,1.15450,-1.18391,1.78597,2.11198,1.78018,-4.79284,0.02166,0.43153,0.37452,0.74082,0.37132,0.41599,-1.94375,4.18930,-2.49693
0.34892,1.28897,-0.48229,-0.75130,1.15540,-1.16857,1.89285,2.22229,1.81248,-4.88847,0.04175,1.36167,0.37791,0.74741,0.38162,0.39107,5.90273,8.06118,2.10617
0.33413,1.30540,-0.49712,-0.81012,1.15493,-1.14904,2.02484,2.30054,1.83271,-4.82469,-0.13667,1.74915,0.38173,0.75254,0.39281,0.36561,8.17241,6.54142,1.75805
0.31788,1.32181,-0.51097,-0.87546,1.15261,-1.11924,2.19366,2.41594,1.83553,-4.46575,-0.29450,2.49927,0.38716,0.75672,0.40442,0.33754,11.86875,9.80591,0.29772
0.30123,1.33782,-0.52392,-0.93658,1.14919,-1.08250,2.25166,2.50286,1.79743,-4.32483,-0.36233,3.06580,0.39215,0.76071,0.41334,0.31094,6.00551,8.91683,-2.13151
0.28377,1.35371,-0.53577,-0.99671,1.14471,-1.03853,2.18971,2.51775,1.72259,-4.20249,-0.46164,3.47520,0.39592,0.76453,0.41943,0.28778,-4.62127,2.41688,-3.65152
0.26612,1.36951,-0.54694,-1.04647,1.13982,-0.99328,2.23329,2.51839,1.66027,-4.03553,-0.16069,3.76836,0.40058,0.76628,0.42772,0.26345,-3.05168,0.59062,-5.84661
0.24625,1.38527,-0.55536,-1.12075,1.13746,-0.91662,2.60577,2.61987,1.68217,-4.00879,0.22175,4.29031,0.40803,0.76406,0.44335,0.23059,17.96566,6.52774,-1.92965
0.22669,1.40113,-0.56337,-1.17802,1.13834,-0.84788,3.19051,2.79883,1.78924,-3.97746,0.48125,5.01139,0.41632,0.75815,0.46467,0.18966,32.59282,15.35081,0.92991
0.20684,1.41739,-0.56971,-1.22687,1.14383,-0.76789,3.78073,2.97206,1.90740,-3.14638,-0.02535,6.63422,0.42419,0.74884,0.48825,0.14464,52.04863,21.00330,4.78865
0.18697,1.43349,-0.57456,-1.26675,1.14691,-0.68296,3.69517,2.87097,1.86015,-2.43249,-0.59797,6.91297,0.42723,0.74428,0.50013,0.11570,7.91265,-0.35565,-1.07387
0.16682,1.44887,-0.57830,-1.30233,1.13896,-0.59978,3.14262,2.58864,1.55280,-2.73422,-1.11535,5.74877,0.43078,0.74330,0.50124,0.10336,-30.46083,-23.30322,-13.10952
0.14601,1.46446,-0.57707,-1.34141,1.13654,-0.44600,2.17820,2.24744,1.51788,-1.49242,-0.14714,4.03771,0.42518,0.75251,0.49347,0.09721,-20.75160,-14.08360,7.24543
0.10777,1.49582,-0.58608,-1.35291,1.13287,-0.39794,2.02355,2.34436,1.49706,-0.79241,-0.26681,3.71549,0.42843,0.75148,0.49918,0.05034,-13.21096,2.52648,1.52885
0.08830,1.51118,-0.58800,-1.36086,1.12732,-0.34741,1.72466,2.40700,1.47042,-0.29404,-0.64419,3.61076,0.42984,0.75470,0.49474,0.02991,-19.63652,4.55157,2.37664
0.06924,1.52586,-0.58902,-1.36191,1.11441,-0.29205,1.22327,2.41465,1.43629,0.26444,-1.52162,3.72243,0.43012,0.76168,0.48439,0.01436,-25.70246,1.48852,2.83106
0.05047,1.53981,-0.58993,-1.35864,1.09268,-0.24557,0.43502,2.18111,1.35296,0.67243,-2.07319,3.47069,0.42722,0.77370,0.46770,0.01125,-50.86938,-17.42701,2.83413
0.03217,1.55315,-0.59068,-1.34994,1.06640,-0.20637,-0.25415,1.90727,1.25598,0.79993,-2.36614,3.19682,0.42361,0.78604,0.45004,0.01232,-58.15678,-27.62969,0.53071
0.01397,1.56515,-0.59046,-1.34022,1.02659,-0.16125,-0.86265,1.64377,1.17067,0.54385,-2.89333,2.97331,0.41930,0.79894,0.43084,0.01591,-48.05367,-25.96389,0.35575
-0.00383,1.57620,-0.58945,-1.32793,0.98191,-0.11373,-1.14012,1.51556,1.07316,0.78901,-2.51269,3.44151,0.41755,0.80794,0.41552,0.01495,-29.66114,-14.63839,-3.43768
-0.02154,1.58687,-0.58695,-1.31569,0.93870,-0.05387,-0.82960,1.59219,0.99828,0.59284,-2.51131,4.30809,0.41947,0.80900,0.41178,0.00148,11.10690,0.65196,-7.36002
-0.03892,1.59651,-0.58213,-1.30059,0.88943,0.02760,-0.03227,1.90667,0.90220,1.17147,-2.84456,5.38064,0.42651,0.80125,0.41881,-0.02603,44.38282,21.32253,-11.71735
-0.05571,1.60593,-0.57646,-1.28034,0.84655,0.10619,0.67032,2.16417,0.79517,1.88906,-3.38381,5.86862,0.43385,0.79138,0.42724,-0.05436,51.58169,24.66021,-14.44271
-0.07162,1.61427,-0.56907,-1.24955,0.79385,0.19394,1.06121,2.22459,0.68598,2.56972,-3.80554,5.63172,0.43929,0.78323,0.43328,-0.07643,28.73564,9.36785,-11.01260
-0.08724,1.62264,-0.56200,-1.22128,0.75340,0.25642,1.02538,2.06672,0.63050,2.77905,-3.72818,5.31798,0.44106,0.78090,0.43338,-0.08861,5.43112,-6.19292,-7.08812
-0.10198,1.62996,-0.55356,-1.18700,0.70648,0.32504,0.82660,1.73907,0.60533,2.51958,-3.22723,4.59638,0.43965,0.78190,0.43207,-0.09307,-13.91034,-23.43626,-2.08985
-0.11576,1.63659,-0.54440,-1.14415,0.65938,0.39434,0.75732,1.54495,0.59468,2.62433,-2.38031,3.98087,0.43873,0.78158,0.43189,-0.10057,-7.32071,-15.51086,-0.44998
-0.12948,1.64364,-0.53582,-1.11042,0.62936,0.44117,0.85455,1.52087,0.57744,2.64688,-2.18464,3.58541,0.43946,0.77838,0.43372,-0.11353,5.57177,-4.79937,-2.01080
-0.14261,1.65034,-0.52692,-1.07588,0.60123,0.48192,1.07121,1.63555,0.53260,2.76691,-2.08746,3.04313,0.44240,0.77190,0.43719,-0.13161,12.87896,4.85715,-3.38185
-0.15448,1.65631,-0.51721,-1.03126,0.56830,0.52328,1.37813,1.85224,0.43952,3.42233,-2.41630,2.74479,0.44805,0.76146,0.44227,-0.15433,21.64755,18.28370,-7.43748
-0.16505,1.66131,-0.50689,-0.97765,0.52929,0.56230,1.50966,1.96388,0.34962,3.51373,-2.60624,2.26925,0.45337,0.75240,0.44525,-0.17349,10.57682,10.09598,-6.71772
-0.17545,1.66630,-0.49691,-0.93154,0.49714,0.58992,1.46591,1.92815,0.32105,3.35280,-2.09758,1.74732,0.45626,0.74674,0.44607,-0.18768,-1.60104,0.45267,-4.10515
-0.18605,1.67167,-0.48754,-0.89769,0.47556,0.60681,1.28999,1.78296,0.39796,2.79766,-1.82877,1.28814,0.45546,0.74537,0.44464,-0.19817,-8.42516,-8.79919,3.73398
-0.19575,1.67659,-0.47816,-0.85830,0.45297,0.62013,0.90578,1.48744,0.57140,2.38513,-1.32613,0.53592,0.45041,0.75061,0.43921,-0.20200,-21.27901,-19.88953,12.27862
-0.20565,1.68162,-0.46930,-0.82930,0.43587,0.62328,0.65602,1.33740,0.66423,2.19121,-1.24819,0.00615,0.44744,0.75379,0.43394,-0.20807,-22.23021,-18.62764,11.29854
-0.21470,1.68624,-0.46065,-0.79374,0.41566,0.62250,0.54177,1.33956,0.66631,2.25132,-1.17784,-0.22467,0.44760,0.75381,0.42916,-0.21735,-12.03495,-4.24513,3.46415
-0.22339,1.69048,-0.45210,-0.76043,0.39421,0.62036,0.65597,1.55424,0.59430,1.98761,-1.36750,-0.22651,0.45150,0.74783,0.42669,-0.23417,2.95050,11.44367,-4.29030
-0.23161,1.69406,-0.44359,-0.72647,0.36693,0.61822,0.88728,1.85596,0.48237,2.26466,-1.89557,-0.12301,0.45753,0.73747,0.42596,-0.25566,14.01881,22.16656,-7.55974
-0.23979,1.69742,-0.43523,-0.69789,0.34142,0.61564,0.91812,1.92080,0.44605,2.38222,-2.25258,-0.18085,0.46058,0.73134,0.42371,-0.27109,6.50800,10.51029,-4.43754
-0.24739,1.70007,-0.42711,-0.66519,0.31007,0.60941,0.70524,1.75607,0.47548,2.30111,-2.08460,-0.45083,0.46091,0.73130,0.41855,-0.27852,-10.82629,-8.67858,2.21076
-0.25472,1.70278,-0.41908,-0.63535,0.28590,0.60324,0.46108,1.53478,0.53337,2.05390,-1.42704,-0.35861,0.45978,0.73365,0.41266,-0.28296,-17.51164,-17.36721,5.01260
-0.26201,1.70561,-0.41092,-0.61211,0.26884,0.60073,0.36206,1.40604,0.58256,1.65609,-1.08275,-0.08139,0.45838,0.73436,0.40822,-0.28976,-12.02396,-14.84291,5.22238
-0.26886,1.70815,-0.40244,-0.58679,0.25099,0.60319,0.43852,1.40712,0.60872,1.67851,-1.03333,0.37764,0.45730,0.73165,0.40598,-0.30125,2.14650,-1.97430,2.83041
-0.27530,1.71046,-0.39356,-0.56107,0.23345,0.61082,0.62098,1.47015,0.59256,1.88520,-1.30911,0.66483,0.45682,0.72581,0.40607,-0.31562,12.39814,4.71994,-1.96695
-0.28105,1.71224,-0.38450,-0.53011,0.21092,0.62034,0.79487,1.49058,0.56335,2.19260,-1.61993,0.45890,0.45592,0.71948,0.40740,-0.32940,11.84579,2.63548,-2.68854
-0.28669,1.71402,-0.37566,-0.50312,0.19302,0.62340,0.81764,1.43847,0.54535,2.49062,-1.77521,0.14546,0.45500,0.71545,0.40689,-0.33991,5.69080,-1.19422,-2.72161
-0.29154,1.71522,-0.36704,-0.47138,0.17079,0.62339,0.72888,1.27266,0.56577,2.39904,-1.71854,-0.09907,0.45262,0.71483,0.40541,-0.34612,-4.24257,-10.30529,0.38927
-0.29599,1.71621,-0.35861,-0.44008,0.14985,0.62085,0.59465,1.04200,0.62462,2.25072,-1.45091,-0.17946,0.44852,0.71689,0.40343,-0.34949,-8.85298,-16.91591,3.48692
-0.30031,1.71715,-0.35014,-0.41363,0.13285,0.61915,0.50945,0.85694,0.66885,2.21151,-1.35427,-0.04388,0.44418,0.71869,0.40198,-0.35299,-7.87108,-16.87645,4.01251
-0.30357,1.71739,-0.34155,-0.37702,0.10907,0.62012,0.50960,0.70541,0.66081,2.20800,-1.42624,0.15870,0.44004,0.71897,0.40269,-0.35679,-0.79240,-11.23647,0.75099
-0.30629,1.71736,-0.33296,-0.33820,0.08541,0.62048,0.65558,0.76039,0.53186,2.22627,-1.21803,-0.06398,0.43956,0.71333,0.40554,-0.36535,7.42451,0.42409,-7.52021
-0.30937,1.71774,-0.32454,-0.31373,0.07321,0.61822,0.79887,0.90154,0.41114,2.32199,-1.05453,-0.24953,0.44057,0.70557,0.40779,-0.37653,11.72560,11.99805,-11.37771
-0.31132,1.71778,-0.31650,-0.27864,0.05857,0.61145,0.94180,1.06451,0.29954,2.24024,-1.09860,-0.55534,0.44231,0.69615,0.41015,-0.38925,10.98172,13.63797,-8.27317
-0.31320,1.71794,-0.30895,-0.24815,0.04741,0.59930,0.89264,0.99909,0.32150,2.12389,-0.77192,-0.95459,0.44059,0.69320,0.41022,-0.39633,-1.27952,-1.96077,0.31382
-0.31531,1.71832,-0.30142,-0.22816,0.04251,0.58872,0.80911,0.89599,0.34913,2.05596,-0.55791,-1.05104,0.43843,0.69183,0.40983,-0.40148,-6.95736,-9.44742,2.54517
-0.31625,1.71834,-0.29450,-0.19532,0.03317,0.57203,0.70087,0.76924,0.36755,2.11717,-0.59780,-0.95012,0.43624,0.69174,0.40912,-0.40475,-7.60109,-9.52813,2.40809
-0.31674,1.71823,-0.28757,-0.16176,0.02351,0.55844,0.69905,0.77404,0.29698,2.42402,-0.50805,-0.82012,0.43645,0.68762,0.40990,-0.41069,-2.03879,-1.75481,-4.02946
-0.31656,1.71807,-0.28057,-0.12551,0.01516,0.54882,0.76245,0.82152,0.19454,2.70280,-0.60459,-0.47518,0.43748,0.68121,0.41213,-0.41799,2.97063,3.86277,-6.71670
-0.31572,1.71768,-0.27326,-0.08779,0.00638,0.54424,0.82727,0.81668,0.08847,2.90503,-0.57025,-0.22740,0.43827,0.67472,0.41568,-0.42412,4.61294,1.80730,-7.97312
-0.31424,1.71729,-0.26567,-0.04819,-0.00060,0.54434,0.92592,0.75140,-0.02661,2.84634,-0.42184,0.16989,0.43822,0.66790,0.42166,-0.42903,5.31820,-3.96071,-8.75802
-0.31229,1.71677,-0.25794,-0.01003,-0.00812,0.54646,1.04841,0.66065,-0.12028,2.75465,-0.64751,0.00771,0.43698,0.66087,0.42926,-0.43362,8.87811,-4.83870,-8.36276
-0.30980,1.71609,-0.25059,0.02830,-0.01639,0.54281,1.10454,0.54130,-0.19440,2.85407,-0.71135,-0.54277,0.43558,0.65509,0.43660,-0.43648,5.33036,-7.47859,-6.88153
-0.30642,1.71521,-0.24378,0.07238,-0.02604,0.53151,1.06262,0.29910,-0.24513,2.88463,-0.77807,-0.90385,0.43313,0.65273,0.44401,-0.43497,-1.49537,-13.05339,-4.19321
-0.30283,1.71426,-0.23725,0.11103,-0.03484,0.51845,0.96768,0.03263,-0.28638,2.76363,-0.49983,-0.98600,0.43045,0.65238,0.45106,-0.43087,-7.18982,-19.50123,-3.52055
-0.29901,1.71346,-0.23091,0.14458,-0.03944,0.50573,0.91221,-0.11322,-0.35649,2.62100,-0.16903,-1.04109,0.42919,0.65030,0.45811,-0.42783,-6.52827,-15.66974,-6.07110
-0.29397,1.71264,-0.22506,0.18922,-0.04342,0.48793,0.94917,-0.09859,-0.51295,2.60432,-0.08715,-1.01751,0.43081,0.64362,0.46646,-0.42728,1.13159,-1.14134,-9.46296
-0.28832,1.71176,-0.21928,0.23473,-0.04755,0.47241,1.07997,0.08496,-0.71757,2.84410,-0.26647,-0.70008,0.43513,0.63171,0.47549,-0.43071,7.72691,11.43104,-11.92048
-0.28244,1.71054,-0.21316,0.27507,-0.05621,0.46572,1.26725,0.26265,-0.92036,2.96125,-0.80103,-0.30299,0.43944,0.61738,0.48614,-0.43521,12.56323,13.24867,-12.99083
-0.27590,1.70883,-0.20679,0.31680,-0.07064,0.46400,1.47916,0.40690,-1.14334,3.17935,-1.19824,-0.02523,0.44408,0.60068,0.49875,-0.43957,16.35950,13.77003,-15.73130
-0.26925,1.70691,-0.20012,0.35053,-0.08473,0.46731,1.59117,0.32375,-1.27338,3.08627,-1.51971,0.25424,0.44548,0.58798,0.51238,-0.43967,13.18478,2.25538,-13.37108
-0.26208,1.70450,-0.19304,0.38477,-0.10320,0.47611,1.55726,-0.08292,-1.35146,2.52917,-1.52689,0.66184,0.44261,0.58250,0.52811,-0.43115,-1.73601,-22.99361,-9.40190
-0.25480,1.70182,-0.18554,0.41308,-0.12156,0.48901,1.46625,-0.61489,-1.39324,1.80972,-1.22927,1.04746,0.43654,0.58128,0.54522,-0.41747,-10.29176,-36.24036,-8.00637
-0.24757,1.69897,-0.17774,0.43489,-0.13877,0.50377,1.43378,-1.04934,-1.43720,1.10619,-1.15846,1.17588,0.42942,0.57917,0.56319,-0.40370,-7.51972,-33.29581,-6.85367
-0.24047,1.69578,-0.16975,0.45051,-0.15756,0.51848,1.49954,-1.30936,-1.48772,0.78781,-1.34530,1.10108,0.42237,0.57371,0.58165,-0.39260,1.45933,-22.09576,-5.45244
-0.23351,1.69224,-0.16175,0.46033,-0.17716,0.52964,1.61469,-1.40977,-1.56442,0.44248,-1.75733,0.96059,0.41672,0.56471,0.60018,-0.38372,6.85547,-12.39321,-5.45440
-0.22672,1.68767,-0.15354,0.46578,-0.20798,0.54175,1.81545,-1.40809,-1.65549,0.06656,-1.95530,0.66823,0.41137,0.55175,0.61970,-0.37726,12.44555,-2.00573,-5.24292
-0.22019,1.68291,-0.14552,0.46670,-0.23581,0.54901,2.00468,-1.35994,-1.74330,-0.02450,-1.95853,0.44023,0.40665,0.53701,0.63884,-0.37167,14.64414,2.63291,-4.31810
-0.21372,1.67783,-0.13753,0.46605,-0.26226,0.55398,2.19197,-1.30687,-1.80188,-0.08906,-1.98412,0.25415,0.40131,0.52106,0.65795,-0.36680,14.74548,3.52311,-3.03247
-0.20747,1.67227,-0.12956,0.46238,-0.29042,0.55775,2.28019,-1.38678,-1.85573,-0.13131,-2.30733,0.10293,0.39424,0.50737,0.67725,-0.35844,9.52115,-2.63934,-2.50477
-0.20148,1.66619,-0.12165,0.45604,-0.32070,0.56010,2.23714,-1.59944,-1.93855,-0.46667,-2.29564,0.05083,0.38602,0.49713,0.69650,-0.34459,-2.64867,-12.69773,-7.64869
-0.19584,1.65914,-0.11385,0.44501,-0.35993,0.55973,2.13017,-1.88314,-2.07850,-0.63931,-2.04294,-0.03871,0.37712,0.48833,0.71629,-0.32594,-7.36632,-14.37854,-10.33292
-0.19007,1.65261,-0.10615,0.43846,-0.38332,0.55834,2.12050,-1.96980,-2.18542,-0.74741,-1.71663,-0.06164,0.36982,0.47606,0.73494,-0.31061,-4.23745,-9.35988,-11.67008
-0.18440,1.64564,-0.09861,0.43202,-0.40829,0.55502,2.26206,-1.89611,-2.27097,-0.56829,-1.50783,-0.17582,0.36357,0.45852,0.75367,-0.29927,7.81976,1.79324,-5.70146
-0.17857,1.63856,-0.09108,0.42910,-0.42913,0.55184,2.50848,-1.72185,-2.30832,-0.18426,-1.31708,-0.13722,0.35766,0.43649,0.77222,-0.29195,18.36003,8.72671,0.42928
-0.17273,1.63138,-0.08350,0.42711,-0.44737,0.55030,2.78935,-1.55458,-2.29891,-0.16200,-1.27283,-0.02228,0.35070,0.41212,0.79053,-0.28675,21.50489,9.23665,3.59419
-0.16696,1.62413,-0.07581,0.42457,-0.46289,0.55092,3.01424,-1.46680,-2.26322,-0.12051,-1.48322,0.06499,0.34201,0.38797,0.80831,-0.28133,20.73579,5.39406,6.76817
-0.16128,1.61609,-0.06780,0.42095,-0.48652,0.55583,3.16079,-1.49714,-2.30217,-0.09306,-1.77122,0.33321,0.33183,0.36409,0.82663,-0.27206,12.93309,-1.98529,0.01058
-0.15573,1.60798,-0.05946,0.41620,-0.50660,0.56508,3.16632,-1.61294,-2.38652,-0.34253,-1.44981,0.86625,0.32103,0.34308,0.84409,-0.25837,0.75026,-5.58917,-7.15150
-0.15028,1.59975,-0.05076,0.41104,-0.52413,0.57757,3.16243,-1.73292,-2.45383,-0.47846,-1.52355,1.28492,0.30914,0.32225,0.86089,-0.24384,-1.87176,-7.87874,-8.37095
-0.14532,1.59058,-0.04127,0.39958,-0.55214,0.59917,3.17925,-1.90609,-2.52807,-0.97635,-2.00774,1.45389,0.29479,0.30093,0.87791,-0.22764,0.03858,-9.24638,-7.35942
-0.14084,1.58078,-0.03163,0.38319,-0.58417,0.61868,3.20313,-2.05379,-2.57827,-1.44567,-2.60949,1.40053,0.27953,0.27917,0.89398,-0.21151,-0.23403,-9.76185,-5.93754
-0.13682,1.57019,-0.02206,0.36383,-0.62119,0.63313,3.27807,-2.14615,-2.58381,-1.95846,-3.56075,1.07007,0.26360,0.25567,0.90902,-0.19703,3.03737,-9.36420,-3.12887
-0.13377,1.55729,-0.01251,0.33396,-0.68344,0.64347,3.49352,-2.21426,-2.58684,-2.47151,-5.22684,0.66694,0.24590,0.22705,0.92421,-0.18389,9.92450,-7.17480,0.09788
-0.13191,1.54184,-0.00346,0.29297,-0.77054,0.64462,3.93097,-2.25754,-2.55170,-3.56648,-6.93696,-0.04786,0.22549,0.19022,0.93948,-0.17418,24.82336,-8.50976,3.03732
-0.13175,1.52365,0.00470,0.23555,-0.88016,0.63274,4.55971,-2.36248,-2.48111,-4.71473,-8.48314,-1.39008,0.19977,0.14504,0.95452,-0.16716,39.88004,-15.74881,9.60052
-0.13454,1.50198,0.01080,0.14522,-1.01925,0.59174,5.20499,-2.58743,-2.50412,-6.28810,-9.01237,-3.92392,0.16873,0.09473,0.96846,-0.15696,40.13657,-21.84344,2.81674
-0.13898,1.47982,0.01477,0.04791,-1.13865,0.52725,5.57070,-2.78951,-2.68581,-7.47593,-8.37178,-5.71420,0.13911,0.04758,0.97921,-0.13975,28.06110,-15.98249,-11.62824
-0.14478,1.45768,0.01688,-0.04783,-1.23203,0.44985,5.82385,-2.96810,-2.85004,-8.58596,-7.25951,-7.37208,0.10880,0.00137,0.98668,-0.12095,22.40279,-12.33817,-15.71963
-0.15507,1.43369,0.01413,-0.19013,-1.33241,0.31611,6.16395,-3.26800,-2.93156,-9.54473,-5.18934,-9.31805,0.07177,-0.04824,0.99090,-0.10314,19.24522,-17.91883,-10.76539
-0.16663,1.41114,0.00909,-0.32355,-1.39110,0.17422,6.43370,-3.63448,-2.85373,-9.86897,-3.05610,-11.01807,0.02991,-0.09626,0.99090,-0.08920,15.19357,-27.86960,-3.46381
-0.18016,1.38996,0.00068,-0.45855,-1.41759,0.01198,6.57753,-4.04180,-2.77500,-9.52228,-0.78641,-12.48803,-0.01539,-0.14113,0.98701,-0.07524,6.93721,-32.39804,-4.63642
-0.19502,1.37061,-0.01098,-0.58524,-1.41195,-0.16501,6.57459,-4.40163,-2.74881,-8.61761,1.54892,-13.35573,-0.06106,-0.18177,0.97962,-0.05978,-1.57753,-25.51690,-9.59140
-0.21074,1.35330,-0.02579,-0.69767,-1.37568,-0.35187,6.44362,-4.66048,-2.78486,-7.46622,3.73932,-13.86994,-0.10531,-0.21814,0.96930,-0.04229,-8.72765,-15.82975,-13.18254
-0.22690,1.33876,-0.04369,-0.79365,-1.30631,-0.54595,6.24108,-4.87521,-2.80924,-6.41588,6.48124,-14.36485,-0.14912,-0.25054,0.95622,-0.02515,-12.83202,-9.42995,-12.77551
-0.24261,1.32664,-0.06290,-0.86232,-1.21746,-0.71691,6.03691,-5.02502,-2.82501,-5.16213,8.52451,-14.37925,-0.19166,-0.28063,0.94045,-0.00845,-16.43505,-6.88240,-12.52085
-0.25915,1.32018,-0.08834,-0.92788,-1.06213,-0.94341,5.73862,-5.34492,-2.72591,-3.55833,11.35906,-13.99540,-0.23945,-0.30528,0.92166,0.00332,-19.73230,-10.55466,-9.42485
-0.27434,1.31692,-0.11472,-0.96136,-0.89004,-1.14044,5.46242,-5.91515,-2.49799,-1.82925,13.76996,-13.94808,-0.29535,-0.32752,0.89746,0.00764,-26.41311,-32.79229,-8.48908
-0.28835,1.31649,-0.14189,-0.97065,-0.71471,-1.30643,5.16928,-6.52688,-2.30578,0.00922,15.86048,-13.75906,-0.35482,-0.34602,0.86850,0.00925,-31.29075,-44.88790,-14.10324
-0.30036,1.32512,-0.17466,-0.94741,-0.44150,-1.51910,4.69678,-7.30669,-2.13650,3.09250,18.78782,-12.98349,-0.42144,-0.35544,0.83427,0.00583,-33.84679,-44.87666,-21.04886
-0.30963,1.33730,-0.20696,-0.88857,-0.16915,-1.68408,4.18269,-7.76630,-2.12068,5.81036,20.39692,-10.99013,-0.48154,-0.35943,0.79931,0.00545,-32.95345,-29.09551,-26.36404
-0.31573,1.35463,-0.23939,-0.79540,0.12327,-1.81763,3.59936,-7.92670,-2.25444,8.28973,21.79622,-8.54281,-0.53503,-0.35631,0.76597,0.00876,-32.11729,-8.16784,-31.32629
-0.31866,1.37689,-0.27132,-0.67395,0.42768,-1.91423,3.01695,-7.82346,-2.47857,9.54432,21.94241,-5.54016,-0.58173,-0.34802,0.73500,0.01562,-25.48486,16.96250,-31.80449
-0.31862,1.40326,-0.30192,-0.53425,0.72983,-1.97217,2.35503,-7.77920,-2.76995,10.24817,22.03646,-2.90962,-0.62859,-0.33137,0.70328,0.02177,-26.39484,18.97942,-37.27147
-0.31720,1.43128,-0.33101,-0.40520,0.99073,-1.99670,1.68890,-7.91727,-3.11242,10.81170,22.32957,-1.31928,-0.67850,-0.30718,0.66679,0.02595,-29.08655,9.37440,-49.11389
-0.30983,1.46975,-0.35952,-0.21479,1.35028,-2.00559,0.70553,-8.36231,-3.76708,12.93469,23.61749,0.21366,-0.73655,-0.26184,0.62301,0.02807,-32.95817,-10.69466,-68.76575
-0.29942,1.51124,-0.38646,-0.01641,1.68564,-1.99063,-0.16307,-8.69497,-4.46158,15.67484,24.73155,1.93056,-0.79014,-0.20989,0.57502,0.03117,-28.52855,-12.99111,-77.71331
-0.28623,1.55500,-0.41198,0.17920,1.98186,-1.95946,-0.86914,-8.80035,-5.14174,17.70578,25.21693,3.47592,-0.83560,-0.15342,0.52619,0.03687,-18.41008,-3.63915,-79.43293
-0.26586,1.60704,-0.43522,0.43574,2.33119,-1.90029,-1.57714,-8.61721,-6.06299,19.93379,24.90133,5.28737,-0.87210,-0.08317,0.47970,0.04910,-2.13445,9.79605,-83.54492
-0.23688,1.66689,-0.45478,0.76950,2.72926,-1.79944,-2.16441,-7.96398,-7.24728,23.41396,25.48594,8.11433,-0.89444,-0.00113,0.44137,0.07191,22.01541,25.38171,-82.81357
-0.20334,1.72884,-0.47139,1.10665,3.08315,-1.67547,-2.25114,-6.81260,-8.34139,26.16397,24.76297,10.43642,-0.90014,0.07740,0.41492,0.10770,60.85557,44.57491,-77.50108
-0.16903,1.78915,-0.48728,1.37663,3.33026,-1.56818,-2.06434,-5.81319,-9.12378,29.44821,25.07312,11.90504,-0.89740,0.14992,0.38819,0.14664,93.85202,45.70576,-64.63359
-0.11212,1.86417,-0.49414,1.91081,3.73380,-1.35633,-1.56771,-4.33096,-10.42183,38.24242,25.66321,14.77394,-0.87236,0.23648,0.37436,0.20719,107.88250,32.55151,-63.01486
-0.03920,1.94139,-0.49507,2.58541,4.09991,-1.09578,-1.04460,-3.39676,-11.72619,49.64642,22.72871,21.15582,-0.83814,0.32626,0.34541,0.26791,76.42814,-12.30386,-68.42667
0.03134,2.00436,-0.48579,3.34211,4.38364,-0.78371,-0.67712,-2.23746,-13.21391,60.78239,18.82677,25.60523,-0.78044,0.42764,0.31965,0.32536,98.90257,33.55322,-81.18719
0.09859,2.06229,-0.46652,4.23006,4.56226,-0.39971,-0.34856,-1.21184,-15.05988,68.13916,7.76202,30.28703,-0.69524,0.53917,0.28220,0.38249,93.00867,2.09271,-136.40440
0.18957,2.11139,-0.43260,5.41132,4.56740,0.14809,0.78433,0.12508,-17.54115,81.42503,-9.85037,39.34993,-0.55884,0.65058,0.24304,0.45319,95.04904,-10.30976,-153.47980
0.30471,2.14675,-0.38986,6.63723,4.26470,0.72613,3.14194,0.82607,-19.90199,96.22720,-38.14597,45.47171,-0.38153,0.72295,0.19327,0.54261,104.13490,-111.95090,-176.34160
0.44743,2.14468,-0.33292,8.00717,3.40623,1.39424,5.37763,1.04260,-22.69489,99.86549,-89.40718,51.03747,-0.15873,0.76464,0.11691,0.61356,62.66891,-110.04180,-225.56170
0.60107,2.07672,-0.26452,9.21411,1.71661,2.11019,7.42219,1.39628,-25.31617,69.67088,-156.29970,48.52100,0.09213,0.76151,0.03369,0.64069,29.96657,-69.18312,-229.78290
0.71939,1.92303,-0.19468,9.62007,-0.90423,2.73775,9.19364,4.03572,-25.79574,-14.93550,-210.18220,35.31596,0.32438,0.74382,0.01302,0.58425,121.44200,-60.61356,-161.53390
0.76930,1.74068,-0.13968,8.96923,-3.45884,3.10129,12.82362,8.20880,-23.01556,-83.42875,-210.41590,20.24794,0.52123,0.70427,0.11047,0.46916,244.47780,-353.69120,-47.94685
0.71197,1.50748,-0.10915,7.20830,-6.60792,3.20524,20.86530,10.82839,-19.25170,-134.46510,-187.69070,-10.52824,0.73044,0.53357,0.29910,0.30381,211.30500,-367.14040,-390.97920
0.46411,1.27281,-0.18613,2.75998,-10.53705,1.60041,35.19259,5.08480,-17.88346,-206.82620,-74.06259,-112.63970,0.86177,0.04836,0.49174,0.11496,261.90260,105.44070,-595.70140
0.33476,1.03616,-0.26397,-0.06848,-10.60869,-0.11963,33.16435,-1.48536,-18.43909,-182.69520,54.27562,-107.82220,0.79294,-0.43197,0.42807,-0.03746,-17.03442,436.73290,-272.90120
0.20293,1.04165,-0.35045,-2.03973,-9.19065,-1.33141,25.20692,-3.19541,-19.04066,-100.15030,128.74450,-56.14472,0.76635,-0.52104,0.37146,0.05693,-214.21750,492.68810,269.34410
0.32289,0.94321,-0.37623,-2.89241,-7.42075,-1.71436,19.85231,-2.72973,-16.00614,-21.81540,124.31610,-2.43465,0.76186,-0.53517,0.35718,0.07471,-278.33660,229.70930,340.57550
0.39073,0.87674,-0.37569,-3.05132,-5.97136,-1.49126,16.57145,-5.55228,-12.11130,1.79220,89.26864,32.25799,0.69778,-0.56298,0.44011,0.04965,-419.15100,-31.17967,-9.88188
0.40587,0.83216,-0.35553,-2.99249,-4.97048,-0.91397,11.70400,-7.54363,-10.60220,3.77513,52.67467,46.81581,0.61934,-0.58805,0.51114,0.09669,-366.82310,74.30775,-120.32930
0.39982,0.78747,-0.32194,-2.85896,-4.42399,-0.25192,5.54304,-6.12309,-9.27528,6.96517,26.68966,43.54651,0.59738,-0.55011,0.54196,0.21633,-318.04050,307.52240,-49.45250
0.38417,0.73867,-0.28609,-2.71202,-4.15292,0.30319,0.53289,-2.30374,-6.96163,8.31981,21.16152,35.67768,0.63470,-0.45219,0.52735,0.33849,-267.29790,414.84740,121.59400
0.36358,0.69900,-0.24712,-2.58214,-3.84635,0.79457,-2.55495,1.51173,-4.99211,10.50857,20.96573,28.51382,0.67634,-0.35121,0.47791,0.43683,-85.42879,355.55470,102.28830
0.33674,0.66271,-0.21645,-2.50131,-3.58526,1.07237,-3.88076,2.28836,-4.52075,9.34457,24.05923,21.58869,0.66366,-0.31574,0.45854,0.49960,-77.18719,174.11550,42.83804
0.32840,0.66514,-0.17804,-2.24130,-2.83345,1.46815,-5.59509,0.97400,-3.96050,11.74105,26.02736,7.68300,0.61019,-0.28972,0.48714,0.55356,-55.76719,-34.51577,36.09757
0.27785,0.61037,-0.13210,-2.06905,-2.47639,1.54342,-6.18171,0.09433,-2.98629,12.35487,26.55743,2.76271,0.54141,-0.25783,0.50917,0.61737,-56.47155,-32.45200,81.35962
0.25828,0.59363,-0.10969,-1.93730,-2.21936,1.55588,-6.25991,0.35182,-2.09127,10.61804,26.55188,-1.95132,0.52248,-0.22124,0.51740,0.64059,-32.91454,12.99887,92.88731
0.24558,0.59072,-0.09310,-1.73070,-1.81942,1.47962,-5.42771,2.28954,-0.89371,10.29066,19.54933,-7.36535,0.55534,-0.15995,0.48921,0.65321,60.16765,129.02980,11.05413
0.22882,0.58249,-0.08124,-1.61843,-1.56764,1.34812,-4.34794,3.54071,-0.37310,6.46881,17.72845,-11.23496,0.58391,-0.11934,0.45741,0.65999,77.15625,99.42551,-0.37214
0.21000,0.57513,-0.07184,-1.56152,-1.35758,1.21030,-3.34869,4.16441,-0.37406,4.79089,17.68357,-11.11185,0.60572,-0.09580,0.42423,0.66630,88.18244,71.66266,-34.14984
0.19116,0.57726,-0.06739,-1.51967,-1.05077,1.02999,-2.64010,3.61991,-0.43244,2.92034,20.02892,-10.93083,0.61010,-0.09277,0.41382,0.66927,46.05758,-27.22612,-13.65136
0.17174,0.58178,-0.06351,-1.49422,-0.76824,0.87560,-2.16208,2.94178,-0.50424,0.64015,19.71413,-10.99152,0.60849,-0.09366,0.40959,0.67320,30.45804,-57.26493,2.39487
0.15146,0.58567,-0.05969,-1.48675,-0.55680,0.75423,-1.64562,2.65597,-0.89444,-0.40088,15.92273,-9.44763,0.61155,-0.09845,0.39181,0.68029,32.02319,-36.68699,-23.09984
0.13139,0.59326,-0.05748,-1.47798,-0.33496,0.63515,-1.12357,2.17637,-1.52518,2.43554,12.50796,-5.42641,0.61206,-0.11726,0.37117,0.68838,29.76489,-31.44677,-48.75758
0.11922,0.60789,-0.05511,-1.33218,-0.02316,0.53241,-1.31608,1.13511,-1.53229,7.64971,8.93157,-2.41192,0.59410,-0.13055,0.37634,0.69884,-17.27739,-40.81191,13.34000
0.09180,0.61467,-0.04246,-1.18986,0.08568,0.50064,-1.31836,1.48826,-1.51493,11.18381,7.41193,-2.63790,0.58856,-0.11690,0.34744,0.72057,-2.93058,13.59919,1.55094
0.08752,0.62225,-0.03815,-1.00823,0.17936,0.46117,-1.15715,2.25601,-1.52301,13.94342,6.31751,-3.13804,0.59730,-0.09692,0.31759,0.73005,15.17892,49.02050,-6.63099
0.08712,0.62999,-0.03475,-0.80792,0.25592,0.41691,-1.01541,2.97425,-1.47451,14.97733,4.60991,-3.20943,0.60697,-0.07297,0.28622,0.73779,17.20754,53.83035,-5.39497
0.08992,0.63726,-0.03223,-0.60217,0.31004,0.36873,-0.93104,3.50586,-1.36842,15.25196,2.94547,-3.72187,0.61470,-0.04789,0.25712,0.74413,11.53371,42.20668,0.33346
0.09545,0.64359,-0.03072,-0.39834,0.33911,0.31551,-0.88667,3.75236,-1.06751,14.81211,1.22268,-3.96731,0.62015,-0.02219,0.23690,0.74753,10.43127,23.42909,13.48660
0.10310,0.64928,-0.03037,-0.20521,0.35302,0.25609,-0.88197,3.77664,-0.66332,13.50473,0.78907,-4.71929,0.62308,0.00321,0.22456,0.74922,8.03762,5.94634,27.51828
0.11228,0.65476,-0.03161,-0.02941,0.36138,0.18563,-0.85901,3.72410,-0.31558,11.94616,0.41806,-5.48134,0.62527,0.02715,0.21444,0.74988,7.68918,-0.77869,25.18405
0.12247,0.66003,-0.03454,0.12507,0.36466,0.10482,-0.78375,3.58824,-0.00014,10.51125,0.25352,-6.33182,0.62769,0.04910,0.20706,0.74881,9.56297,-5.85396,21.23761
0.13335,0.66540,-0.03910,0.25817,0.36900,0.01684,-0.68696,3.27631,0.39037,9.13480,0.30467,-6.37945,0.62935,0.06851,0.20754,0.74576,14.26833,-16.00080,23.69417
0.14457,0.67101,-0.04472,0.36929,0.37621,-0.06854,-0.63167,2.80914,0.84662,7.23468,0.60509,-5.99488,0.62848,0.08565,0.21662,0.74213,12.85856,-29.93158,32.48227
0.15514,0.67682,-0.05048,0.44690,0.38419,-0.13744,-0.58343,2.42060,1.14424,5.67294,0.81659,-5.53194,0.62718,0.10095,0.22463,0.73892,12.52776,-32.38695,29.59783
0.16789,0.68313,-0.05879,0.54168,0.39822,-0.23036,-0.50739,2.04104,1.33700,4.55861,0.85077,-4.63147,0.62604,0.11316,0.23308,0.73549,8.35995,-22.08503,12.35692
0.17975,0.68939,-0.06612,0.60655,0.40918,-0.29220,-0.50346,1.96435,1.29542,4.20761,0.80744,-4.13314,0.62530,0.12740,0.23135,0.73433,2.26583,-8.72779,0.15058
0.19219,0.69586,-0.07415,0.66608,0.42060,-0.35138,-0.50167,1.98532,1.16174,4.10815,0.91099,-4.27713,0.62525,0.14162,0.22527,0.73367,-0.70778,0.22564,-9.04417
0.20521,0.70263,-0.08306,0.72207,0.43436,-0.41163,-0.49275,2.03039,1.05460,3.94178,1.05224,-4.42243,0.62546,0.15636,0.21847,0.73254,-1.18946,2.75204,-8.76340
0.21887,0.70968,-0.09300,0.77641,0.44957,-0.47476,-0.46032,2.12196,0.95560,4.02215,1.13042,-4.66771,0.62657,0.17190,0.21018,0.73054,-0.25630,5.48853,-8.14182
0.23346,0.71688,-0.10396,0.83256,0.46336,-0.53955,-0.40019,2.22802,0.94197,4.13927,0.78406,-4.69915,0.62829,0.18935,0.20280,0.72682,2.74863,7.31299,-3.34803
0.23312,0.72143,-0.11564,0.85513,0.46762,-0.60314,-0.29877,2.34979,0.98601,4.06251,0.55025,-4.89273,0.63106,0.20851,0.19632,0.72093,5.90074,8.90891,0.89822
0.23091,0.72532,-0.12750,0.87027,0.47146,-0.66910,-0.12314,2.49907,1.08481,3.87224,0.89874,-4.95534,0.63584,0.22948,0.19073,0.71181,11.55454,11.31766,3.45356
