posX, posY, posZ, velX, velY, velZ, angVelX, angVelY, angVelZ, accX, accY, accZ, rotX, rotY, rotZ, rotW, angAccX, angAccY, angAccZ
0.27104,1.22326,-0.40429,-0.01312,0.01729,-0.05218,0.17916,0.30655,-0.13677,-0.44730,0.91083,0.33053,0.07024,0.87262,-0.04544,0.48118,0.73097,-0.55469,1.39367
0.27043,1.22449,-0.40476,-0.02086,0.03489,-0.04685,0.24166,0.30274,-0.11331,-0.52017,1.26772,0.29703,0.07185,0.87370,-0.04302,0.47920,3.66936,-0.44570,2.05041
0.26977,1.22618,-0.40524,-0.02791,0.05650,-0.04273,0.33416,0.30228,-0.11735,-0.57719,1.89708,0.23303,0.07467,0.87482,-0.03980,0.47701,5.85936,0.22045,-0.49740
0.26881,1.22874,-0.40577,-0.03847,0.08807,-0.04068,0.44436,0.31127,-0.10141,-1.01056,2.62260,0.06326,0.07756,0.87611,-0.03533,0.47451,7.36441,0.52736,0.52606
0.26742,1.23192,-0.40635,-0.05312,0.12138,-0.04033,0.54533,0.30516,-0.06334,-1.42376,3.02073,0.04079,0.08003,0.87728,-0.02994,0.47231,8.43654,0.21522,2.52867
0.26530,1.23669,-0.40698,-0.07693,0.17444,-0.04005,0.75050,0.25657,-0.00049,-1.55970,3.64251,-0.11344,0.08344,0.87795,-0.02072,0.47097,10.93266,-2.95821,3.59781
0.26312,1.24190,-0.40762,-0.09610,0.22190,-0.04051,1.05830,0.23962,0.01797,-1.70428,4.03412,-0.34991,0.08972,0.87878,-0.00802,0.46865,19.81803,-3.20303,2.10087
0.26007,1.24914,-0.40846,-0.12528,0.29223,-0.04458,1.70855,0.32987,-0.03830,-1.97190,4.51412,-0.62593,0.10346,0.88055,0.01420,0.46230,37.82568,4.18365,-2.83842
0.25643,1.25738,-0.40964,-0.15894,0.36561,-0.05313,2.43639,0.47970,-0.38474,-1.92849,5.69625,-1.72801,0.12758,0.88167,0.03778,0.45271,46.55186,8.23233,-20.73891
0.25242,1.26585,-0.41100,-0.18976,0.42370,-0.06288,3.06063,0.64755,-0.17564,-3.18471,5.50115,-1.14186,0.14056,0.88375,0.06983,0.44085,55.65866,16.83050,2.47984
0.24675,1.27714,-0.41361,-0.24119,0.51488,-0.09094,3.50775,0.91442,-0.11468,-3.65300,5.82416,-1.60953,0.15588,0.88633,0.09916,0.42461,29.76633,20.66021,5.56207
0.24015,1.28874,-0.41660,-0.29727,0.59156,-0.11885,3.75197,1.03287,0.00288,-4.32496,5.53290,-2.11947,0.16779,0.88717,0.12690,0.41070,19.52148,7.24607,7.52351
0.23332,1.30014,-0.41971,-0.34197,0.64448,-0.14172,3.86624,1.13668,0.11040,-4.55908,5.31927,-2.31905,0.17811,0.88766,0.15292,0.39617,15.28029,5.95298,11.01231
0.22407,1.31404,-0.42408,-0.41481,0.72492,-0.17938,3.97370,1.31314,0.27360,-4.60551,4.87804,-2.24041,0.18653,0.88872,0.18001,0.37813,8.43720,8.90061,12.14197
0.21446,1.32799,-0.42858,-0.47831,0.78941,-0.21154,3.96805,1.43788,0.40367,-4.59611,4.44671,-2.17035,0.19364,0.88922,0.20449,0.36052,2.54502,6.81933,11.45149
0.20343,1.34289,-0.43374,-0.55151,0.85536,-0.24747,3.85487,1.50147,0.57423,-4.81496,3.79860,-1.86741,0.19745,0.88963,0.22677,0.34372,-7.70551,5.09872,11.56989
0.19242,1.35724,-0.43891,-0.60711,0.89674,-0.27574,3.58300,1.59853,0.62810,-4.29290,3.82658,-2.49730,0.20139,0.89074,0.24305,0.32703,-8.82345,-5.33033,7.55421
0.18040,1.37250,-0.44469,-0.66606,0.94317,-0.30639,3.32953,1.69605,0.73364,-4.34593,2.89156,-2.11602,0.20298,0.89244,0.25825,0.30929,-21.21847,5.16868,13.93685
0.16751,1.38782,-0.45046,-0.72590,0.97988,-0.32979,3.21597,1.87499,0.78553,-4.42053,2.29938,-1.56507,0.20688,0.89379,0.27444,0.28814,-10.82113,9.03639,7.69369
0.15375,1.40317,-0.45597,-0.78607,1.00755,-0.34436,3.19094,2.09517,0.81502,-4.32517,1.69339,-0.76247,0.21219,0.89458,0.29148,0.26409,-3.02353,14.24183,6.29468
0.13931,1.41842,-0.46106,-0.84371,1.02748,-0.34877,3.20130,2.30793,0.84187,-4.00236,1.11858,0.15968,0.21793,0.89462,0.30883,0.23831,1.41476,16.17006,4.92239
0.12393,1.43351,-0.46568,-0.90412,1.04025,-0.34457,3.04743,2.37322,0.87166,-3.60396,0.38705,0.74432,0.22124,0.89466,0.32242,0.21604,-7.50455,5.25377,4.64227
0.10861,1.44807,-0.46990,-0.95115,1.04212,-0.33451,2.83524,2.36288,0.85727,-3.30100,-0.13200,0.89193,0.22424,0.89443,0.33339,0.19638,-15.37039,-2.25333,1.87089
0.09290,1.46235,-0.47358,-0.99375,1.03906,-0.31747,2.70032,2.40942,0.81786,-3.00244,-0.25566,1.35505,0.22860,0.89360,0.34425,0.17524,-12.01429,1.49919,-1.03932
0.07701,1.47644,-0.47678,-1.02850,1.03331,-0.29678,2.64416,2.48321,0.79694,-2.87578,-0.64032,1.95838,0.23332,0.89198,0.35593,0.15248,-6.03769,5.82628,-0.08650
0.06037,1.48987,-0.47896,-1.07075,1.02038,-0.26147,2.54901,2.55525,0.77143,-2.51770,-0.97035,2.59992,0.23806,0.89032,0.36585,0.12965,-5.48957,5.42929,-0.20668
0.04368,1.50305,-0.48066,-1.10375,1.00553,-0.22614,2.38402,2.52151,0.77443,-2.24708,-1.20592,2.78130,0.24078,0.88890,0.37399,0.10960,-9.75028,-0.87135,1.02644
0.02662,1.51594,-0.48168,-1.13339,0.98795,-0.18896,2.15102,2.45450,0.77414,-2.08648,-1.39536,2.74979,0.24251,0.88817,0.37944,0.09145,-16.28661,-6.86114,2.56377
0.00958,1.52849,-0.48234,-1.15540,0.96978,-0.15457,1.98171,2.43165,0.76992,-1.78015,-1.65626,2.99608,0.24464,0.88709,0.38466,0.07250,-14.52723,-3.67584,1.41459
-0.00779,1.54035,-0.48191,-1.17745,0.94503,-0.11055,1.80236,2.38761,0.75802,-1.45058,-1.81175,3.43728,0.24651,0.88617,0.38850,0.05472,-13.21451,-2.71792,0.58450
-0.02551,1.55167,-0.48002,-1.19999,0.91583,-0.05267,1.61946,2.29170,0.76933,-1.40724,-1.85214,3.91425,0.24704,0.88550,0.39161,0.03867,-12.02357,-5.90070,1.62658
-0.04327,1.56299,-0.47789,-1.21753,0.89209,-0.00538,1.50670,2.18851,0.81130,-1.46294,-2.07734,3.97154,0.24637,0.88441,0.39574,0.02285,-8.58966,-9.64942,2.98322
-0.06131,1.57357,-0.47464,-1.23531,0.86225,0.04852,1.43426,2.14387,0.85308,-1.17206,-2.11753,3.60549,0.24572,0.88303,0.39981,0.00595,-6.23760,-6.69118,4.06656
-0.07908,1.58355,-0.47032,-1.24438,0.82828,0.10749,1.42991,2.25065,0.84275,-0.24177,-2.18716,3.59812,0.24784,0.88047,0.40389,-0.01474,-0.97947,5.20087,1.25921
-0.09633,1.59348,-0.46607,-1.24275,0.80077,0.15086,1.44163,2.33690,0.80530,0.47768,-2.55676,3.67001,0.25081,0.87705,0.40819,-0.03539,1.20724,8.94575,-1.77737
-0.11291,1.60224,-0.46043,-1.23047,0.75998,0.20653,1.35253,2.32568,0.69679,1.11688,-2.69836,3.55742,0.25491,0.87402,0.41033,-0.05228,-5.55086,0.79907,-5.53351
-0.12909,1.61058,-0.45460,-1.21490,0.72249,0.25463,1.24633,2.25836,0.60889,1.15674,-2.74135,3.44118,0.25838,0.87125,0.41188,-0.06717,-8.22250,-4.06831,-6.23606
-0.14507,1.61835,-0.44814,-1.19980,0.68436,0.30137,1.12685,2.17047,0.56442,1.07081,-2.70070,3.30013,0.26078,0.86897,0.41268,-0.08107,-8.52271,-6.57234,-3.05508
-0.16090,1.62593,-0.44141,-1.18606,0.65229,0.34146,1.07826,2.14482,0.53388,1.13884,-2.56284,3.25400,0.26349,0.86590,0.41413,-0.09639,-6.63889,-4.27946,-1.84353
-0.17598,1.63238,-0.43354,-1.16296,0.60998,0.39312,1.08842,2.20814,0.47304,1.64569,-2.65840,3.11085,0.26800,0.86146,0.41607,-0.11379,-0.42471,2.74892,-2.51351
-0.19041,1.63859,-0.42570,-1.13452,0.57325,0.43483,1.12774,2.30694,0.38440,2.29066,-2.61714,2.93185,0.27406,0.85579,0.41837,-0.13222,1.87297,7.51981,-5.56443
-0.20415,1.64433,-0.41749,-1.10097,0.53700,0.47285,1.11909,2.36343,0.29639,2.55117,-2.71056,2.72935,0.28044,0.85018,0.41974,-0.14956,-0.62230,6.14648,-6.44839
-0.21739,1.64957,-0.40881,-1.06656,0.49974,0.50897,1.05085,2.34577,0.24055,2.58924,-2.74845,2.72157,0.28586,0.84543,0.41993,-0.16490,-4.63686,-0.20667,-3.61271
-0.22988,1.65392,-0.39926,-1.02693,0.45553,0.55267,0.98657,2.27435,0.20680,2.56252,-2.87557,2.86638,0.29033,0.84095,0.42020,-0.17873,-4.27108,-3.94956,-1.99628
-0.24231,1.65823,-0.38969,-0.99547,0.42116,0.58544,0.94053,2.18226,0.17671,2.85077,-2.89950,2.72516,0.29435,0.83640,0.42084,-0.19154,-3.78825,-6.74026,-1.60158
-0.25492,1.66148,-0.38110,-0.95747,0.38349,0.61845,0.90069,2.07092,0.10635,3.24484,-2.61549,2.50779,0.29906,0.83165,0.42187,-0.20236,-4.08552,-7.02447,-4.73244
-0.26673,1.66411,-0.37225,-0.91163,0.34377,0.65049,0.87035,1.96595,0.00963,3.07315,-2.39632,1.96197,0.30451,0.82652,0.42328,-0.21207,-2.39108,-8.12782,-5.88075
-0.27743,1.66701,-0.36227,-0.87033,0.31290,0.67426,0.91776,2.04613,-0.10049,2.58518,-1.89309,1.48134,0.31231,0.81900,0.42501,-0.22599,-0.52367,1.25431,-7.51505
-0.28779,1.67030,-0.35147,-0.83921,0.29111,0.69293,1.04024,2.30127,-0.15843,2.27979,-1.65171,1.26121,0.32129,0.80882,0.42677,-0.24587,7.39358,16.63815,-6.78145
-0.29766,1.67330,-0.34038,-0.80761,0.26962,0.71099,1.18215,2.63170,-0.16087,2.42386,-1.61262,1.15491,0.33043,0.79672,0.42789,-0.27009,11.44757,25.34986,-1.53735
-0.30669,1.67583,-0.32904,-0.76896,0.24496,0.72966,1.20758,2.75260,-0.07348,2.51927,-1.47707,0.92273,0.33616,0.78703,0.42746,-0.29131,3.28606,8.84111,4.59869
-0.31587,1.67855,-0.31807,-0.74238,0.23024,0.73961,1.12894,2.65700,0.01483,2.40172,-1.37896,0.66014,0.33960,0.78016,0.42625,-0.30713,-2.87956,-5.98414,7.18625
-0.32416,1.68102,-0.30696,-0.70751,0.21503,0.74898,1.03208,2.54924,0.10296,2.68626,-0.90647,0.56939,0.34228,0.77416,0.42417,-0.32188,-7.12975,-9.08035,7.84027
-0.33163,1.68328,-0.29597,-0.66742,0.20185,0.75686,0.98758,2.46678,0.16953,3.02470,-1.00473,0.47756,0.34468,0.76752,0.42266,-0.33686,-2.01913,-5.64582,4.80317
-0.33837,1.68538,-0.28480,-0.62523,0.18813,0.76330,0.91215,2.31139,0.23950,3.21090,-1.06861,0.32009,0.34583,0.76231,0.42087,-0.34949,-3.89352,-9.79046,4.81601
-0.34443,1.68725,-0.27369,-0.58152,0.17408,0.76756,0.83327,2.11162,0.28726,3.15848,-1.01116,0.13199,0.34627,0.75806,0.41942,-0.35990,-4.82671,-14.88161,4.10599
-0.34978,1.68892,-0.26273,-0.53641,0.16064,0.76937,0.81104,1.96507,0.31321,3.14790,-0.87851,-0.00744,0.34662,0.75309,0.41877,-0.37060,-2.99683,-12.33550,2.23342
-0.35445,1.69039,-0.25181,-0.49112,0.14690,0.76866,0.80731,1.85342,0.31484,3.24198,-1.01287,-0.24617,0.34721,0.74764,0.41854,-0.38120,0.25415,-8.24631,0.31186
-0.35875,1.69181,-0.24106,-0.45074,0.13596,0.76618,0.80823,1.78995,0.28193,3.36849,-0.83101,-0.29309,0.34878,0.74144,0.41843,-0.39183,-0.72584,-5.73283,-2.18681
-0.36169,1.69278,-0.23045,-0.39768,0.12043,0.76231,0.86166,1.72602,0.20884,3.23474,-1.03301,-0.32453,0.35063,0.73411,0.42019,-0.40198,3.17378,-4.21817,-4.96036
-0.36403,1.69351,-0.21986,-0.34621,0.10415,0.75787,0.94371,1.65889,0.12434,3.21075,-0.92295,-0.40442,0.35234,0.72612,0.42316,-0.41176,3.48924,-3.86112,-5.55555
-0.36654,1.69427,-0.20942,-0.30898,0.09219,0.75313,1.01146,1.58084,0.06630,3.06541,-1.06390,-0.59933,0.35345,0.71828,0.42643,-0.42109,6.13066,-4.42384,-6.50924
-0.36839,1.69471,-0.19955,-0.26874,0.07845,0.74168,1.05450,1.45961,0.02262,2.85845,-0.96743,-1.10153,0.35382,0.71120,0.43017,-0.42890,3.41682,-8.14045,-4.80219
-0.36978,1.69504,-0.19025,-0.23049,0.06621,0.72300,1.06114,1.33609,-0.00985,2.62013,-0.81901,-1.60374,0.35402,0.70482,0.43360,-0.43576,0.52250,-9.09050,-2.67474
-0.37078,1.69529,-0.18161,-0.19461,0.05533,0.69806,1.05235,1.24467,-0.01757,2.45729,-0.78444,-1.99990,0.35399,0.69873,0.43643,-0.44272,-0.70442,-7.10384,-1.62656
-0.37114,1.69528,-0.17385,-0.15577,0.04279,0.66385,1.00356,1.12420,-0.03334,2.47303,-0.83138,-2.33675,0.35407,0.69360,0.43899,-0.44815,-2.13483,-5.60700,-1.14982
-0.37143,1.69531,-0.16637,-0.12433,0.03368,0.63260,0.91729,0.96123,-0.01417,2.18987,-0.54409,-2.19152,0.35325,0.69033,0.44085,-0.45202,-6.88019,-10.73277,1.04165
-0.37164,1.69525,-0.15921,-0.09672,0.02471,0.60391,0.87896,0.78898,-0.00391,1.84258,-0.62260,-2.03488,0.35151,0.68730,0.44383,-0.45506,-3.55061,-13.35866,0.52682
-0.37246,1.69508,-0.15239,-0.07540,0.01561,0.57542,0.87048,0.68036,0.01218,1.48972,-0.44955,-2.03638,0.34958,0.68379,0.44690,-0.45881,-1.44255,-9.31016,0.01693
-0.37313,1.69488,-0.14597,-0.05708,0.00830,0.54691,0.89772,0.64591,0.03592,1.44454,-0.63680,-2.17943,0.34755,0.67927,0.44995,-0.46405,2.36416,-2.54102,1.25421
-0.37322,1.69456,-0.13986,-0.04094,0.00096,0.52102,0.89065,0.57756,0.03280,1.49208,-0.70273,-2.28013,0.34576,0.67542,0.45313,-0.46790,0.62677,-3.93357,0.83332
-0.37269,1.69402,-0.13449,-0.02270,-0.00836,0.48971,0.86650,0.46115,0.02447,1.20973,-0.61253,-2.21128,0.34347,0.67267,0.45669,-0.47009,-1.69202,-8.84432,-0.91435
-0.37191,1.69331,-0.12974,-0.00430,-0.01833,0.45489,0.89079,0.38157,0.00336,1.03200,-0.69488,-2.26450,0.34104,0.66901,0.46115,-0.47271,0.96808,-5.23244,-1.80134
-0.37121,1.69262,-0.12504,0.00852,-0.02557,0.42731,0.90076,0.31610,-0.02306,1.14890,-0.52224,-2.41375,0.33881,0.66540,0.46561,-0.47504,1.43494,-5.19361,-1.15512
-0.37018,1.69182,-0.12122,0.02355,-0.03287,0.39195,0.88346,0.22489,-0.05864,1.09776,-0.42858,-2.63807,0.33668,0.66251,0.47021,-0.47604,-0.80641,-5.51300,-3.19478
-0.36905,1.69102,-0.11803,0.03671,-0.03858,0.35446,0.84770,0.12395,-0.10230,0.77901,-0.54622,-2.81764,0.33477,0.66020,0.47493,-0.47593,-1.69474,-7.10579,-3.99606
-0.36786,1.69018,-0.11548,0.04798,-0.04355,0.31497,0.81533,0.08128,-0.15164,0.71770,-0.16361,-2.83709,0.33370,0.65733,0.47936,-0.47621,-3.46411,-4.46183,-3.71383
-0.36654,1.68937,-0.11379,0.05880,-0.04701,0.26995,0.80212,0.09442,-0.21239,0.53954,-0.21499,-2.81100,0.33355,0.65337,0.48385,-0.47722,-0.80739,0.72841,-3.98988
-0.36543,1.68857,-0.11173,0.06365,-0.04934,0.24195,0.78981,0.06680,-0.23781,0.61495,-0.27822,-2.91884,0.33248,0.65014,0.48838,-0.47777,0.01296,1.48422,-2.94650
-0.36427,1.68770,-0.11116,0.06797,-0.05239,0.19649,0.69777,-0.11842,-0.25117,0.17108,-0.28456,-2.92717,0.33011,0.65055,0.49287,-0.47423,-5.60807,-10.33192,-1.92104
-0.36342,1.68673,-0.11145,0.06622,-0.05650,0.14496,0.58943,-0.31494,-0.25329,-0.48306,-0.16108,-2.81624,0.32730,0.65229,0.49702,-0.46943,-6.77806,-12.25441,-0.60567
-0.36288,1.68576,-0.11171,0.05931,-0.05971,0.10502,0.56274,-0.32969,-0.21809,-0.78039,-0.28026,-2.88768,0.32493,0.65163,0.50043,-0.46838,-2.42137,-2.81280,1.61428
-0.36265,1.68475,-0.11240,0.04979,-0.06294,0.06892,0.51631,-0.33657,-0.16459,-0.77762,-0.34340,-3.16259,0.32244,0.65151,0.50290,-0.46761,-2.34321,0.17005,4.35931
-0.36504,1.68704,-0.11442,-0.00785,-0.00985,0.00117,0.40815,-0.33934,-0.12043,-0.73900,-0.35319,-3.29676,0.32093,0.65252,0.50384,-0.46622,-6.93609,-0.60370,3.32904
-0.36434,1.68667,-0.11331,-0.00700,-0.00720,0.00122,0.29425,-0.30297,-0.09999,-0.62842,-0.48818,-3.35660,0.32067,0.65333,0.50398,-0.46512,-8.00344,1.68140,2.01241
-0.36377,1.68622,-0.11301,-0.00679,-0.00376,0.00164,0.14182,-0.29478,-0.08918,-0.58245,-0.43339,-3.49428,0.32116,0.65532,0.50312,-0.46291,-9.83665,1.97552,0.36021
-0.36336,1.68581,-0.11355,-0.00653,0.00005,0.00214,-0.02318,-0.28664,-0.06445,-0.68111,-0.20537,-3.35631,0.32205,0.65823,0.50099,-0.46046,-13.44799,-0.40918,1.24006
-0.36295,1.68537,-0.11508,-0.00517,0.00385,0.00227,-0.18406,-0.22995,-0.02851,-0.68505,-0.00231,-2.92601,0.32388,0.66115,0.49737,-0.45892,-12.33696,2.87331,2.25135
-0.36290,1.68477,-0.11775,-0.00285,0.00738,0.00205,-0.32160,-0.13534,0.04025,-0.30994,0.22269,-2.17496,0.32581,0.66388,0.49243,-0.45894,-9.55555,5.97546,4.06200
-0.36308,1.68427,-0.12034,-0.00065,0.00835,0.00146,-0.36077,-0.03743,0.05470,0.21250,0.35174,-1.33359,0.32793,0.66488,0.48914,-0.45950,-5.17863,6.90562,2.27010
-0.36322,1.68382,-0.12291,0.00154,0.00800,0.00067,-0.35408,0.06627,0.02494,0.87170,0.33334,-0.49228,0.33080,0.66447,0.48688,-0.46045,-0.08291,8.09066,-1.02641
-0.36314,1.68330,-0.12423,0.00218,0.00692,0.00027,-0.32576,0.10439,-0.04074,1.48705,0.85688,0.40951,0.33358,0.66386,0.48610,-0.46013,1.34381,4.78229,-4.16684
-0.36278,1.68284,-0.12603,0.00050,0.00589,0.00064,-0.30182,0.03767,-0.11074,1.62321,1.59327,1.29807,0.33524,0.66438,0.48669,-0.45755,1.90071,-4.43251,-5.42936
-0.36196,1.68234,-0.12801,-0.00044,0.00369,0.00063,-0.22475,0.00427,-0.18156,2.04362,2.42934,2.34672,0.33667,0.66366,0.48849,-0.45561,3.39537,-3.84577,-4.55468
-0.36063,1.68175,-0.12905,-0.00099,-0.00037,0.00027,-0.06671,-0.01006,-0.26190,2.39439,2.55504,3.53002,0.33739,0.66098,0.49255,-0.45461,9.79832,-1.18202,-5.96235
-0.35835,1.68108,-0.12790,-0.00093,-0.00875,-0.00088,0.27078,0.01076,-0.39223,3.08520,2.31232,5.06223,0.33698,0.65393,0.50147,-0.45535,18.82284,1.18696,-7.01105
-0.35551,1.68042,-0.12370,-0.00246,-0.01951,-0.00204,0.70061,-0.02843,-0.57273,3.47180,1.60615,5.92617,0.33494,0.64411,0.51522,-0.45550,28.78981,-0.44454,-12.34182
-0.35234,1.67990,-0.11796,-0.00645,-0.02907,-0.00256,1.07965,-0.17314,-0.75208,3.57710,1.48801,6.05985,0.33110,0.63440,0.53168,-0.45302,32.32940,-8.80611,-14.28369
-0.34704,1.67962,-0.10792,-0.01555,-0.03952,-0.00247,1.49660,-0.52868,-0.96384,3.15360,1.52842,5.64745,0.32293,0.62494,0.55381,-0.44549,26.25749,-21.37597,-14.79168
-0.34168,1.67937,-0.09861,-0.02433,-0.04690,-0.00273,1.80373,-0.87121,-1.10841,2.60205,1.50884,5.01380,0.31336,0.61651,0.57546,-0.43654,21.54895,-24.67811,-13.10639
-0.33585,1.67907,-0.08925,-0.03205,-0.05306,-0.00403,2.08219,-1.16672,-1.20146,2.02617,1.26485,4.18905,0.30201,0.60754,0.59756,-0.42733,18.90664,-23.50848,-9.16871
-0.33072,1.67856,-0.08075,-0.03788,-0.05779,-0.00605,2.30934,-1.38065,-1.27009,1.81612,1.06331,3.42164,0.29032,0.59769,0.61929,-0.41829,18.45009,-19.05057,-6.12730
-0.32345,1.67762,-0.06751,-0.04483,-0.06230,-0.00962,2.55028,-1.62711,-1.34658,1.31264,0.73036,2.30201,0.27640,0.58689,0.64276,-0.40746,15.02505,-16.78442,-5.67447
-0.31695,1.67611,-0.05284,-0.04920,-0.06501,-0.01370,2.72880,-1.77425,-1.38060,0.97091,0.69209,1.40959,0.26276,0.57544,0.66466,-0.39757,12.10774,-12.24846,-4.45023
-0.31168,1.67429,-0.04118,-0.05300,-0.06591,-0.01728,2.83130,-1.91213,-1.39097,0.76402,0.65003,0.75939,0.24858,0.56454,0.68543,-0.38690,9.84539,-10.44278,-1.85806
-0.30525,1.67115,-0.02525,-0.05918,-0.06507,-0.02178,2.89213,-2.16641,-1.38663,0.24752,0.42678,0.36522,0.23125,0.55537,0.70627,-0.37318,2.52877,-15.52745,-2.17265
-0.30029,1.66757,-0.01120,-0.06554,-0.06321,-0.02583,2.90620,-2.44577,-1.38904,0.08199,0.23341,0.16156,0.21261,0.54723,0.72638,-0.35738,0.85347,-18.58676,-2.84206
-0.29674,1.66381,0.00055,-0.07141,-0.06086,-0.02949,2.89181,-2.70840,-1.41278,-0.13346,0.00070,0.13776,0.19327,0.53941,0.74589,-0.33962,-2.65480,-20.86547,-5.87593
-0.29303,1.65866,0.01397,-0.07739,-0.05855,-0.03492,2.91342,-2.97551,-1.46754,-0.21605,-0.34549,-0.02147,0.17239,0.53063,0.76586,-0.31964,-0.75820,-19.72026,-7.77146
-0.28927,1.65166,0.02973,-0.08111,-0.05621,-0.04244,2.98360,-3.15436,-1.52449,-0.03939,-0.89423,-0.47777,0.15145,0.51949,0.78563,-0.29997,4.03685,-12.17568,-4.84874
-0.28641,1.64338,0.04549,-0.08320,-0.05359,-0.05071,3.07633,-3.26621,-1.59593,0.16401,-1.30916,-0.58515,0.13102,0.50638,0.80494,-0.28015,5.18653,-7.01033,-4.55039
-0.28482,1.63603,0.05628,-0.08513,-0.05063,-0.05696,3.12912,-3.35540,-1.69403,0.29089,-1.78455,-1.15866,0.11124,0.49268,0.82335,-0.25884,7.31458,-5.86558,-6.23651
-0.28343,1.62538,0.07873,-0.09057,-0.04427,-0.06522,3.15347,-3.53213,-1.98113,0.22602,-2.18664,-1.49411,0.09224,0.47838,0.84238,-0.23032,3.96173,-8.23805,-17.26105
-0.28243,1.61487,0.09817,-0.09567,-0.03680,-0.07252,3.16610,-3.65308,-2.32304,0.00966,-1.99234,-1.71501,0.07523,0.46277,0.86063,-0.19873,4.53444,-5.36698,-25.26502
-0.28180,1.60472,0.11446,-0.09737,-0.03139,-0.08010,3.28468,-3.67618,-2.55230,-0.38003,-1.74754,-1.54791,0.05832,0.44336,0.87837,-0.16882,9.76804,-1.31325,-22.65180
-0.28061,1.58945,0.13704,-0.09400,-0.02602,-0.09108,3.56644,-3.58316,-2.65732,-0.50248,-1.74437,-2.13179,0.04148,0.41786,0.89631,-0.14249,18.79519,2.25520,-4.33957
-0.28057,1.57415,0.15701,-0.08622,-0.02218,-0.09929,3.83613,-3.37932,-2.57603,-0.22163,-1.72314,-2.36906,0.02544,0.39023,0.91223,-0.12208,19.53382,7.73943,10.08108
-0.28147,1.55968,0.17378,-0.07768,-0.01923,-0.10499,4.05604,-3.16811,-2.42107,-0.05609,-1.73187,-2.25847,0.00973,0.36148,0.92644,-0.10466,18.82311,10.70975,17.41708
-0.28339,1.53870,0.19538,-0.06583,-0.01520,-0.11099,4.32247,-2.89085,-2.16785,0.06229,-1.75878,-1.76154,-0.00493,0.32927,0.93970,-0.09227,16.17960,11.47849,20.86019
-0.28593,1.51864,0.20398,-0.05471,-0.01220,-0.11515,4.49035,-2.73335,-1.84370,0.10193,-2.02473,-1.54195,-0.02222,0.29812,0.95072,-0.08222,9.78324,3.81921,28.04120
-0.28938,1.50058,0.21075,-0.04667,-0.00845,-0.11771,4.57525,-2.64858,-1.62358,-0.03205,-2.40812,-1.48658,-0.03967,0.26769,0.96008,-0.07087,6.12500,1.13198,23.63828
-0.29437,1.47870,0.21770,-0.04068,-0.00153,-0.12041,4.65809,-2.59818,-1.54096,-0.03566,-2.85674,-1.41205,-0.05644,0.23621,0.96839,-0.05687,4.45992,0.47994,11.92650
-0.30081,1.45237,0.22446,-0.03728,0.00955,-0.12315,4.78680,-2.53922,-1.64609,-0.79940,-3.50913,-2.02967,-0.07088,0.20241,0.97599,-0.03803,7.80949,4.45562,-2.58193
-0.30624,1.43139,0.22792,-0.03370,0.01742,-0.12703,4.98417,-2.54395,-1.67129,-1.78321,-3.76290,-2.66544,-0.08738,0.16544,0.98214,-0.01994,13.56915,2.33323,-4.15163
-0.31361,1.40501,0.23115,-0.02550,0.02445,-0.13421,5.30765,-2.66826,-1.49466,-2.13135,-3.85389,-3.87832,-0.10936,0.12271,0.98638,-0.00616,19.91265,-11.25670,8.73825
-0.32508,1.37287,0.23290,-0.01287,0.03238,-0.14330,5.70373,-2.91294,-1.17028,-2.03407,-3.72839,-5.03382,-0.13664,0.07545,0.98774,0.00327,19.33130,-23.24699,17.98830
-0.33898,1.33784,0.23174,0.00234,0.04162,-0.15157,6.09547,-3.22018,-0.78984,-1.86057,-3.01778,-6.40059,-0.16699,0.02554,0.98558,0.00995,19.35085,-27.65771,17.65139
-0.35074,1.31005,0.22728,0.01561,0.04942,-0.15667,6.34886,-3.51570,-0.47623,-2.05339,-1.83514,-7.61328,-0.19826,-0.02370,0.97973,0.01602,18.97700,-30.19747,19.80832
-0.36680,1.27655,0.21894,0.03518,0.05854,-0.16252,6.53749,-4.09236,-0.05900,-1.88581,0.75058,-9.07831,-0.23942,-0.07347,0.96797,0.01779,10.27334,-45.34331,15.66868
-0.38279,1.24767,0.20840,0.05578,0.06556,-0.16531,6.50224,-4.78024,0.29821,-1.68549,3.21363,-10.20695,-0.28677,-0.11802,0.95054,0.01769,-1.69128,-59.19459,5.00481
-0.41012,1.21074,0.19438,0.08719,0.07375,-0.16338,6.10980,-5.92877,0.58437,-0.78639,6.74095,-11.13965,-0.35066,-0.15158,0.92403,0.01507,-17.21729,-71.98955,-13.40603
-0.43849,1.18217,0.17833,0.11422,0.07987,-0.15367,5.54211,-6.90115,0.53265,1.24316,8.98854,-10.34598,-0.41478,-0.17537,0.89269,0.01721,-28.31946,-69.29588,-37.85287
-0.46440,1.16154,0.16034,0.13334,0.08376,-0.13864,4.98973,-7.52149,0.25512,2.18750,10.56439,-8.65108,-0.47383,-0.19313,0.85884,0.02423,-25.35478,-46.09677,-54.19014
-0.49559,1.14173,0.13486,0.15384,0.08214,-0.11528,4.19319,-8.15751,-0.21692,4.17423,15.34500,-7.28846,-0.53616,-0.19767,0.81997,0.03325,-9.49478,-43.12287,-40.00509
-0.53223,1.12897,0.10194,0.17513,0.05852,-0.07915,2.49149,-8.96821,-1.11815,5.38773,15.95984,-5.75849,-0.60661,-0.16401,0.77673,0.04274,-58.86755,-29.18822,-115.12000
-0.56424,1.12756,0.06982,0.18618,0.02962,-0.04448,1.00753,-9.48262,-2.09768,9.76517,19.25057,-6.69178,-0.67107,-0.12229,0.72923,0.05425,-53.89286,-25.52283,-119.59120
-0.59522,1.13486,0.03626,0.18951,-0.00444,-0.00872,-0.37807,-9.87839,-3.19246,15.59034,23.68844,-8.27054,-0.73093,-0.06882,0.67556,0.06804,-37.07864,-12.10085,-123.27100
-0.62479,1.15216,-0.00359,0.19106,-0.03978,0.02883,-1.50437,-10.66945,-4.75308,27.01358,29.48672,-8.65025,-0.79510,-0.00180,0.59917,0.09386,16.15311,-111.14510,-141.52450
-0.64892,1.17606,-0.04831,0.16526,-0.08512,0.06998,-2.92138,-10.52810,-5.90581,35.46564,31.04123,-4.32452,-0.83499,0.07833,0.53464,0.10402,-72.88472,58.94625,-91.88493
-0.66966,1.21560,-0.10182,0.10473,-0.10483,0.09165,-2.90767,-9.64248,-7.70663,40.54905,27.04351,3.61439,-0.85152,0.15356,0.47729,0.15336,53.16285,10.65199,-95.88472
-0.67999,1.26041,-0.14548,0.02897,-0.09181,0.07230,-1.29646,-8.00125,-9.64047,44.33179,27.18392,8.72151,-0.83925,0.21137,0.43808,0.24303,180.20630,19.04068,-64.65844
-0.68480,1.30795,-0.16899,-0.03916,-0.07419,0.04020,0.33356,-6.45506,-11.58737,54.12109,27.80987,15.85214,-0.80504,0.27473,0.39703,0.34466,238.49190,-31.54181,-62.07720
-0.67836,1.37521,-0.18708,-0.11581,-0.06699,0.01661,0.93550,-5.20209,-14.46152,63.58047,18.65286,23.21237,-0.74073,0.37835,0.33381,0.44355,192.56270,-21.88039,-151.70380
-0.63984,1.46297,-0.22101,-0.20097,-0.05190,0.00848,0.31263,-4.11326,-17.76578,76.83976,-4.75390,37.08369,-0.64675,0.51261,0.24170,0.51042,72.35033,32.86623,-195.01810
-0.59288,1.53155,-0.23445,-0.27769,0.00179,-0.00636,0.45141,-2.41452,-20.40439,84.46233,-33.12078,49.26663,-0.51179,0.62911,0.16016,0.56271,133.24510,44.09764,-197.44190
-0.52518,1.59618,-0.23637,-0.33124,0.10027,-0.02161,1.31917,-0.50841,-22.57623,76.22631,-70.66632,54.16668,-0.33681,0.72157,0.08433,0.59898,173.52420,-58.78815,-202.78020
-0.40813,1.65578,-0.22172,-0.33792,0.26788,-0.01439,3.32241,2.93428,-23.39819,45.66900,-121.91720,62.27698,-0.12830,0.78770,0.07018,0.59845,236.74410,-47.73141,-85.95290
-0.30968,1.67589,-0.19931,-0.27271,0.41672,0.00407,6.70893,4.61989,-23.48322,16.78538,-146.97440,55.35541,0.08973,0.78823,0.06730,0.60508,147.48910,-233.22560,-115.08870
0.46333,1.55486,0.00550,8.20792,-2.90699,2.94113,11.45981,6.39413,-23.69909,-29.41167,-177.84930,35.37477,0.34507,0.73599,0.08861,0.57567,144.64740,-238.29130,-190.29520
0.82160,1.48108,0.06233,7.34765,-5.52060,3.21703,16.94427,7.28535,-23.67859,-96.19479,-193.95720,-2.39297,0.60432,0.60759,0.13290,0.49796,84.80900,-206.62020,-317.60740
0.95122,1.31542,0.09009,5.77998,-7.76221,2.96555,23.85313,8.16945,-22.51224,-160.98350,-174.19550,-46.42940,0.82617,0.39659,0.22074,0.33380,105.87030,-178.34380,-446.08750
0.91043,1.10272,0.05358,2.62472,-9.90425,1.76761,34.54398,4.61044,-18.72173,-218.83220,-79.69930,-105.09480,0.91397,0.02000,0.39178,0.10377,169.10510,-20.35957,-704.37470
0.79010,0.96367,-0.02897,-0.31202,-10.11569,0.10491,37.77212,-3.97026,-15.99760,-190.24630,44.70982,-113.64820,0.81162,-0.32799,0.48319,-0.01515,152.89160,272.69320,-706.65780
0.67029,0.91781,-0.11937,-2.31576,-8.72657,-1.30367,31.48292,-9.45584,-16.86417,-95.74293,130.17580,-65.91090,0.70721,-0.52519,0.47254,0.02717,-98.28947,595.64760,-198.87060
0.60940,0.92742,-0.16742,-2.88263,-6.69702,-1.74672,21.91877,-7.95302,-14.91170,2.14763,119.96040,8.39659,0.69912,-0.53352,0.46217,0.11395,-403.49650,443.41760,243.71510
0.58690,0.91751,-0.16902,-2.67153,-5.37322,-1.37514,16.41160,-7.59577,-13.15640,32.47299,77.01972,43.78058,0.66001,-0.57253,0.46378,0.14663,-319.83460,311.80980,112.95400
0.58060,0.88073,-0.14605,-2.22565,-4.78921,-0.71206,9.41284,-10.36799,-6.71496,38.16866,30.31169,58.65431,0.58578,-0.49313,0.62279,0.16064,-567.42220,38.91736,-84.14914
0.57686,0.83459,-0.10116,-1.84617,-4.49003,0.12223,2.56577,-8.21803,-2.74244,2.42537,9.02293,43.30926,0.57158,-0.36643,0.69748,0.22921,-455.92720,83.99338,16.83476
0.55348,0.78120,-0.06247,-1.82634,-4.36109,0.66626,-2.63066,-3.10994,-0.45620,-6.18256,13.14060,38.93675,0.61534,-0.21951,0.68273,0.32719,-465.38820,439.53700,18.23216
0.51487,0.73975,-0.02005,-2.04384,-4.07353,1.12796,-6.53445,2.24651,-0.33953,-26.72992,32.57089,22.30859,0.65375,-0.07907,0.60269,0.45068,-387.09490,428.63910,86.04205
0.46488,0.73265,0.01181,-2.48469,-3.43304,1.38132,-8.07323,6.84095,-3.88155,-23.37475,48.75790,8.56261,0.66455,-0.04023,0.44546,0.59860,-234.53580,195.29010,-369.31380
0.41265,0.72086,0.03377,-2.79876,-2.85835,1.41885,-7.37170,6.65196,-6.24824,-15.11801,40.46499,-0.94105,0.64001,-0.06774,0.36583,0.67229,-32.17152,-49.42051,-196.69900
0.36437,0.71408,0.04930,-2.96907,-2.32760,1.34952,-6.31042,4.94206,-7.08962,-6.68807,36.65854,-7.99067,0.60823,-0.10618,0.33248,0.71291,-8.30173,-155.31910,-39.73645
0.32568,0.71373,0.05696,-2.97539,-1.81081,1.17338,-4.93679,3.47952,-6.58619,1.28797,27.66065,-12.77610,0.59323,-0.13306,0.31904,0.72704,44.41690,-123.02320,50.27233
0.29003,0.70531,0.06368,-2.91500,-1.53382,1.02469,-3.88119,3.24968,-6.12184,3.84616,18.77790,-11.55696,0.59046,-0.14198,0.28686,0.74088,73.79750,-64.65912,38.77095
0.25572,0.69697,0.06847,-2.83525,-1.32190,0.87817,-2.87312,3.10125,-5.51388,5.73526,11.96347,-9.32186,0.59413,-0.14743,0.25785,0.74752,79.94098,-27.17801,23.65782
0.22452,0.68907,0.07031,-2.75402,-1.14275,0.72278,-1.96849,2.33042,-4.56376,3.34990,11.74111,-9.60654,0.59647,-0.15737,0.25107,0.74594,53.20766,-49.99788,58.06779
0.19063,0.68208,0.07198,-2.71679,-0.98519,0.59736,-1.34795,1.43261,-3.98232,1.53173,14.94547,-10.62331,0.59337,-0.17534,0.24735,0.74565,39.65050,-74.44227,56.93268
0.15513,0.68198,0.07056,-2.69947,-0.75646,0.44957,-0.78455,0.21781,-3.66646,0.55080,17.84800,-10.17464,0.58641,-0.20792,0.25055,0.74170,23.65381,-91.15870,34.38201
0.12002,0.68900,0.06722,-2.67154,-0.46168,0.30322,-0.51749,-1.08352,-3.62085,2.37447,18.70800,-7.06134,0.57062,-0.25002,0.25586,0.73920,0.80856,-89.73293,8.38988
0.08745,0.69770,0.06593,-2.60347,-0.20349,0.21988,-0.63068,-1.75963,-3.64277,5.92810,17.93024,-3.93220,0.55019,-0.28280,0.25459,0.74331,-15.84114,-55.79903,-0.64166
0.05839,0.70806,0.06607,-2.49150,0.02961,0.17985,-0.88730,-1.89591,-3.70676,8.67047,15.61737,-1.20774,0.52874,-0.30665,0.24642,0.75212,-21.10238,-21.88515,-6.96832
0.03340,0.71829,0.06684,-2.34290,0.21675,0.16341,-0.84712,-1.46264,-3.94465,11.17297,12.54916,-0.69575,0.51513,-0.32348,0.22317,0.76171,-0.74938,24.68370,-14.62699
0.01027,0.72783,0.06792,-2.19702,0.34395,0.15252,-0.66848,-1.10779,-4.25932,13.47260,9.84330,-0.89426,0.50339,-0.34251,0.19471,0.76901,28.10218,30.58684,-22.48194
-0.00705,0.73959,0.06890,-1.98145,0.47082,0.13858,-0.33416,-0.88348,-3.94214,14.48908,6.62327,-0.87603,0.50115,-0.35466,0.17797,0.76902,34.40291,19.67876,24.02241
-0.02306,0.75041,0.06968,-1.78918,0.55692,0.12492,-0.39353,-1.16988,-3.64079,15.09968,5.38417,-0.64738,0.48820,-0.37381,0.17292,0.76943,-5.23084,-15.41063,21.76274
-0.03479,0.76111,0.07119,-1.56924,0.61746,0.12575,-0.79813,-1.52491,-3.16961,16.91274,2.52261,1.51021,0.46842,-0.39009,0.17864,0.77233,-27.59056,-20.21709,25.95101
-0.04285,0.77134,0.07436,-1.33596,0.64637,0.15313,-1.54739,-1.79529,-2.73914,17.81816,0.66915,2.89763,0.43893,-0.40224,0.19032,0.78059,-56.20144,-11.48322,29.78331
-0.03962,0.77658,0.08702,-0.96525,0.58398,0.33728,-1.70164,-0.32509,-1.74475,25.81265,-5.48079,18.51936,0.43696,-0.37038,0.18987,0.79740,-33.37085,57.72358,72.93708
-0.03601,0.77903,0.10319,-0.68351,0.49174,0.52745,-1.44929,0.98436,-1.26498,15.80820,-5.75927,8.49573,0.44191,-0.33890,0.17486,0.81196,24.59524,116.97910,22.72013
-0.03510,0.78204,0.11437,-0.50120,0.43398,0.59266,-1.15338,1.54822,-0.91348,13.30774,-2.56488,1.39817,0.44615,-0.31836,0.16535,0.81991,27.43358,51.49496,25.99484
-0.03174,0.78607,0.12259,-0.32070,0.40562,0.59466,-0.74429,1.97449,-0.88428,13.03256,-1.64669,-0.63532,0.45169,-0.30241,0.14851,0.82612,27.26167,28.87238,2.77489
-0.02614,0.78972,0.13016,-0.14997,0.37472,0.58399,-0.33797,2.33879,-0.92075,11.96300,-2.88420,-0.74765,0.45888,-0.28669,0.12850,0.83110,35.07096,26.69002,-10.38614
-0.02116,0.79006,0.13662,-0.00618,0.33640,0.56553,-0.28676,2.54698,-0.76281,11.02985,-2.89181,-1.42415,0.46115,-0.26825,0.11702,0.83767,12.45632,17.20108,5.22574
-0.01389,0.78946,0.14188,0.14734,0.29497,0.52938,-0.42461,2.69817,-0.51024,10.06352,-2.27923,-2.72862,0.45990,-0.24721,0.11072,0.84565,-6.03284,10.08215,18.00700
-0.00519,0.79004,0.14648,0.27512,0.25894,0.48531,-0.45308,2.80510,-0.34549,9.15415,-2.49947,-3.52957,0.45970,-0.22735,0.10277,0.85231,-2.05770,9.15540,12.31057
0.00313,0.78782,0.14980,0.38394,0.21752,0.43453,-0.44469,2.87344,-0.17452,8.32356,-2.83272,-3.72850,0.46043,-0.20709,0.09606,0.85784,2.89706,5.24864,11.16604
0.01258,0.78494,0.15232,0.48428,0.17355,0.37901,-0.35635,2.94654,-0.02624,7.78368,-2.62834,-4.32926,0.46312,-0.18625,0.08894,0.86193,6.22728,4.84163,11.81827
0.02396,0.78277,0.15365,0.58357,0.13349,0.31442,-0.14692,3.05853,0.00213,7.27331,-2.44502,-4.96681,0.46850,-0.16565,0.07777,0.86430,13.81029,7.71657,1.84373
0.03522,0.77904,0.15367,0.66823,0.09515,0.24468,0.07427,3.15226,-0.06879,6.31136,-2.40127,-4.96448,0.47465,-0.14608,0.06385,0.86562,15.39617,7.54513,-7.35154
0.04693,0.77505,0.15284,0.73840,0.06080,0.17465,0.22662,3.19009,-0.13423,5.39263,-2.02447,-5.07471,0.48008,-0.12736,0.05017,0.86648,11.77483,4.43605,-8.19430
0.05969,0.77224,0.15105,0.80017,0.03565,0.10447,0.27864,3.16593,-0.20132,4.53880,-1.54982,-4.97002,0.48341,-0.11010,0.03709,0.86765,4.56662,-1.23389,-5.05974
0.07257,0.76894,0.14850,0.85131,0.01186,0.03790,0.27554,3.07524,-0.22607,3.99413,-1.74332,-4.64644,0.48547,-0.09420,0.02588,0.86878,-0.83582,-5.15944,-4.24926
0.08569,0.76573,0.14591,0.88972,-0.01054,-0.01387,0.24700,2.97109,-0.16786,3.65606,-1.83446,-4.11796,0.48703,-0.07809,0.01727,0.86972,-0.64516,-7.74150,2.92866
0.10033,0.76290,0.14226,0.93703,-0.03592,-0.07023,0.23052,2.88820,-0.03543,3.66600,-1.75073,-4.10327,0.48882,-0.06087,0.01097,0.87019,-0.53264,-7.62088,9.29274
0.11567,0.75869,0.13741,0.99152,-0.06768,-0.13455,0.33311,2.87526,0.09053,3.65751,-1.83476,-3.99627,0.49345,-0.04204,0.00420,0.86875,5.91791,-2.00949,7.73582
0.13177,0.75479,0.13235,1.04079,-0.09634,-0.18906,0.52021,2.94522,0.10595,3.77467,-1.79725,-3.87028,0.50034,-0.02238,-0.00625,0.86552,12.79850,3.84709,0.12470
0.14898,0.75152,0.12648,1.09323,-0.11835,-0.24291,0.72400,3.07791,0.10393,3.89183,-1.22231,-3.77011,0.50840,-0.00095,-0.01836,0.86092,14.51524,8.44757,-2.55114
0.16663,0.74836,0.12001,1.14287,-0.12932,-0.29422,0.83581,3.19082,0.18124,3.73702,-0.51446,-3.51979,0.51518,0.02202,-0.02855,0.85632,10.99126,9.50782,0.59107
0.18520,0.74605,0.11265,1.19565,-0.12614,-0.35011,0.84449,3.26391,0.45167,3.34363,0.65494,-3.57851,0.51982,0.04764,-0.03306,0.85231,3.67849,4.20796,14.84336
0.20392,0.74500,0.10474,1.23597,-0.10808,-0.40189,0.80553,3.29330,0.73822,2.66125,1.94392,-3.80701,0.52289,0.07376,-0.03515,0.84847,2.57477,1.60125,21.56819
0.22264,0.74507,0.09601,1.26690,-0.07414,-0.45560,0.73292,3.29667,0.95919,1.99554,3.07116,-3.95385,0.52448,0.09944,-0.03693,0.84479,-0.74333,0.10673,16.82520
0.24142,0.74668,0.08633,1.29020,-0.02322,-0.51310,0.63477,3.25316,1.20872,1.63188,4.25767,-4.32343,0.52453,0.12507,-0.03609,0.84138,-2.86569,-3.89785,17.56672
0.26027,0.74994,0.07555,1.30921,0.04220,-0.57480,0.49964,3.26409,1.38281,1.05993,5.29117,-4.29332,0.52256,0.15147,-0.03628,0.83826,-5.66445,-2.44740,17.77077
0.27899,0.75406,0.06442,1.32056,0.10515,-0.62734,0.35334,3.35188,1.37428,0.64736,5.65604,-4.22575,0.51925,0.17759,-0.04133,0.83495,-9.99059,3.85472,6.37340
0.29773,0.76053,0.05159,1.32850,0.19204,-0.69654,0.10685,3.51957,1.27930,0.38780,5.31968,-4.28904,0.51230,0.20454,-0.05064,0.83255,-16.86513,9.03122,-3.77656
0.31628,0.76736,0.03841,1.33070,0.26470,-0.75641,-0.08481,3.68144,1.27926,0.03156,5.08839,-4.34379,0.50457,0.23314,-0.05873,0.82922,-15.78440,10.43934,2.00788
0.33455,0.77464,0.02490,1.32730,0.32664,-0.80699,-0.22506,3.80551,1.32199,-0.46023,5.30250,-4.25112,0.49625,0.26224,-0.06583,0.82500,-11.89388,10.06299,5.21135
0.35218,0.78430,0.00960,1.31395,0.41387,-0.87533,-0.40726,3.92184,1.43449,-1.12298,5.60726,-4.44812,0.48505,0.29268,-0.07171,0.82093,-10.44639,7.01374,8.50384
0.36915,0.79468,-0.00632,1.29312,0.49361,-0.93823,-0.52624,3.99631,1.57336,-1.71493,5.78203,-4.64146,0.47358,0.32314,-0.07599,0.81580,-7.35667,4.87705,11.17272
0.38589,0.80501,-0.02224,1.27323,0.55138,-0.98474,-0.60534,4.05664,1.67883,-2.22724,5.83657,-4.69680,0.46171,0.35345,-0.08017,0.80961,-5.10963,5.03486,12.65815
0.40056,0.81888,-0.04116,1.22374,0.65336,-1.07005,-0.76628,4.20045,1.78212,-3.38247,5.63824,-4.61794,0.44625,0.38579,-0.08584,0.80291,-6.88004,7.47367,8.17535
0.41446,0.83245,-0.05978,1.17112,0.72776,-1.13219,-0.91000,4.32039,1.80909,-4.22411,5.12914,-4.25680,0.43025,0.41692,-0.09315,0.79523,-10.92485,7.60775,4.59927
0.42747,0.84629,-0.07838,1.11683,0.78820,-1.17878,-1.01322,4.38089,1.84884,-4.84829,4.97502,-3.67103,0.41373,0.44709,-0.09953,0.78678,-9.12311,6.16073,4.10505
0.43732,0.86262,-0.09805,1.01954,0.87775,-1.23298,-1.10337,4.36297,1.99762,-5.88193,4.88542,-2.57839,0.39541,0.47674,-0.10237,0.77839,-2.99098,-0.19747,8.97285
0.44652,0.87876,-0.11707,0.93167,0.94421,-1.26408,-1.13364,4.27546,2.10798,-6.93766,4.75555,-1.88535,0.37783,0.50421,-0.10387,0.76957,1.50897,-4.72960,9.94035
0.45362,0.89551,-0.13573,0.82856,1.00515,-1.28128,-1.21492,4.11934,2.14374,-7.99996,4.05694,-0.48370,0.35935,0.52850,-0.10605,0.76178,-3.27849,-8.78409,5.36766
0.45964,0.91204,-0.15337,0.73227,1.04869,-1.27797,-1.27217,3.89508,2.15875,-8.32233,3.28250,0.75401,0.34115,0.54978,-0.10723,0.75490,-3.28191,-16.92863,3.05156
0.46306,0.92906,-0.16999,0.61604,1.08920,-1.25844,-1.27523,3.57155,2.19527,-8.51299,2.47206,1.78015,0.32382,0.56762,-0.10551,0.74954,2.34519,-22.19834,4.27711
0.46487,0.94598,-0.18566,0.49999,1.11822,-1.22714,-1.24711,3.23928,2.21313,-8.17118,1.70193,2.61414,0.30740,0.58323,-0.10270,0.74485,4.92930,-23.45151,2.58750
0.46543,0.96276,-0.20036,0.39117,1.13864,-1.18649,-1.15327,2.91793,2.25215,-7.55736,1.26270,3.09301,0.29226,0.59752,-0.09757,0.74030,8.65719,-22.23022,2.80994
0.46558,0.97949,-0.21462,0.30286,1.15316,-1.14862,-1.06174,2.67790,2.30331,-7.21591,1.14256,3.29619,0.27706,0.61180,-0.09159,0.73522,12.16469,-19.10528,3.67844
0.46321,0.99637,-0.22758,0.19292,1.16672,-1.09803,-0.99223,2.42597,2.36108,-6.58884,0.61346,3.22376,0.26154,0.62441,-0.08449,0.73114,7.56959,-15.47273,3.89023
