posX, posY, posZ, velX, velY, velZ, angVelX, angVelY, angVelZ, accX, accY, accZ, rotX, rotY, rotZ, rotW, angAccX, angAccY, angAccZ
0.07509,1.33074,-0.49501,0.04929,0.06268,0.04135,0.28136,-0.20212,-0.21420,-1.92442,1.70114,-0.28406,0.10519,0.94261,0.11996,0.29332,10.57510,9.92650,-2.41660
0.07408,1.33333,-0.49450,0.01958,0.09198,0.03933,0.47965,-0.02022,-0.31694,-1.92558,1.95397,0.02673,0.11211,0.94231,0.12560,0.28934,13.43410,12.38921,-6.64045
0.07297,1.33604,-0.49394,-0.00471,0.11627,0.03873,0.55567,0.03076,-0.35642,-2.11370,2.22863,0.22643,0.11709,0.94161,0.12975,0.28781,9.85263,8.17641,-4.74149
0.07124,1.33930,-0.49344,-0.03280,0.14330,0.03735,0.50939,-0.03670,-0.31506,-2.51262,2.49091,0.09979,0.11880,0.94061,0.13196,0.28934,0.63299,-1.27314,0.51424
0.06822,1.34314,-0.49300,-0.07577,0.17263,0.03541,0.38386,-0.24707,-0.26744,-4.34890,0.90732,0.43656,0.11848,0.93867,0.13212,0.29566,-12.18456,-10.81075,6.70553
0.06353,1.34811,-0.49296,-0.13702,0.21569,0.02614,0.34174,-0.11120,-0.07861,-3.30378,3.75286,-1.47322,0.11586,0.93935,0.13426,0.29355,-2.33668,-3.58969,8.47724
0.05933,1.35363,-0.49327,-0.17544,0.25701,0.01440,0.46167,0.02081,-0.09340,-3.75066,2.85663,-0.98404,0.11887,0.93935,0.13928,0.29000,6.73996,14.93532,8.44192
0.05364,1.35978,-0.49342,-0.22893,0.29810,0.00771,0.74939,0.32424,-0.21138,-4.06300,3.07006,-0.58247,0.12757,0.93980,0.14818,0.28024,16.52888,19.54452,-7.73349
0.04664,1.36716,-0.49333,-0.29243,0.35081,0.00612,1.16332,0.68057,-0.34536,-3.88377,3.58920,0.19358,0.13963,0.93990,0.16165,0.26637,27.01816,23.98456,-8.61851
0.03972,1.37461,-0.49312,-0.33964,0.39272,0.00766,1.37841,0.84273,-0.39134,-3.97182,3.57786,0.41352,0.14865,0.93943,0.17306,0.25579,22.10726,16.47116,-5.07250
0.03156,1.38319,-0.49280,-0.39600,0.44196,0.00978,1.49601,0.94684,-0.37939,-4.01723,3.61447,0.31401,0.15582,0.93896,0.18360,0.24568,11.15494,8.84913,-0.12937
0.02267,1.39251,-0.49248,-0.45126,0.49229,0.01146,1.51840,0.99230,-0.32855,-3.94234,3.67503,0.15938,0.16100,0.93861,0.19260,0.23665,3.29869,3.07992,3.45821
0.01258,1.40304,-0.49207,-0.51420,0.55232,0.01504,1.60039,1.11665,-0.28411,-4.06949,3.87121,0.11503,0.16688,0.93831,0.20290,0.22484,3.31443,5.14369,3.63421
0.00209,1.41401,-0.49132,-0.57013,0.60614,0.02320,1.80845,1.33405,-0.26098,-3.99422,3.86872,0.67906,0.17475,0.93754,0.21651,0.20883,13.19015,14.27203,1.93499
-0.00824,1.42480,-0.49040,-0.60888,0.64355,0.03229,1.96114,1.48688,-0.24550,-3.79001,3.67029,1.13734,0.18258,0.93623,0.23003,0.19292,17.22351,16.23282,1.62531
-0.02073,1.43777,-0.48844,-0.67387,0.70662,0.05524,2.15879,1.67841,-0.18781,-3.46808,3.34074,1.61343,0.19005,0.93448,0.24567,0.17399,12.10343,10.73568,3.15165
-0.03290,1.45030,-0.48609,-0.72079,0.74886,0.07915,2.28319,1.77438,-0.11810,-3.25425,2.72656,1.86897,0.19610,0.93224,0.26062,0.15667,9.30227,6.38625,5.04729
-0.04517,1.46266,-0.48347,-0.75782,0.77859,0.10195,2.34944,1.83889,-0.05662,-2.99756,2.19198,2.01285,0.20156,0.92974,0.27472,0.13958,7.73541,4.68281,5.58678
-0.05808,1.47524,-0.48018,-0.79587,0.80516,0.13094,2.44426,1.96438,-0.02565,-2.59789,1.53383,2.06600,0.20811,0.92658,0.28936,0.12003,6.57524,6.56492,3.99329
-0.07124,1.48792,-0.47605,-0.82998,0.82686,0.16730,2.58452,2.17982,-0.06052,-1.84959,1.11238,2.42167,0.21740,0.92225,0.30457,0.09706,8.21170,13.42635,-1.03825
-0.08383,1.50012,-0.47211,-0.84645,0.83631,0.19214,2.65257,2.29075,-0.09869,-1.49924,0.70081,2.68407,0.22635,0.91728,0.31876,0.07586,8.18882,13.70611,-2.33614
-0.09703,1.51268,-0.46602,-0.86949,0.84558,0.24261,2.74961,2.46082,-0.16282,-1.08005,0.31083,3.00527,0.23699,0.91109,0.33320,0.05220,4.66544,9.83569,-2.64986
-0.10998,1.52500,-0.45955,-0.88402,0.84757,0.28746,2.83605,2.57482,-0.16100,-0.90098,-0.15209,3.37573,0.24581,0.90426,0.34796,0.02861,6.50767,8.79336,-0.48396
-0.12286,1.53687,-0.45278,-0.89419,0.84360,0.32727,2.85280,2.58493,-0.12990,-0.59021,-0.71004,3.46472,0.25281,0.89731,0.36175,0.00721,4.36470,4.07026,2.14495
-0.13518,1.54911,-0.44418,-0.89850,0.83336,0.37393,2.79761,2.52968,-0.11371,-0.18668,-1.08449,3.11316,0.25913,0.89042,0.37399,-0.01175,-2.33384,-3.85433,1.52443
-0.14694,1.56115,-0.43444,-0.89629,0.81834,0.42256,2.72708,2.48198,-0.13959,0.12941,-1.17602,2.59490,0.26632,0.88304,0.38525,-0.02991,-5.16771,-3.57449,-1.28111
-0.15879,1.57216,-0.42568,-0.89118,0.80273,0.45842,2.67672,2.52807,-0.19078,0.26596,-1.24730,2.27389,0.27500,0.87485,0.39560,-0.05009,-4.94453,1.57869,-1.93365
-0.17098,1.58231,-0.41729,-0.88663,0.78505,0.49066,2.65901,2.62961,-0.22100,0.37507,-1.25979,2.25980,0.28398,0.86577,0.40565,-0.07236,-1.75860,7.69059,-2.04085
-0.18319,1.59194,-0.40832,-0.88338,0.76254,0.52535,2.52976,2.61518,-0.16976,0.40562,-1.70957,2.29568,0.28999,0.85824,0.41332,-0.09216,-5.08765,1.76972,3.59912
-0.19530,1.60137,-0.39950,-0.87971,0.74249,0.54985,2.35339,2.46835,-0.11455,0.53270,-1.78781,2.03050,0.29402,0.85183,0.41990,-0.10780,-12.70636,-9.87448,5.89305
-0.20705,1.61032,-0.39029,-0.87146,0.71847,0.57526,2.15328,2.31112,-0.06141,0.56917,-1.73711,1.60144,0.29725,0.84631,0.42497,-0.12165,-14.73102,-14.15190,4.38453
-0.21848,1.61888,-0.38094,-0.85981,0.69388,0.59699,2.00781,2.28063,-0.02589,0.86801,-1.69634,1.40584,0.30159,0.84009,0.42929,-0.13788,-11.21318,-4.69752,3.93652
-0.22944,1.62691,-0.37128,-0.84289,0.66604,0.61927,1.88588,2.32289,0.01934,1.13966,-1.80773,1.35791,0.30624,0.83353,0.43259,-0.15592,-7.23131,2.15858,3.96160
-0.24031,1.63488,-0.36167,-0.82835,0.64439,0.63572,1.76644,2.33078,0.07427,1.45667,-1.92330,1.49328,0.31009,0.82726,0.43525,-0.17334,-7.62010,1.95289,6.03673
-0.25052,1.64218,-0.35152,-0.80674,0.61688,0.65708,1.59750,2.24593,0.12535,1.79568,-2.12745,1.67718,0.31285,0.82235,0.43658,-0.18781,-10.92283,-4.87589,5.23240
-0.26014,1.64895,-0.34123,-0.78016,0.58624,0.67959,1.44095,2.12516,0.14910,2.12233,-2.32226,1.64901,0.31547,0.81775,0.43780,-0.20024,-10.95139,-8.77393,3.43883
-0.26902,1.65532,-0.33143,-0.74727,0.55407,0.69853,1.31962,2.01977,0.13577,2.52754,-2.35044,1.42834,0.31897,0.81269,0.43931,-0.21166,-9.65046,-7.83188,-0.21628
-0.27749,1.66146,-0.32157,-0.71517,0.52596,0.71130,1.23995,1.95073,0.10219,2.74975,-2.44671,1.10398,0.32307,0.80704,0.44104,-0.22315,-7.27234,-6.85453,-1.55905
-0.28461,1.66641,-0.31107,-0.66963,0.48754,0.72581,1.15015,1.91024,0.05067,2.82131,-2.41344,0.89262,0.32798,0.80137,0.44189,-0.23446,-6.66590,-2.74553,-2.92989
-0.29144,1.67086,-0.30036,-0.63049,0.45155,0.73690,1.09168,1.88321,-0.00589,2.76836,-2.61749,0.68711,0.33308,0.79522,0.44297,-0.24589,-4.60342,-1.36693,-3.05982
-0.29800,1.67511,-0.28978,-0.59597,0.42065,0.74308,1.05327,1.90676,-0.06828,2.83493,-2.45428,0.36675,0.33914,0.78829,0.44379,-0.25814,-4.55106,-0.40370,-4.24124
-0.30301,1.67825,-0.27918,-0.54297,0.37700,0.74636,1.03009,2.03342,-0.18095,2.90899,-2.44617,-0.03760,0.34804,0.77953,0.44399,-0.27215,-1.20864,7.42824,-5.89983
-0.30782,1.68128,-0.26892,-0.49652,0.33932,0.74246,0.94872,2.09875,-0.25267,3.10353,-2.39379,-0.43275,0.35639,0.77175,0.44290,-0.28500,-4.14266,6.47257,-4.03684
-0.31270,1.68451,-0.25888,-0.46212,0.31395,0.73665,0.83177,2.05160,-0.28941,2.85064,-1.97887,-0.50020,0.36343,0.76553,0.44132,-0.29514,-9.50352,-1.50564,-2.13031
-0.31692,1.68737,-0.24882,-0.42575,0.28854,0.73167,0.74229,2.03902,-0.30305,2.26941,-1.53857,-0.27605,0.37038,0.75919,0.43925,-0.30581,-9.08362,-3.68172,-0.38466
-0.32076,1.69005,-0.23847,-0.39162,0.26618,0.73203,0.79588,2.16996,-0.32193,2.30280,-1.37146,0.16731,0.37821,0.74959,0.43838,-0.32077,0.98524,7.35355,-1.03462
-0.32419,1.69253,-0.22790,-0.35857,0.24552,0.73667,0.90127,2.30389,-0.34338,2.46904,-1.50934,0.34338,0.38596,0.73835,0.43851,-0.33701,8.10361,11.17397,-2.56452
-0.32718,1.69478,-0.21725,-0.32564,0.22634,0.74177,0.94948,2.33580,-0.33018,2.57318,-1.35413,0.35424,0.39229,0.72826,0.43830,-0.35162,4.59245,5.14859,-0.71682
-0.32968,1.69689,-0.20648,-0.29217,0.20929,0.74747,0.93836,2.23370,-0.27713,2.60826,-1.26147,0.38164,0.39640,0.72042,0.43796,-0.36338,0.54966,-4.64119,2.98444
-0.33164,1.69881,-0.19566,-0.25736,0.19293,0.75316,0.90248,2.03426,-0.20201,2.66719,-1.15823,0.35458,0.39838,0.71455,0.43806,-0.37257,-1.59755,-13.15019,4.84226
-0.33306,1.70058,-0.18475,-0.22213,0.17772,0.75862,0.85054,1.76657,-0.11412,2.50016,-1.05148,0.35192,0.39846,0.71060,0.43863,-0.37932,-3.61352,-18.63735,5.09185
-0.33404,1.70215,-0.17384,-0.18783,0.16276,0.76298,0.81586,1.54182,-0.04182,2.32713,-1.02737,0.25505,0.39804,0.70687,0.43946,-0.38571,-2.40539,-18.96390,5.64307
-0.33483,1.70355,-0.16296,-0.15821,0.14866,0.76637,0.84875,1.43974,0.00203,2.32122,-1.18865,0.28652,0.39806,0.70136,0.44081,-0.39411,0.70114,-11.66096,3.44449
-0.33492,1.70444,-0.15213,-0.12425,0.12955,0.76898,0.92324,1.38971,0.01448,2.43373,-1.36066,0.12131,0.39829,0.69449,0.44308,-0.40339,4.89677,-4.81737,0.77053
-0.33417,1.70482,-0.14138,-0.08369,0.10621,0.76953,1.04152,1.32492,-0.00043,2.68560,-1.68172,-0.14428,0.39801,0.68664,0.44713,-0.41254,7.82830,-2.21909,-1.77565
-0.33353,1.70505,-0.13088,-0.05426,0.08586,0.76599,1.06596,1.17248,-0.00448,2.57705,-1.89931,-0.53651,0.39692,0.68102,0.45088,-0.41877,4.31223,-9.29659,-1.40202
-0.33176,1.70433,-0.12110,-0.01244,0.05397,0.75117,1.02484,0.86069,-0.00949,2.15083,-1.84741,-1.16791,0.39401,0.67859,0.45571,-0.42024,-2.27834,-17.70107,-0.88426
-0.33053,1.70374,-0.11167,0.01114,0.03138,0.73371,0.97953,0.68643,-0.01692,1.72542,-1.92325,-1.77421,0.39219,0.67545,0.45948,-0.42289,-3.02818,-16.27003,-1.65659
-0.32886,1.70249,-0.10348,0.03649,0.00301,0.69924,0.88622,0.55435,-0.03500,1.28248,-1.68653,-2.48085,0.39130,0.67297,0.46219,-0.42471,-5.88986,-9.54467,-1.19549
-0.32735,1.70120,-0.09598,0.05345,-0.01958,0.66083,0.77624,0.56423,-0.04401,0.81614,-1.12926,-2.84020,0.39236,0.66958,0.46298,-0.42821,-5.49775,-5.57813,-10.67538
-0.32595,1.69998,-0.08890,0.06443,-0.03550,0.62520,0.75594,0.76611,-0.05457,0.63211,-1.38195,-2.88307,0.39523,0.66289,0.46248,-0.43644,-5.62145,14.47998,6.72760
-0.32445,1.69823,-0.08252,0.07424,-0.05625,0.58699,0.73765,0.97805,-0.08159,0.84120,-1.48555,-2.60704,0.39931,0.65507,0.46134,-0.44565,-1.12614,17.76565,-0.28060
-0.32278,1.69612,-0.07663,0.08497,-0.07840,0.54880,0.73954,1.14287,-0.13549,0.65535,-1.35301,-2.38143,0.40378,0.64654,0.46090,-0.45446,-0.38327,11.24802,-2.88322
-0.32122,1.69416,-0.07068,0.09120,-0.09295,0.52051,0.73151,1.21372,-0.15679,0.59365,-1.15501,-2.49206,0.40718,0.63900,0.46065,-0.46225,-0.00692,8.21900,-2.42280
-0.31965,1.69197,-0.06584,0.09618,-0.10788,0.48004,0.65691,1.18281,-0.14945,0.25133,-0.92148,-2.73112,0.40990,0.63376,0.45980,-0.46789,-3.78600,-0.31651,-0.26442
-0.31830,1.68996,-0.06111,0.09626,-0.11623,0.44745,0.54845,1.07818,-0.09696,-0.03780,-0.64239,-2.82821,0.41126,0.63094,0.45831,-0.47194,-7.52717,-6.62578,3.03606
-0.31719,1.68795,-0.05751,0.09225,-0.12268,0.40344,0.41468,0.95906,-0.01089,-0.51209,-0.22893,-2.68324,0.41189,0.63000,0.45569,-0.47518,-8.91080,-8.91768,5.56104
-0.31628,1.68603,-0.05380,0.08597,-0.12632,0.37173,0.35621,0.91921,0.05899,-0.57644,-0.26639,-2.56700,0.41252,0.62770,0.45319,-0.48004,-5.13878,-4.01000,6.74673
-0.31548,1.68401,-0.05072,0.07947,-0.13054,0.33730,0.33181,0.90063,0.11098,-0.41673,-0.21813,-2.33911,0.41301,0.62496,0.45090,-0.48532,-2.73157,-2.26496,4.52415
-0.31462,1.68201,-0.04793,0.07550,-0.13345,0.30624,0.34544,0.89591,0.11146,-0.14697,-0.02980,-2.13980,0.41395,0.62107,0.44968,-0.49062,0.75353,-0.20244,0.46330
-0.31346,1.68023,-0.04550,0.07744,-0.13204,0.27604,0.37484,0.91849,0.07881,0.32865,0.20705,-2.20356,0.41557,0.61608,0.44895,-0.49617,2.28406,1.04065,-1.83060
-0.31196,1.67879,-0.04375,0.08459,-0.12535,0.24132,0.35776,0.87179,0.05881,0.77441,0.54693,-2.21732,0.41687,0.61254,0.44819,-0.50014,-0.54317,-0.26823,-2.13802
-0.31029,1.67753,-0.04177,0.09284,-0.11737,0.21845,0.30408,0.67198,0.07484,1.00398,0.55375,-1.87447,0.41593,0.61243,0.44826,-0.50099,-3.00315,-11.14579,0.90710
-0.30821,1.67624,-0.04003,0.10580,-0.11179,0.19729,0.22991,0.37029,0.05114,0.96015,0.34177,-1.21051,0.41408,0.61471,0.45016,-0.49802,-6.12406,-22.74949,-0.37058
-0.30574,1.67489,-0.03827,0.12223,-0.10836,0.18111,0.31139,0.19903,-0.05480,0.87147,0.45607,-0.81904,0.41266,0.61310,0.45513,-0.49667,2.62649,-13.29569,-6.50557
-0.30332,1.67363,-0.03646,0.13411,-0.10414,0.16936,0.39953,0.11468,-0.14143,1.05287,0.29451,-1.13200,0.41158,0.61020,0.46005,-0.49660,8.82040,-5.43110,-7.11556
-0.30070,1.67252,-0.03514,0.14644,-0.09856,0.15230,0.44344,-0.02073,-0.22357,0.78001,0.40997,-1.36848,0.41017,0.60847,0.46570,-0.49462,3.71025,-9.41185,-6.99073
-0.29802,1.67162,-0.03430,0.15678,-0.09079,0.13140,0.47986,-0.11259,-0.29326,0.70074,0.72201,-1.52270,0.40896,0.60647,0.47131,-0.49276,1.70440,-8.59831,-5.02123
-0.29513,1.67085,-0.03382,0.16827,-0.08281,0.10946,0.53821,-0.11521,-0.38263,0.85163,0.50935,-1.50569,0.40893,0.60249,0.47711,-0.49208,3.80519,0.05992,-6.13173
-0.29205,1.67016,-0.03350,0.18028,-0.07533,0.09002,0.58184,-0.17883,-0.47528,0.93069,0.43019,-1.45368,0.40846,0.59909,0.48400,-0.48990,4.42471,-2.73628,-6.89310
-0.28893,1.66951,-0.03328,0.19001,-0.06890,0.07353,0.59621,-0.25419,-0.55505,0.75228,0.67755,-1.28534,0.40802,0.59627,0.49099,-0.48674,0.75757,-6.73570,-6.61230
-0.28566,1.66928,-0.03339,0.19974,-0.05742,0.05571,0.65616,-0.28782,-0.62806,0.60819,0.99844,-1.28405,0.40737,0.59211,0.49877,-0.48444,4.14077,-2.87747,-6.36715
-0.28215,1.66975,-0.03391,0.21149,-0.03695,0.03513,0.68300,-0.34632,-0.67373,0.95803,1.51643,-1.15353,0.40628,0.58887,0.50633,-0.48146,1.73618,-3.74735,-2.68464
-0.27811,1.67060,-0.03418,0.22945,-0.01482,0.02288,0.76841,-0.35049,-0.75551,1.51948,1.72515,-0.59608,0.40563,0.58343,0.51512,-0.47929,3.93137,-1.41513,-4.37638
-0.27370,1.67149,-0.03420,0.24874,0.00252,0.01754,0.85975,-0.38730,-0.84318,1.82996,1.26309,-0.30383,0.40450,0.57761,0.52516,-0.47639,8.56297,-0.28082,-7.20755
-0.26851,1.67263,-0.03378,0.27621,0.01997,0.02065,0.97275,-0.58589,-0.98097,1.79662,0.96581,0.57301,0.40127,0.57262,0.53900,-0.46965,6.08412,-10.71284,-8.99687
-0.26327,1.67363,-0.03278,0.29863,0.03159,0.03230,1.10852,-0.84957,-1.10503,1.65331,0.81969,0.93503,0.39571,0.56806,0.55508,-0.46109,9.00252,-17.09978,-9.95241
-0.25783,1.67483,-0.03147,0.31940,0.04389,0.04612,1.23866,-1.15125,-1.22398,1.44837,0.98820,0.98490,0.38837,0.56395,0.57290,-0.45047,8.44466,-21.70463,-9.68147
-0.25208,1.67652,-0.03008,0.34064,0.06165,0.05818,1.34415,-1.54274,-1.34420,1.24870,1.10359,0.37775,0.37859,0.56120,0.59265,-0.43645,6.87120,-24.14639,-9.43137
-0.24636,1.67845,-0.02908,0.35682,0.07951,0.06119,1.38520,-1.84221,-1.43321,0.99889,1.32089,0.15602,0.36913,0.55882,0.61113,-0.42188,1.33298,-22.62186,-8.42462
-0.24056,1.68059,-0.02811,0.37066,0.09661,0.06323,1.44823,-2.10649,-1.50921,0.86708,1.17847,0.23978,0.35846,0.55587,0.63016,-0.40671,2.28202,-18.98092,-6.30643
-0.23477,1.68270,-0.02703,0.38106,0.10906,0.06660,1.56286,-2.30289,-1.58864,0.49758,0.76253,0.38609,0.34705,0.55098,0.65002,-0.39172,5.99551,-16.05649,-6.64517
-0.22904,1.68468,-0.02578,0.38804,0.11675,0.07192,1.78113,-2.39429,-1.67680,0.25935,0.64998,0.52541,0.33516,0.54220,0.67121,-0.37836,13.07995,-9.73602,-5.12128
-0.22330,1.68668,-0.02454,0.39363,0.12297,0.07580,2.09433,-2.36791,-1.72175,0.30367,0.37023,0.17601,0.32258,0.52921,0.69296,-0.36835,21.97651,-2.04504,-0.76868
-0.21742,1.68864,-0.02342,0.40038,0.12708,0.07696,2.38089,-2.37272,-1.74774,0.80647,0.17773,-0.01740,0.30861,0.51508,0.71492,-0.35824,22.39506,-0.50959,2.33958
-0.21122,1.69066,-0.02232,0.41070,0.13114,0.07743,2.51448,-2.56094,-1.85107,1.15093,0.04657,-0.18638,0.29312,0.50319,0.73747,-0.34210,13.94629,-9.74340,-4.72640
-0.20479,1.69271,-0.02126,0.42238,0.13486,0.07714,2.47885,-2.89156,-2.03721,0.88206,0.12762,0.00487,0.27672,0.49449,0.75979,-0.31878,-0.87553,-20.10405,-15.95744
-0.19827,1.69461,-0.02005,0.43293,0.13518,0.07931,2.44908,-3.21508,-2.22987,0.64421,-0.13137,0.30058,0.25906,0.48543,0.78201,-0.29275,-3.19254,-21.63985,-18.35382
-0.19173,1.69616,-0.01875,0.44136,0.12965,0.08266,2.48921,-3.41110,-2.39115,0.52453,-0.63506,0.41200,0.24150,0.47361,0.80368,-0.26735,1.07171,-17.11538,-16.31240
-0.18480,1.69691,-0.01724,0.45416,0.11238,0.08850,2.67345,-3.49239,-2.55992,0.79999,-1.25258,0.43359,0.22409,0.45643,0.82612,-0.24288,11.52802,-7.65486,-10.23184
-0.17740,1.69721,-0.01568,0.47201,0.09143,0.09373,2.93262,-3.37418,-2.65621,1.34939,-1.57661,0.35595,0.20901,0.43460,0.84729,-0.22257,18.32083,2.65528,-3.66740
-0.16906,1.69682,-0.01394,0.50179,0.06356,0.10130,3.29873,-3.06077,-2.65815,1.96287,-1.81995,0.69857,0.19658,0.40707,0.86740,-0.20801,24.85336,14.02169,6.12445
-0.16037,1.69593,-0.01175,0.53057,0.03327,0.11459,3.69461,-2.74670,-2.54630,1.85662,-2.54777,1.35073,0.18349,0.37658,0.88632,-0.19738,27.15788,16.47667,15.61115
-0.15197,1.69414,-0.00919,0.54738,-0.00462,0.13076,4.06644,-2.54071,-2.40960,1.04288,-3.73335,1.49331,0.16836,0.34408,0.90446,-0.18768,30.86782,10.93596,20.34528
-0.14412,1.68982,-0.00589,0.55078,-0.07599,0.15548,4.56933,-2.44620,-2.24859,-0.25992,-5.28805,1.74083,0.14924,0.30589,0.92303,-0.17940,29.24292,0.49229,17.02715
-0.13737,1.68393,-0.00242,0.53470,-0.15818,0.17751,5.04950,-2.52827,-2.20465,-1.74279,-6.50711,1.63480,0.12639,0.26487,0.94126,-0.16703,31.02869,-9.15180,8.67500
-0.13180,1.67684,0.00087,0.50336,-0.23971,0.19101,5.49567,-2.71968,-2.16181,-3.27392,-7.05055,0.73817,0.09918,0.22144,0.95794,-0.15325,33.63180,-18.75307,2.15454
-0.12843,1.66661,0.00328,0.44238,-0.35424,0.18612,6.09442,-3.08094,-2.04211,-4.30997,-7.29463,-1.40277,0.06337,0.17140,0.97311,-0.14026,34.20700,-28.69513,6.08744
-0.12623,1.65597,0.00392,0.37538,-0.45033,0.15268,6.43815,-3.45793,-2.10285,-4.86432,-6.87396,-3.73253,0.02686,0.12366,0.98450,-0.12143,26.22385,-30.41462,-4.09983
-0.12424,1.64592,0.00353,0.32260,-0.51205,0.11140,6.53566,-3.70295,-2.35792,-5.14688,-6.14855,-5.10823,-0.00618,0.07911,0.99222,-0.09596,17.09762,-21.31350,-21.26670
-0.12479,1.63424,0.00000,0.24285,-0.58362,0.03074,6.56562,-3.96903,-2.98449,-5.77482,-4.55589,-6.87581,-0.03870,0.03454,0.99706,-0.05640,12.40680,-4.11376,-42.88569
-0.12737,1.62279,-0.00717,0.14724,-0.63621,-0.09173,6.59070,-4.10076,-3.84200,-6.03792,-2.10189,-8.60500,-0.06739,-0.01095,0.99765,-0.00611,14.96912,10.89899,-52.13329
-0.13036,1.61313,-0.01631,0.06514,-0.64856,-0.22008,6.74750,-4.18088,-4.32882,-6.30084,0.95617,-9.59854,-0.09697,-0.05985,0.99274,0.03845,21.18604,11.30771,-37.34205
-0.13423,1.60586,-0.02819,-0.01237,-0.61915,-0.36376,6.94943,-4.54188,-4.19187,-6.32074,4.49389,-10.30699,-0.13685,-0.10995,0.98209,0.06838,11.88184,-14.85413,-10.87224
-0.13854,1.60254,-0.04431,-0.07960,-0.53001,-0.54655,7.14834,-5.64953,-3.13705,-2.20877,7.90825,-11.85428,-0.20186,-0.16111,0.96350,0.07038,-16.88810,-95.54576,27.72137
-0.14068,1.60306,-0.06033,-0.09620,-0.39661,-0.68705,6.86046,-6.14114,-2.64564,0.47761,11.16504,-9.61270,-0.25386,-0.19967,0.94305,0.07963,-32.36767,-53.15951,14.42321
-0.14112,1.60756,-0.07662,-0.08052,-0.22806,-0.79905,6.46505,-6.73164,-2.09552,1.57293,15.02095,-6.91578,-0.30975,-0.23373,0.91795,0.08239,-31.54214,-37.50045,-0.00890
-0.13921,1.61829,-0.09298,-0.02821,0.00897,-0.88751,4.86589,-8.17085,-1.15045,3.84220,15.36990,-3.88450,-0.39080,-0.23410,0.88818,0.06005,-118.75720,-79.65609,-24.08247
-0.13632,1.62922,-0.10737,0.02770,0.19271,-0.92160,3.53817,-9.14615,-0.78585,6.20807,15.14683,-2.19209,-0.46716,-0.22976,0.85266,0.04417,-113.63310,-94.55949,-38.26823
-0.13127,1.64470,-0.12072,0.10592,0.40665,-0.92981,1.99749,-9.50197,-0.97417,6.84720,15.25253,-0.27349,-0.53359,-0.20632,0.81938,0.03639,-90.99313,-29.64745,-71.06788
-0.12527,1.66175,-0.13362,0.18025,0.59380,-0.92910,0.78637,-9.37994,-1.47997,6.93900,15.88450,-0.25578,-0.58887,-0.17744,0.78759,0.03810,-65.63054,12.60509,-88.09470
-0.11573,1.68619,-0.14760,0.29625,0.85966,-0.94695,-0.58284,-9.03679,-2.44573,8.33191,17.53684,-2.27499,-0.63842,-0.12885,0.75723,0.04929,-39.57402,29.21001,-96.64578
-0.10343,1.71381,-0.16374,0.43331,1.12108,-0.99691,-1.53779,-8.80478,-3.43755,11.48077,20.03772,-4.79994,-0.68600,-0.07903,0.72037,0.06501,-19.22123,21.03653,-96.95903
-0.08799,1.74435,-0.18173,0.58776,1.36553,-1.06458,-2.18483,-8.84382,-4.58118,12.91437,19.15966,-6.73032,-0.73444,-0.02392,0.67247,0.08841,-6.94130,12.00971,-105.79330
-0.08789,1.77283,-0.20105,0.88331,1.70504,-1.16520,-2.80969,-8.58253,-5.75542,23.60912,23.32307,-6.46184,-0.77232,0.04041,0.62324,0.11604,12.23330,-8.38636,-89.99246
-0.08116,1.80660,-0.22175,1.24261,2.02275,-1.24615,-3.13234,-7.95450,-7.18836,28.99618,21.41109,-4.89345,-0.79464,0.11209,0.57594,0.15583,35.41349,17.77279,-110.12620
-0.06736,1.84198,-0.24080,1.61209,2.27133,-1.29364,-2.96435,-7.24120,-8.38887,33.77372,19.68883,-2.64818,-0.80475,0.17759,0.52870,0.20327,67.33044,15.11740,-80.65047
-0.04730,1.88058,-0.25887,2.19532,2.54937,-1.31886,-2.61305,-6.58253,-10.11361,40.36030,15.12806,-0.51674,-0.79960,0.25521,0.47308,0.26776,82.55473,-6.33526,-91.25771
-0.01538,1.91902,-0.27459,2.82743,2.72747,-1.29274,-2.34991,-6.02749,-11.67062,50.72549,10.03997,3.92488,-0.78153,0.33620,0.40988,0.32891,62.12065,-17.75388,-86.73334
0.02858,1.95599,-0.28690,3.45877,2.79822,-1.22257,-2.00388,-5.56028,-12.95725,55.37944,1.58890,7.75599,-0.74905,0.41407,0.34155,0.38835,78.95606,-15.56294,-95.94939
0.08574,1.98318,-0.29099,4.50587,2.68917,-1.01906,-1.28616,-5.47129,-14.89410,60.68969,-15.10174,15.37809,-0.69084,0.49499,0.25259,0.46252,64.84010,-44.79435,-90.40213
0.15726,1.99986,-0.28817,5.40480,2.36153,-0.71587,-0.53612,-4.94564,-16.15701,67.40776,-32.84591,27.28755,-0.61540,0.56448,0.17333,0.52211,56.77131,-40.61438,-67.54721
0.23830,2.00040,-0.27262,6.30670,1.78487,-0.25957,0.78649,-4.45241,-17.44566,60.69184,-50.57094,37.90843,-0.51172,0.62173,0.09576,0.58517,98.05753,-56.40360,-69.41801
0.32459,1.98844,-0.24888,6.98750,1.09969,0.23073,2.28253,-4.56669,-18.36275,54.27106,-66.25420,45.74297,-0.39372,0.65365,0.01239,0.64620,58.10580,-111.38000,-57.24617
0.40635,1.93754,-0.20257,7.69021,-0.18342,1.02200,3.77083,-3.55696,-20.80078,34.49055,-97.75330,52.62554,-0.21345,0.69934,-0.07498,0.67804,93.32542,-83.13451,-126.51170
0.47331,1.85741,-0.14958,7.88698,-1.73541,1.80143,5.91473,-1.12823,-22.08129,-4.58614,-125.85870,58.39003,-0.01361,0.73679,-0.11061,0.66687,217.40050,-52.09865,-81.87463
0.76191,1.74895,-0.07956,7.58134,-3.30227,2.45947,9.25239,0.21868,-22.63345,-48.56761,-137.04080,49.27502,0.20610,0.72450,-0.11717,0.64722,178.92970,-200.85860,-91.19463
0.94679,1.57693,0.00221,6.20009,-5.43795,3.07330,14.56160,0.91558,-19.67076,-119.08170,-125.28670,25.54432,0.40054,0.66691,-0.01304,0.62820,143.03300,-331.89490,-25.65570
0.97986,1.40547,0.06219,4.33938,-7.05566,3.22347,19.46733,-0.07416,-16.05919,-140.78240,-107.25740,-8.19430,0.56457,0.55916,0.12162,0.59482,-10.75221,-424.55950,-117.36890
0.95860,1.23872,0.09854,2.61404,-8.18086,3.01874,24.24760,-1.67616,-13.62326,-150.08590,-87.47591,-28.57264,0.72039,0.39463,0.26234,0.50644,140.29810,-413.72560,-221.65290
0.86288,1.05805,0.08369,0.21864,-9.25624,2.03407,27.97851,-5.85723,-14.19568,-143.51370,-28.01791,-90.28757,0.84333,0.12005,0.34170,0.39701,178.80010,-20.75140,-382.94860
0.77248,0.93298,0.03939,-1.37432,-9.18342,0.84210,27.83853,-7.98423,-12.59950,-114.31690,36.76954,-97.48246,0.86528,-0.06452,0.40187,0.29261,-19.25074,-44.19699,-193.27030
0.68775,0.87567,-0.02433,-2.55402,-8.31433,-0.37686,23.58073,-9.05078,-12.07210,-58.21207,77.17777,-69.49396,0.85194,-0.19021,0.40534,0.27152,-248.09590,138.70230,-120.62390
0.62763,0.82111,-0.06900,-2.94049,-7.32722,-1.00495,20.61868,-8.05439,-10.80475,-8.02638,83.47878,-34.36563,0.84941,-0.26486,0.39964,0.22052,-176.68480,219.91490,107.59850
0.58535,0.79708,-0.09335,-2.94589,-6.07377,-1.15886,16.48676,-9.15164,-6.76869,9.60641,68.32216,11.76762,0.80451,-0.27996,0.48291,0.20295,-338.29580,-42.15196,8.86986
0.54527,0.76979,-0.08820,-2.89792,-5.11810,-0.80026,11.01571,-11.52794,-4.28357,-5.87058,55.21886,29.08439,0.71354,-0.29968,0.58723,0.23710,-388.34950,-69.58050,-224.37720
0.49541,0.74004,-0.07420,-3.03356,-4.41776,-0.36574,5.66175,-9.24737,-4.53028,-23.06854,45.61788,30.75654,0.67920,-0.29776,0.58979,0.31964,-304.24560,154.22950,-117.74660
0.44114,0.70895,-0.05871,-3.23136,-3.91642,-0.02459,1.74035,-4.12957,-5.70245,-16.41992,40.17997,26.88474,0.69735,-0.27615,0.50702,0.42472,-170.72820,512.00290,-133.37540
0.38124,0.69020,-0.03533,-3.48060,-3.32602,0.36575,-1.69014,0.41985,-6.98269,-11.06548,39.09273,21.88866,0.69890,-0.24298,0.39854,0.54192,-83.90839,368.74800,-111.81800
0.32624,0.67184,-0.01663,-3.58946,-2.86414,0.58909,-3.01619,2.66304,-7.79326,-1.94035,40.51521,17.45832,0.68378,-0.23737,0.31192,0.61547,-43.16930,256.46000,-108.58890
0.27730,0.66530,0.00197,-3.57287,-2.32405,0.75589,-3.75200,3.99345,-8.24594,8.73705,38.24162,8.25838,0.66030,-0.23450,0.23306,0.67431,-10.85219,124.76600,-66.45184
0.23806,0.66265,0.01634,-3.40504,-1.84427,0.81763,-3.69426,3.92849,-7.67154,18.18144,31.62092,0.75910,0.64084,-0.23702,0.19244,0.70435,12.85839,31.12610,10.00566
0.20624,0.66011,0.02636,-3.15611,-1.47081,0.79567,-3.61343,2.55998,-6.23177,20.07490,22.83457,-3.65718,0.61882,-0.24332,0.20084,0.71939,-2.05180,-61.26011,99.91917
0.18118,0.65452,0.03152,-2.89125,-1.19702,0.71903,-3.49005,1.35777,-4.61887,16.49253,19.11812,-6.56299,0.60076,-0.24362,0.22364,0.72782,-19.21168,-77.26600,145.52190
0.15957,0.64727,0.03299,-2.65057,-0.97912,0.61032,-2.63870,1.51725,-3.61787,13.67348,17.46087,-7.81807,0.60573,-0.23532,0.21420,0.72927,52.22200,-6.88942,83.66284
0.13591,0.64158,0.03430,-2.48339,-0.79419,0.51698,-1.59850,2.26958,-3.46889,11.02970,17.40672,-6.35782,0.61868,-0.22941,0.17533,0.73066,97.91692,29.52827,19.63952
0.11147,0.64671,0.03579,-2.32148,-0.52639,0.43122,-0.75432,2.90868,-3.82853,10.68070,15.55086,-4.31658,0.62756,-0.23079,0.12250,0.73341,75.81716,43.14809,-45.76196
0.08520,0.65343,0.03791,-2.21246,-0.29405,0.37089,-1.03668,2.12882,-3.85455,8.80096,15.58613,-4.85503,0.60927,-0.24722,0.10841,0.74560,-17.87589,-36.25386,-0.41910
0.06062,0.66156,0.03801,-2.10108,-0.09376,0.29006,-1.38860,0.90071,-3.66689,9.38483,12.99089,-6.83065,0.58575,-0.27284,0.11241,0.75487,-48.72075,-73.87703,17.77587
0.04043,0.66993,0.03517,-1.93528,0.06900,0.18009,-1.53362,-0.47288,-3.12189,12.47263,7.90961,-6.58966,0.56610,-0.30127,0.13179,0.75591,-29.33608,-82.58316,37.01283
0.02360,0.67528,0.03279,-1.75118,0.14537,0.10163,-1.46621,-1.23222,-2.44078,13.78618,3.94793,-4.16873,0.55427,-0.31935,0.14933,0.75399,-14.01827,-59.75282,53.39104
0.01101,0.67962,0.03187,-1.54687,0.18522,0.06509,-1.40508,-1.53286,-2.00560,15.23795,1.44258,-0.22306,0.54332,-0.33327,0.15927,0.75390,-2.47343,-32.66021,27.17615
0.00096,0.68260,0.03350,-1.33618,0.19521,0.07926,-1.30354,-1.45321,-1.25736,15.12452,0.33749,2.75841,0.53970,-0.33277,0.17263,0.75378,11.18367,14.99348,66.59549
-0.00651,0.68543,0.03731,-1.13275,0.19956,0.12660,-1.39127,-1.08299,-0.68083,14.00904,0.41538,4.61170,0.53347,-0.32498,0.18229,0.75932,-14.40038,18.59724,38.70258
-0.01105,0.68869,0.04250,-0.93730,0.20906,0.18439,-1.44432,-0.64422,-0.50091,14.71861,1.26564,3.65466,0.52620,-0.31807,0.18295,0.76712,-1.14682,40.96324,13.32969
-0.01311,0.69295,0.04815,-0.73879,0.23075,0.23612,-1.58106,-0.28589,-0.38601,16.19082,0.35131,4.13174,0.51640,-0.31055,0.18377,0.77661,-9.46120,26.17690,6.73509
-0.00582,0.69397,0.05793,-0.43115,0.19220,0.34555,-1.17446,1.03610,-0.28113,22.44861,-4.42225,8.82694,0.52366,-0.28165,0.16327,0.78727,16.01937,75.68527,2.38757
0.00417,0.69361,0.06874,-0.15919,0.14257,0.44412,-0.78224,1.99798,-0.25325,18.33906,-1.77790,4.75446,0.53199,-0.25434,0.14109,0.79523,39.83729,84.42369,-6.30028
0.01438,0.69617,0.07695,0.05598,0.15129,0.47796,-0.83976,2.31158,-0.36475,14.27951,1.42279,0.27395,0.52811,-0.23712,0.12630,0.80556,-1.48766,31.39034,-5.67119
0.02507,0.69924,0.08305,0.22940,0.16551,0.46934,-0.91179,2.33974,-0.51110,12.34066,0.02197,-1.41909,0.52186,-0.22598,0.11372,0.81465,-6.15267,4.38206,-14.45403
0.03778,0.70091,0.08815,0.39432,0.15286,0.44671,-0.99826,2.33941,-0.36648,12.17676,-2.26281,-1.66809,0.51668,-0.21113,0.10787,0.82270,-6.85891,-1.69167,5.63065
0.05272,0.70066,0.09264,0.55977,0.11083,0.42046,-0.99543,2.40882,-0.05149,12.22657,-4.00239,-2.00586,0.51473,-0.19150,0.10533,0.82903,-0.40829,4.67817,19.40693
0.06878,0.69921,0.09675,0.70137,0.06023,0.39344,-0.91115,2.54114,0.41137,12.07260,-4.49125,-2.56863,0.51652,-0.16639,0.10642,0.83318,12.58098,12.99334,32.66108
0.08966,0.69577,0.09910,0.88468,-0.00998,0.34307,-0.62435,2.81038,0.86678,10.79261,-3.95877,-3.76611,0.52439,-0.13619,0.10601,0.83380,18.92219,17.24792,29.64276
0.11059,0.69236,0.10032,1.02995,-0.06466,0.28510,-0.25801,3.07738,1.10054,10.21538,-3.59777,-4.60637,0.53471,-0.10702,0.10050,0.83218,28.85494,23.21181,9.89149
0.13265,0.68932,0.10008,1.16035,-0.10035,0.21635,-0.05177,3.22264,1.43874,9.05989,-1.86127,-5.17176,0.54326,-0.07636,0.10041,0.83003,21.49955,15.24057,18.61886
0.15590,0.68751,0.09837,1.27671,-0.10794,0.13885,0.00038,3.28605,1.76006,7.79496,0.53415,-5.90442,0.54857,-0.04550,0.10328,0.82845,10.01972,6.03591,22.98795
0.18039,0.68770,0.09436,1.38815,-0.08164,0.04008,0.02594,3.33817,1.95175,6.00674,2.78962,-6.39031,0.55261,-0.01541,0.10478,0.82668,3.77477,2.60271,15.31416
0.20434,0.68921,0.08950,1.46622,-0.03846,-0.05128,0.11433,3.47012,1.80288,4.84318,3.85045,-6.76299,0.55721,0.01192,0.09728,0.82457,1.82935,8.04450,-4.79960
0.22833,0.69167,0.08398,1.52382,0.00722,-0.13106,0.24463,3.64536,1.52056,4.46503,4.06415,-6.51331,0.56292,0.03805,0.08392,0.82136,4.34699,14.59392,-23.00286
0.25377,0.69634,0.07613,1.59120,0.07664,-0.23063,0.30837,3.82329,1.29954,4.23171,4.29320,-6.04983,0.56747,0.06524,0.06952,0.81786,-0.07779,13.56656,-18.55342
0.27911,0.70156,0.06809,1.64370,0.14289,-0.31190,0.28472,3.87968,1.35985,3.68766,4.80513,-5.76219,0.56972,0.09434,0.06236,0.81402,-1.54404,4.75320,1.49759
0.30463,0.70779,0.05974,1.68336,0.20481,-0.37877,0.25441,3.92686,1.47213,2.89799,5.36989,-5.50295,0.57107,0.12468,0.05678,0.80939,-0.19525,3.96044,9.60458
0.33047,0.71627,0.04995,1.71845,0.28711,-0.45250,0.18829,3.93810,1.66882,2.23840,6.29408,-5.12385,0.57056,0.15628,0.05418,0.80443,-0.89224,1.77296,10.48762
0.35602,0.72780,0.03907,1.74267,0.40588,-0.52809,-0.01681,3.77454,2.13438,1.04703,8.16624,-4.36934,0.56473,0.18912,0.06180,0.80093,-1.82748,-9.73614,29.43104
0.38107,0.74056,0.02846,1.75082,0.51115,-0.58072,-0.27555,3.64978,2.47718,0.03715,9.18268,-4.29117,0.55542,0.22178,0.06869,0.79850,-10.71915,-14.13604,35.57372
0.40557,0.75648,0.01639,1.74848,0.64014,-0.64410,-0.54309,3.63612,2.69733,-1.04316,9.45451,-4.51901,0.54366,0.25564,0.07271,0.79611,-13.48979,-6.67560,24.48683
0.42882,0.77499,0.00260,1.72743,0.78679,-0.72241,-0.82463,3.85759,2.61215,-2.52333,9.38710,-4.89702,0.53096,0.29061,0.06602,0.79326,-18.65581,7.92039,4.23175
0.45130,0.79318,-0.01127,1.69837,0.89367,-0.78341,-1.10298,4.15817,2.26487,-3.11788,8.83907,-4.82074,0.51807,0.32380,0.04942,0.79014,-28.63181,16.96602,-16.47163
0.47234,0.81388,-0.02663,1.65370,1.01361,-0.85313,-1.47149,4.48159,1.90441,-3.26671,8.19958,-5.20375,0.50135,0.35745,0.02723,0.78749,-37.95396,20.26895,-25.15037
0.49165,0.83647,-0.04349,1.59024,1.14758,-0.93405,-1.76661,4.58889,1.99037,-4.12586,8.04791,-5.49619,0.48083,0.39285,0.01600,0.78372,-21.71870,7.47077,4.24509
0.50978,0.85913,-0.06108,1.50937,1.27527,-1.01428,-1.82098,4.41770,2.56404,-5.75070,7.73901,-5.31379,0.45920,0.42910,0.02199,0.77751,3.43662,-4.90392,33.51918
0.52688,0.88161,-0.07856,1.43355,1.36523,-1.07218,-1.70425,4.21296,3.11856,-7.19487,7.40766,-4.94996,0.43907,0.46436,0.03341,0.76842,20.96467,-8.41134,43.27055
0.54055,0.90620,-0.09744,1.32337,1.46171,-1.13820,-1.51431,4.00524,3.62329,-9.27799,6.70526,-4.50719,0.41921,0.49864,0.04884,0.75713,27.03323,-7.98755,37.69537
0.55011,0.93229,-0.11749,1.16765,1.55327,-1.20596,-1.46074,3.84503,3.73554,-11.09994,5.31262,-3.41816,0.39943,0.52874,0.05680,0.74676,12.31133,-7.76986,11.42331
0.55988,0.95670,-0.13631,1.05840,1.59813,-1.23881,-1.57120,3.77003,3.56417,-11.81070,4.26844,-2.56484,0.37912,0.55565,0.05584,0.73784,-3.62521,-9.65646,-5.04664
0.56347,0.98243,-0.15570,0.87440,1.65228,-1.27354,-1.91960,3.56399,3.12369,-11.51124,2.75341,-1.65237,0.35687,0.57487,0.04570,0.73490,-24.57420,-18.85765,-21.99224
0.56534,1.00833,-0.17498,0.69548,1.69138,-1.29522,-2.01346,3.29560,3.00011,-10.82007,1.73871,-1.51080,0.33504,0.59402,0.04406,0.73004,-9.26288,-21.24114,-7.99845
0.56863,1.03328,-0.19390,0.58726,1.70867,-1.30665,-1.90779,3.15008,3.07380,-10.69625,1.26711,-1.15980,0.31444,0.61568,0.04830,0.72093,8.13358,-13.84281,3.22892
0.56659,1.05908,-0.21310,0.41840,1.72604,-1.31806,-1.53894,2.96148,3.31349,-10.42857,0.39458,-0.46055,0.29693,0.63667,0.06222,0.70896,23.60005,-6.86125,9.85916
0.56483,1.08439,-0.23170,0.29395,1.73025,-1.31653,-1.12888,2.84245,3.54773,-10.51223,-0.20715,0.68190,0.28094,0.65780,0.07925,0.69433,37.04957,-0.70377,13.53542
0.55874,1.10910,-0.24924,0.12918,1.72224,-1.29679,-0.62689,2.68356,3.74839,-10.59873,-1.01378,2.16069,0.26818,0.67658,0.10092,0.67833,37.65798,-0.19680,9.33244
0.55177,1.13298,-0.26581,-0.01373,1.70259,-1.26736,-0.43686,2.50601,3.71508,-10.36203,-1.84369,2.74837,0.25394,0.69220,0.11530,0.66564,20.85942,-7.09360,-1.78815
0.54401,1.15642,-0.28196,-0.13258,1.67786,-1.23783,-0.41509,2.34510,3.58838,-9.86226,-2.60240,2.88010,0.23868,0.70615,0.12526,0.65475,7.19862,-12.32222,-8.70685
0.53260,1.17832,-0.29683,-0.28091,1.63262,-1.19409,-0.48520,2.11511,3.34590,-9.01644,-3.33755,3.08471,0.22412,0.71674,0.13136,0.64715,-1.33460,-14.93935,-13.42723
0.52031,1.19854,-0.31101,-0.41572,1.57483,-1.14958,-0.66521,1.88463,3.04699,-7.87204,-4.11725,2.78692,0.20892,0.72577,0.13308,0.64179,-10.69767,-17.98475,-16.98165
0.50890,1.21834,-0.32519,-0.50428,1.52688,-1.11635,-0.74838,1.76931,2.85134,-6.79631,-4.21535,2.74399,0.19428,0.73583,0.13588,0.63431,-9.07548,-14.83257,-16.17635
0.49607,1.23673,-0.33846,-0.59511,1.47076,-1.07705,-0.76796,1.66595,2.69315,-6.08554,-4.10386,2.77422,0.18066,0.74515,0.13941,0.62664,-2.55930,-8.39228,-11.58104
0.48163,1.25437,-0.35103,-0.68920,1.40837,-1.03485,-0.70048,1.61353,2.57769,-5.46607,-4.05363,2.43774,0.16854,0.75454,0.14456,0.61755,2.52623,-3.86466,-8.51304
0.46700,1.27163,-0.36361,-0.76529,1.35434,-1.00243,-0.56445,1.65686,2.53353,-5.11040,-4.02682,2.18307,0.15727,0.76512,0.15182,0.60564,7.89524,2.46881,-4.48861
0.45243,1.28805,-0.37607,-0.82547,1.30676,-0.97682,-0.46815,1.71302,2.51802,-4.81478,-4.13120,2.24535,0.14554,0.77590,0.15915,0.59285,9.09413,6.23015,-2.93523
0.43630,1.30351,-0.38782,-0.89094,1.24845,-0.94639,-0.41564,1.77152,2.46956,-4.40067,-4.42208,2.38511,0.13424,0.78651,0.16523,0.57973,3.94228,4.92753,-3.36335
0.41910,1.31745,-0.39866,-0.95797,1.17677,-0.90787,-0.46327,1.75129,2.38246,-3.90657,-4.81806,2.77122,0.12211,0.79582,0.16879,0.56857,-1.72642,0.01414,-4.59798
0.40277,1.33062,-0.40937,-1.00108,1.11663,-0.87625,-0.59183,1.66086,2.27780,-3.29910,-5.37450,2.85090,0.10879,0.80381,0.16980,0.55967,-8.74812,-7.19114,-6.15409
0.38596,1.34193,-0.41905,-1.04053,1.04057,-0.83602,-0.74566,1.54001,2.09892,-2.34982,-5.68803,3.01209,0.09655,0.81058,0.16783,0.55269,-11.45190,-10.94208,-10.17934
0.36956,1.35263,-0.42826,-1.06483,0.97454,-0.79785,-0.84837,1.44752,1.91557,-1.67862,-5.53168,3.31757,0.08576,0.81697,0.16529,0.54578,-9.50303,-10.18791,-12.66630
0.35281,1.36110,-0.43573,-1.09009,0.88832,-0.74048,-0.92516,1.30917,1.71867,-1.42682,-5.57816,3.80097,0.07611,0.82195,0.16199,0.54071,-5.80667,-9.56190,-11.72655
0.33605,1.36975,-0.44287,-1.10713,0.82222,-0.69200,-0.86096,1.21343,1.58975,-1.11140,-5.71769,3.96506,0.06813,0.82653,0.16214,0.53472,0.53419,-9.88540,-10.46642
0.31928,1.37737,-0.44907,-1.12005,0.75699,-0.64108,-0.65920,1.19230,1.49001,-0.67336,-5.42166,4.01639,0.06325,0.83117,0.16602,0.52688,11.55317,-4.02905,-10.18879
0.30230,1.38191,-0.45259,-1.13255,0.65457,-0.55837,-0.16058,1.31840,1.41247,-0.22774,-5.17752,3.91890,0.06481,0.83639,0.17804,0.51434,24.53259,8.23275,-5.18174
0.28605,1.38712,-0.45696,-1.13228,0.58349,-0.50517,0.16718,1.46513,1.30177,0.38804,-5.09511,3.72078,0.06633,0.84229,0.18740,0.50102,22.36350,12.04778,-8.17846
0.27036,1.39099,-0.46037,-1.12296,0.50609,-0.44713,0.41561,1.59158,1.13446,0.79505,-4.80069,3.78471,0.06982,0.84802,0.19540,0.48765,16.36608,11.47167,-11.99751
0.25501,1.39489,-0.46395,-1.11138,0.44852,-0.40608,0.48153,1.60085,0.98259,1.21358,-4.79335,3.43625,0.07147,0.85286,0.20024,0.47689,7.38869,3.01099,-12.43280
0.24011,1.39767,-0.46652,-1.09307,0.38561,-0.36012,0.49678,1.58624,0.78628,1.50026,-4.21451,3.30182,0.07456,0.85731,0.20299,0.46718,0.04765,0.61767,-14.75405
0.22529,1.39974,-0.46850,-1.07990,0.32664,-0.31417,0.53196,1.42236,0.72357,-0.14183,-5.29987,3.01600,0.07500,0.85958,0.20793,0.46071,0.13833,-6.32074,-8.87222
0.21043,1.40082,-0.47022,-1.07158,0.26641,-0.27495,0.47381,1.39442,0.47097,1.89445,-2.12345,2.41655,0.08021,0.86310,0.20745,0.45343,-3.09781,-7.63349,-28.19500
0.19657,1.40294,-0.47162,-1.04780,0.23683,-0.24039,0.25777,1.42423,0.55905,1.76920,-2.17721,2.67238,0.07564,0.86903,0.20674,0.44308,-13.80991,5.29445,10.27043
0.18314,1.40444,-0.47278,-1.02516,0.20464,-0.20787,0.11638,1.31205,0.55492,1.40543,-2.51104,1.93499,0.07250,0.87264,0.20587,0.43688,-10.88836,-11.35133,1.20337
0.16970,1.40543,-0.47346,-1.00689,0.17169,-0.17704,0.05639,1.29657,0.56029,1.50175,-2.16451,2.10193,0.07028,0.87689,0.20613,0.42853,-5.54692,-1.30584,0.35782
0.15682,1.40630,-0.47379,-0.98390,0.14420,-0.14759,0.02218,1.24290,0.56093,1.81799,-1.87493,1.93401,0.06808,0.88045,0.20674,0.42123,-2.54940,-2.82925,0.06167
0.14434,1.40697,-0.47436,-0.96188,0.12135,-0.12643,-0.00301,1.21337,0.56851,1.96521,-1.95508,1.43846,0.06575,0.88408,0.20744,0.41359,-1.75717,-4.59281,1.23554
0.13262,1.40714,-0.47465,-0.93308,0.09601,-0.10717,-0.00243,1.26441,0.55292,2.21506,-1.66868,1.04008,0.06473,0.88839,0.20816,0.40403,-0.84745,1.41326,-1.45558
0.12166,1.40692,-0.47477,-0.89773,0.06964,-0.08985,-0.01997,1.32906,0.53835,2.29052,-1.67597,1.05238,0.06373,0.89305,0.20833,0.39369,-0.30558,5.51764,-0.39577
0.11116,1.40644,-0.47514,-0.86355,0.04514,-0.07793,-0.11134,1.31762,0.52128,2.67583,-1.84324,0.87442,0.06148,0.89733,0.20650,0.38520,-5.51575,0.27524,-0.43724
0.10158,1.40553,-0.47528,-0.82213,0.01948,-0.06639,-0.24181,1.26089,0.48171,3.24869,-1.79809,0.80666,0.05888,0.90129,0.20279,0.37827,-9.02946,-3.57069,-1.87833
0.09340,1.40414,-0.47517,-0.76626,-0.00881,-0.05345,-0.38385,1.16273,0.43189,3.69536,-1.81208,0.72443,0.05598,0.90479,0.19786,0.37291,-9.47923,-6.08101,-1.92654
