posX, posY, posZ, velX, velY, velZ, angVelX, angVelY, angVelZ, accX, accY, accZ, rotX, rotY, rotZ, rotW, angAccX, angAccY, angAccZ
0.13677,1.23773,-0.39812,-0.26330,0.34820,-0.21450,0.28430,0.45878,0.36826,-1.04172,1.06099,-1.06833,0.01589,0.86471,-0.05121,0.49941,-9.73206,-0.85814,5.52213
0.13200,1.24374,-0.40219,-0.28063,0.36551,-0.22942,0.19814,0.46889,0.42080,-1.17057,0.98088,-0.80717,0.01146,0.86645,-0.04993,0.49662,-6.39578,0.69382,3.53748
0.12731,1.24977,-0.40622,-0.29510,0.38196,-0.23869,0.26961,0.49595,0.41681,-1.05619,1.09514,-0.68936,0.01062,0.86871,-0.04544,0.49311,0.53646,0.60086,1.42685
0.12261,1.25602,-0.41010,-0.30665,0.39818,-0.24382,0.46949,0.56659,0.36697,-1.05147,1.35299,-0.40489,0.01358,0.87199,-0.03750,0.48790,13.54583,5.59962,-3.39571
0.11730,1.26301,-0.41413,-0.32462,0.42202,-0.25057,0.71870,0.64866,0.30710,-1.33774,1.63404,-0.38908,0.01870,0.87569,-0.02719,0.48175,16.65510,6.01412,-4.59667
0.11174,1.27000,-0.41846,-0.34407,0.44375,-0.25953,0.85546,0.69110,0.28612,-1.58927,1.73576,-0.64751,0.02198,0.87881,-0.01823,0.47632,11.31394,3.94858,-2.61242
0.10568,1.27731,-0.42324,-0.36696,0.46610,-0.27334,0.87134,0.70215,0.29451,-1.84661,1.73512,-1.02252,0.02302,0.88140,-0.01157,0.47167,3.09992,1.29824,0.22342
0.09881,1.28537,-0.42844,-0.39697,0.49481,-0.29103,0.96340,0.73687,0.28407,-2.01708,1.82409,-1.32779,0.02567,0.88432,-0.00301,0.46616,2.19637,0.78479,0.48836
0.09163,1.29378,-0.43365,-0.42620,0.52372,-0.30535,1.26335,0.90023,0.20546,-2.26331,2.03610,-1.08383,0.03376,0.88909,0.01084,0.45637,17.17909,9.62812,-4.63551
0.08383,1.30282,-0.43875,-0.45835,0.55581,-0.31494,1.65216,1.09441,0.04137,-2.75301,2.29356,-0.16093,0.04713,0.89430,0.02756,0.44412,27.56286,16.26115,-9.63500
0.07478,1.31241,-0.44324,-0.50201,0.58804,-0.31470,1.98164,1.05156,-0.04779,-4.14584,2.53825,1.39557,0.05991,0.89632,0.04561,0.43696,21.93490,13.86685,-13.02753
0.06511,1.32233,-0.44793,-0.54729,0.62319,-0.31538,2.11601,1.20102,-0.03439,-3.12253,4.69060,-1.09534,0.06840,0.90055,0.06121,0.42496,12.69317,-10.77575,-8.86221
0.05396,1.33422,-0.45261,-0.60538,0.68063,-0.31431,2.44665,1.43768,0.19392,-4.96729,3.72305,0.80785,0.07357,0.90583,0.08694,0.40804,29.09653,20.25525,22.96164
0.04118,1.34633,-0.45662,-0.67422,0.72721,-0.30550,2.65299,1.53900,0.34324,-5.17374,3.10997,0.93924,0.07886,0.90920,0.11040,0.39363,17.78743,7.08896,9.79463
0.02788,1.35814,-0.46051,-0.73805,0.76445,-0.29480,2.77838,1.60365,0.46895,-4.12792,2.60454,0.80364,0.08325,0.91185,0.13283,0.37942,11.40879,2.91060,10.09335
0.01493,1.37016,-0.46442,-0.78328,0.79652,-0.28570,2.88473,1.65655,0.49968,-2.88789,2.07560,0.61457,0.08968,0.91373,0.15430,0.36503,7.59612,3.25924,4.76186
0.00210,1.38218,-0.46830,-0.81654,0.82124,-0.27968,2.96999,1.76332,0.42378,-2.24775,1.65200,0.36516,0.09932,0.91555,0.17413,0.34868,7.72122,7.75240,-3.87057
-0.01068,1.39366,-0.47271,-0.84413,0.83924,-0.27887,2.92789,1.84065,0.36100,-1.99372,1.39574,0.20926,0.10764,0.91730,0.19060,0.33263,-1.33269,8.13835,-3.72697
-0.02350,1.40518,-0.47720,-0.86525,0.85079,-0.27942,2.80584,1.88820,0.32432,-1.76453,1.04070,0.07734,0.11428,0.91900,0.20434,0.31720,-8.66637,3.77232,-0.95564
-0.03678,1.41734,-0.48121,-0.88779,0.86583,-0.27635,2.62407,1.98111,0.24335,-1.26199,1.03418,0.48835,0.12170,0.92135,0.21446,0.30053,-12.18592,5.94916,-1.91141
-0.04970,1.42957,-0.48464,-0.89938,0.87702,-0.26603,2.54357,2.05299,0.17142,-0.92253,1.05474,1.25772,0.13021,0.92271,0.22647,0.28349,-9.78270,7.25747,-2.93955
-0.06265,1.44219,-0.48676,-0.91044,0.89442,-0.23683,2.52958,2.13033,0.05984,-0.75170,1.39330,2.32907,0.14107,0.92318,0.23908,0.26587,-2.92026,6.09618,-5.53238
-0.07604,1.45542,-0.48742,-0.92407,0.91461,-0.19371,2.57814,2.17129,0.00913,-1.06150,1.38028,3.04898,0.15124,0.92247,0.25408,0.24825,2.80619,3.49546,-3.94015
-0.08960,1.46851,-0.48787,-0.93728,0.92857,-0.15597,2.64409,2.23605,-0.00590,-1.20656,1.33499,3.17508,0.16095,0.92126,0.26982,0.22928,3.23824,3.16571,-1.58306
-0.10354,1.48200,-0.48719,-0.95271,0.94446,-0.10971,2.72418,2.37169,-0.00373,-1.08860,1.15641,3.44635,0.17099,0.91981,0.28603,0.20714,6.97580,9.21999,0.68557
-0.11744,1.49531,-0.48538,-0.96517,0.95790,-0.05428,2.74311,2.50116,-0.01223,-0.52774,0.83795,3.87617,0.18092,0.91815,0.30037,0.18452,1.63248,8.80583,1.39472
-0.13094,1.50832,-0.48353,-0.96835,0.96466,-0.00784,2.73676,2.54454,-0.02796,-0.16290,0.62498,4.24074,0.19046,0.91556,0.31411,0.16375,-0.65823,5.46577,-0.40683
-0.14432,1.52115,-0.48075,-0.96895,0.96693,0.04184,2.71822,2.56161,-0.04077,-0.02577,0.16910,4.40605,0.19963,0.91238,0.32726,0.14357,-1.10918,1.86683,-0.63568
-0.15750,1.53331,-0.47615,-0.96696,0.96306,0.10941,2.69110,2.57955,-0.05911,0.21661,-0.27879,4.26035,0.20885,0.90871,0.33971,0.12338,-1.81207,0.46083,-0.77825
-0.17067,1.54548,-0.47189,-0.96308,0.95512,0.15676,2.64323,2.60695,-0.06153,0.41201,-0.68920,3.94509,0.21759,0.90487,0.35119,0.10263,-2.37769,2.68597,0.00233
-0.18352,1.55723,-0.46674,-0.95548,0.94059,0.20516,2.49359,2.60026,-0.05184,0.75571,-1.23452,3.47996,0.22492,0.90190,0.35921,0.08342,-8.12719,0.56479,1.93178
-0.19567,1.56802,-0.46088,-0.93994,0.91634,0.25472,2.22031,2.52617,-0.06036,1.17510,-1.58887,3.22436,0.23125,0.90019,0.36278,0.06763,-16.35836,-4.18954,1.80209
-0.20758,1.57855,-0.45470,-0.92327,0.89100,0.29916,1.98156,2.42169,-0.07258,1.12561,-1.86414,3.42394,0.23720,0.89829,0.36598,0.05350,-18.10032,-6.97047,1.67159
-0.21954,1.58899,-0.44771,-0.91089,0.86567,0.34226,1.85121,2.34189,-0.07211,0.96444,-2.13537,3.73987,0.24306,0.89548,0.37084,0.03882,-14.19488,-7.46439,1.35387
-0.23111,1.59803,-0.43879,-0.89523,0.82706,0.40569,1.80289,2.26842,-0.05980,0.99179,-2.44055,4.11702,0.24861,0.89171,0.37746,0.02379,-3.82048,-4.22199,0.46565
-0.24250,1.60668,-0.42954,-0.88039,0.78987,0.46174,1.81809,2.20032,-0.04964,1.16804,-2.69740,3.94196,0.25410,0.88691,0.38569,0.00868,0.65220,-4.78378,0.24019
-0.25363,1.61520,-0.42025,-0.86394,0.75622,0.50553,1.82345,2.16229,-0.05172,1.55360,-2.91196,3.51575,0.26000,0.88180,0.39344,-0.00684,0.86562,-4.15125,-0.37510
-0.26388,1.62248,-0.41124,-0.83857,0.71550,0.54535,1.76830,2.08220,-0.07256,2.08849,-2.97711,2.76083,0.26568,0.87715,0.39954,-0.01998,-2.39980,-4.35586,-1.48215
-0.27304,1.62890,-0.40225,-0.80193,0.67033,0.57906,1.66291,2.00366,-0.12035,2.42164,-2.66373,2.05896,0.27197,0.87295,0.40372,-0.03169,-6.98096,-5.14376,-2.58200
-0.28193,1.63547,-0.39284,-0.76802,0.63351,0.60352,1.57445,1.94032,-0.15570,2.38699,-2.60702,1.63357,0.27818,0.86851,0.40794,-0.04354,-5.75588,-4.08837,-2.50782
-0.29069,1.64156,-0.38387,-0.73983,0.60180,0.61895,1.46749,1.91131,-0.17518,2.28238,-2.44614,1.26712,0.28429,0.86451,0.41073,-0.05576,-9.43936,-3.42098,-0.86762
-0.29872,1.64682,-0.37475,-0.70713,0.56581,0.63473,1.42859,1.94713,-0.21244,2.23402,-2.31850,1.08189,0.29175,0.85932,0.41422,-0.06981,-5.43259,0.74673,-1.52705
-0.30602,1.65163,-0.36509,-0.67011,0.52604,0.65014,1.47047,2.10516,-0.27669,2.25626,-2.47758,0.83527,0.30188,0.85201,0.41855,-0.08808,2.49127,9.69924,-3.15667
-0.31285,1.65598,-0.35554,-0.63351,0.48619,0.65986,1.46855,2.22625,-0.32672,2.43988,-2.43993,0.58796,0.31177,0.84483,0.42174,-0.10582,0.53333,9.58692,-2.77751
-0.31950,1.66036,-0.34621,-0.60150,0.45381,0.66429,1.42072,2.24253,-0.35180,2.31486,-2.17278,0.23108,0.32012,0.83841,0.42426,-0.12079,-3.03544,2.13571,-1.68183
-0.32601,1.66500,-0.33683,-0.57413,0.42918,0.66592,1.39130,2.30375,-0.36737,2.20782,-1.95461,-0.00649,0.32888,0.83143,0.42628,-0.13727,-4.31163,2.17094,-0.03454
-0.33163,1.66911,-0.32760,-0.54040,0.40251,0.66533,1.34042,2.36403,-0.40076,2.58746,-1.75723,-0.06657,0.33841,0.82423,0.42726,-0.15351,-2.51954,5.90462,-1.20614
-0.33622,1.67296,-0.31851,-0.49822,0.37723,0.66321,1.28280,2.44663,-0.45880,2.61580,-1.55762,-0.16532,0.34917,0.81647,0.42732,-0.16988,-3.79614,4.08223,-2.17989
-0.34071,1.67674,-0.30934,-0.46172,0.35541,0.66242,1.26434,2.53767,-0.50504,2.59630,-1.49336,0.06188,0.36008,0.80770,0.42767,-0.18723,-2.98706,7.54578,-2.76366
-0.34518,1.68042,-0.30001,-0.43328,0.33699,0.66429,1.24951,2.56419,-0.50777,2.40735,-1.57437,0.27964,0.36929,0.79921,0.42824,-0.20369,-0.76819,4.76987,-1.33175
-0.34886,1.68339,-0.29052,-0.39918,0.31219,0.66837,1.16395,2.44555,-0.45570,2.28274,-1.60685,0.32285,0.37532,0.79315,0.42814,-0.21619,-3.31388,-5.44778,3.17947
-0.35235,1.68648,-0.28100,-0.36869,0.29243,0.67163,1.07265,2.30023,-0.41429,2.14444,-1.29639,0.18042,0.38074,0.78766,0.42792,-0.22695,-8.11857,-11.58031,4.01183
-0.35561,1.68954,-0.27155,-0.34146,0.27673,0.67338,1.05897,2.25620,-0.40830,2.16560,-1.24413,0.02352,0.38740,0.78028,0.42845,-0.23982,-3.11208,-7.35067,1.69492
-0.35763,1.69207,-0.26224,-0.30190,0.25698,0.67292,1.11110,2.32298,-0.44383,2.52752,-1.17188,-0.17706,0.39599,0.77037,0.42946,-0.25551,2.55994,3.20817,-2.23129
-0.36031,1.69445,-0.25343,-0.26239,0.23858,0.66904,1.17443,2.44605,-0.51327,2.78587,-1.20443,-0.30474,0.40623,0.75865,0.43024,-0.27262,3.37742,7.36118,-4.32641
-0.36269,1.69688,-0.24452,-0.23123,0.22477,0.66586,1.21085,2.50691,-0.56191,2.99966,-1.28498,-0.21152,0.41574,0.74714,0.43088,-0.28859,3.17941,8.22536,-4.31540
-0.36387,1.69882,-0.23553,-0.19425,0.20708,0.66353,1.21072,2.47293,-0.59730,2.83613,-1.40279,-0.11687,0.42413,0.73657,0.43172,-0.30198,0.51472,-0.13385,-3.06719
-0.36409,1.70041,-0.22634,-0.15754,0.18796,0.66252,1.18761,2.36864,-0.59640,2.69426,-1.40320,-0.05046,0.43082,0.72724,0.43270,-0.31350,-1.75067,-5.88843,-1.11945
-0.36389,1.70170,-0.21721,-0.12223,0.16834,0.66113,1.13733,2.20431,-0.57901,2.56669,-1.45307,-0.17378,0.43612,0.71937,0.43383,-0.32266,-3.39313,-10.90697,0.65274
-0.36315,1.70276,-0.20829,-0.08645,0.14952,0.65722,1.07832,2.05185,-0.57725,2.55748,-1.21413,-0.38612,0.44148,0.71180,0.43481,-0.33073,-5.34773,-11.66630,0.79604
-0.36155,1.70357,-0.19965,-0.04451,0.13058,0.64914,1.07641,1.94969,-0.61198,2.51142,-1.08817,-0.67962,0.44749,0.70264,0.43691,-0.33937,-1.15915,-7.44979,-2.40378
-0.36015,1.70452,-0.19122,-0.01445,0.11771,0.64017,1.07624,1.90850,-0.63242,2.45910,-1.09220,-0.79820,0.45375,0.69293,0.43831,-0.34906,0.20901,-3.55022,-2.88746
-0.35786,1.70503,-0.18317,0.02243,0.10098,0.62762,1.09457,1.82545,-0.64001,2.21895,-1.01264,-0.79109,0.45884,0.68351,0.44072,-0.35784,-0.16023,-4.64341,-1.64702
-0.35591,1.70565,-0.17499,0.04682,0.08926,0.61899,1.10829,1.72005,-0.62800,1.99322,-0.97032,-0.69490,0.46285,0.67469,0.44346,-0.36593,0.61676,-7.51698,-0.18190
-0.35378,1.70611,-0.16696,0.06817,0.07782,0.61057,1.10258,1.57621,-0.59064,1.74807,-0.99917,-0.77189,0.46536,0.66728,0.44643,-0.37266,0.60037,-10.86797,1.55511
-0.35091,1.70621,-0.15946,0.09586,0.06378,0.59629,1.12589,1.44393,-0.56278,1.61793,-0.78830,-0.98262,0.46720,0.65963,0.45031,-0.37925,0.48436,-9.93487,1.08646
-0.34804,1.70628,-0.15217,0.11826,0.05179,0.58113,1.16046,1.38361,-0.54828,1.50531,-0.89384,-1.14319,0.46966,0.65084,0.45386,-0.38709,2.65283,-5.22011,0.40003
-0.34493,1.70611,-0.14530,0.13981,0.03864,0.56312,1.16771,1.28031,-0.51724,1.24110,-0.86532,-1.09897,0.47110,0.64327,0.45748,-0.39368,0.73420,-5.90213,0.62834
-0.34214,1.70599,-0.13829,0.15241,0.02877,0.55119,1.16996,1.18198,-0.46526,0.96818,-0.82443,-0.92239,0.47164,0.63641,0.46088,-0.40017,-0.72692,-8.57581,3.29495
-0.33907,1.70534,-0.13146,0.16635,0.01322,0.53874,1.19500,1.00615,-0.38697,0.88999,-1.12584,-0.71820,0.46956,0.63095,0.46584,-0.40546,1.93003,-10.23831,4.00749
-0.33610,1.70440,-0.12455,0.17595,-0.00374,0.52958,1.20193,0.78649,-0.32122,0.64574,-1.35424,-0.68873,0.46640,0.62672,0.47169,-0.40891,0.86415,-14.90870,3.30816
-0.33326,1.70327,-0.11775,0.18179,-0.01963,0.52102,1.16865,0.55057,-0.24767,0.47444,-1.43702,-0.86101,0.46220,0.62435,0.47739,-0.41068,-1.72239,-18.88440,4.36764
-0.33040,1.70169,-0.11145,0.18665,-0.03866,0.50738,1.10213,0.28236,-0.16587,0.10564,-1.47638,-1.15745,0.45665,0.62419,0.48321,-0.41033,-4.32883,-20.74549,4.56568
-0.32758,1.69992,-0.10566,0.18970,-0.05664,0.48848,1.05153,0.11290,-0.09849,0.02787,-1.19596,-1.44014,0.45166,0.62342,0.48828,-0.41101,-5.19839,-15.16206,4.05423
-0.32482,1.69791,-0.10034,0.19143,-0.07431,0.46691,1.04606,0.04761,-0.06544,-0.06776,-1.32550,-1.64229,0.44773,0.62074,0.49324,-0.41345,-0.79036,-6.62953,2.31731
-0.32205,1.69555,-0.09581,0.19304,-0.09386,0.43808,1.04626,0.04748,-0.05176,0.14663,-1.12788,-1.94694,0.44484,0.61701,0.49762,-0.41689,0.62376,-0.02216,0.98801
-0.31926,1.69349,-0.09127,0.19453,-0.10489,0.41498,1.00918,0.00218,-0.04292,0.21561,-0.80290,-1.98826,0.44179,0.61444,0.50190,-0.41880,-2.52080,-1.14644,0.46693
-0.31644,1.69140,-0.08746,0.19610,-0.11391,0.38631,0.92360,-0.06326,-0.02406,0.11628,-0.52655,-2.12175,0.43875,0.61347,0.50528,-0.41934,-5.44225,-5.55918,0.90804
-0.31359,1.68950,-0.08415,0.19796,-0.11841,0.35658,0.83310,-0.10823,-0.00368,0.07286,-0.21915,-2.12347,0.43605,0.61286,0.50798,-0.41979,-6.23906,-3.57844,0.65178
-0.31071,1.68773,-0.08115,0.19964,-0.12013,0.32810,0.73707,-0.13165,0.02279,0.20156,0.00782,-1.93565,0.43367,0.61264,0.50983,-0.42032,-7.33468,-2.41042,2.19644
-0.30749,1.68603,-0.07829,0.20617,-0.12050,0.30340,0.70354,-0.07708,-0.00034,0.56177,0.07884,-1.52620,0.43285,0.61000,0.51206,-0.42230,-4.29493,2.02939,-0.11207
-0.30388,1.68432,-0.07540,0.21700,-0.12109,0.28442,0.72202,-0.01083,-0.06959,1.04011,0.06361,-1.16593,0.43285,0.60540,0.51561,-0.42459,1.12536,5.26637,-3.64679
-0.29964,1.68281,-0.07238,0.23464,-0.11843,0.27071,0.77455,0.03934,-0.17812,1.51897,0.32952,-0.85457,0.43336,0.59930,0.52076,-0.42644,3.00938,4.57399,-6.60261
-0.29491,1.68150,-0.06928,0.25579,-0.11352,0.26125,0.80437,0.02446,-0.29205,1.65371,0.34840,-0.57640,0.43367,0.59371,0.52685,-0.42645,2.90603,1.14943,-8.47003
-0.28983,1.68035,-0.06599,0.27775,-0.10726,0.25646,0.80876,-0.06202,-0.38293,1.69269,0.44953,-0.15809,0.43291,0.58955,0.53366,-0.42453,0.68685,-4.34065,-7.66168
-0.28445,1.67936,-0.06223,0.29945,-0.09997,0.25912,0.80772,-0.24731,-0.46387,1.64621,0.54085,0.43827,0.43026,0.58698,0.54221,-0.41994,-0.12302,-10.48276,-6.55236
-0.27861,1.67854,-0.05787,0.32383,-0.09157,0.27029,0.88598,-0.44829,-0.58062,1.41434,0.71389,0.94116,0.42643,0.58295,0.55375,-0.41434,2.48198,-14.46164,-7.89828
-0.27287,1.67780,-0.05335,0.34175,-0.08381,0.28130,1.00333,-0.53114,-0.67134,1.42126,0.75434,0.94853,0.42307,0.57667,0.56514,-0.41119,8.90228,-7.11425,-7.95763
-0.26663,1.67745,-0.04862,0.36318,-0.07212,0.29308,1.12294,-0.58015,-0.76766,1.58012,0.91012,0.80281,0.41999,0.56914,0.57709,-0.40824,9.27600,-4.91527,-6.31207
-0.25995,1.67732,-0.04377,0.38633,-0.05951,0.30406,1.21639,-0.62861,-0.86148,1.70225,0.77805,0.80844,0.41701,0.56134,0.58928,-0.40466,8.33897,-2.29746,-7.02239
-0.25284,1.67732,-0.03841,0.41157,-0.04750,0.32054,1.28431,-0.75510,-0.96381,1.61098,0.64504,1.25147,0.41292,0.55439,0.60272,-0.39860,3.97505,-6.67554,-6.83482
-0.24574,1.67704,-0.03257,0.43187,-0.04200,0.34118,1.37288,-0.91766,-1.04867,1.34817,0.15748,1.69542,0.40707,0.54743,0.61743,-0.39164,5.00584,-10.34247,-6.90057
-0.23883,1.67631,-0.02627,0.44466,-0.04428,0.36356,1.46694,-1.09021,-1.12000,0.90037,-0.46720,2.02691,0.39985,0.54026,0.63315,-0.38388,7.22686,-12.72428,-6.67413
-0.23213,1.67497,-0.01908,0.45178,-0.05471,0.39402,1.55902,-1.36264,-1.20826,0.35398,-0.95860,2.24878,0.38987,0.53380,0.65122,-0.37279,6.23183,-18.38735,-7.03526
-0.22563,1.67315,-0.01148,0.45500,-0.06993,0.42437,1.69086,-1.58851,-1.32960,0.01132,-1.05522,2.15430,0.37954,0.52515,0.67070,-0.36100,6.74733,-18.16724,-9.59674
-0.21910,1.67102,-0.00368,0.45757,-0.08639,0.45125,1.92066,-1.63449,-1.44189,-0.00147,-1.06209,1.89805,0.37040,0.51137,0.69045,-0.35296,14.38857,-6.80905,-8.17544
-0.21248,1.66876,0.00404,0.46115,-0.10130,0.47135,2.19564,-1.54989,-1.51545,0.24011,-1.26718,1.67804,0.36218,0.49368,0.70960,-0.34869,22.04616,1.79009,-3.92510
-0.20562,1.66545,0.01256,0.46755,-0.12858,0.49953,2.61175,-1.42188,-1.59565,0.32962,-1.80860,1.59143,0.35284,0.46984,0.73086,-0.34726,24.74401,6.05366,-1.29161
-0.19907,1.66183,0.02115,0.46774,-0.15549,0.52330,2.83403,-1.44235,-1.62079,-0.03539,-2.31968,1.72761,0.34130,0.45032,0.75059,-0.34256,19.24656,-0.33094,0.31346
-0.19305,1.65744,0.03033,0.46055,-0.18818,0.55111,2.95296,-1.64102,-1.67972,-0.59286,-2.55675,2.19209,0.32659,0.43344,0.77122,-0.33269,8.74557,-11.06749,-4.20569
-0.18750,1.65259,0.03989,0.44810,-0.22044,0.57867,3.03102,-1.88145,-1.76483,-1.28256,-2.89299,2.38300,0.31024,0.41704,0.79216,-0.31985,4.89065,-18.11566,-9.74086
-0.18294,1.64610,0.05064,0.42359,-0.26986,0.61733,3.25049,-2.14806,-1.88254,-1.90824,-3.07597,2.63695,0.29020,0.39618,0.81570,-0.30571,9.49041,-17.61278,-10.65555
-0.17880,1.63904,0.06151,0.39790,-0.31817,0.65056,3.64675,-2.24459,-1.91229,-2.19452,-3.48879,2.42606,0.26896,0.36831,0.83887,-0.29716,24.08612,-11.84871,-2.73637
-0.17525,1.63090,0.07254,0.36890,-0.37266,0.67950,4.18774,-2.25570,-1.82394,-2.32475,-4.13627,1.90351,0.24465,0.33405,0.86136,-0.29432,35.16248,-8.43697,8.53823
-0.17204,1.62200,0.08346,0.34095,-0.42592,0.70019,4.63375,-2.29279,-1.71783,-2.40675,-4.84046,1.54687,0.21836,0.29878,0.88207,-0.29154,36.46037,-9.72491,13.40777
-0.17005,1.61102,0.09460,0.30183,-0.49768,0.71983,5.08139,-2.41933,-1.60558,-3.15646,-5.59063,1.22290,0.18739,0.26107,0.90202,-0.28825,30.25356,-14.38912,9.16236
-0.16960,1.59833,0.10562,0.24858,-0.57966,0.73413,5.38821,-2.71631,-1.54395,-4.24357,-6.44067,0.58044,0.15135,0.22579,0.92063,-0.28026,22.42230,-22.55515,3.51442
-0.17048,1.58470,0.11619,0.18770,-0.65703,0.73856,5.47380,-3.08175,-1.59891,-5.47817,-6.91205,-0.25005,0.11395,0.19496,0.93728,-0.26554,10.88482,-26.68831,-9.18054
-0.17508,1.56757,0.12560,0.08683,-0.76889,0.72631,5.42977,-3.64496,-1.88750,-6.77137,-7.42199,-1.61908,0.07169,0.16786,0.95378,-0.23873,0.45662,-26.02116,-27.84686
-0.18113,1.54948,0.13342,-0.01604,-0.87289,0.69332,5.32313,-4.11026,-2.32714,-7.76514,-7.68283,-3.40357,0.03113,0.14111,0.96814,-0.20451,-1.52785,-19.78254,-40.61253
-0.19059,1.52886,0.13782,-0.14848,-0.99403,0.61713,5.25337,-4.50697,-2.91984,-8.86999,-7.50158,-6.28943,-0.00880,0.11240,0.98030,-0.16217,3.56813,-10.61097,-45.29264
-0.20136,1.50807,0.13891,-0.27491,-1.09530,0.50789,5.30908,-4.72521,-3.39992,-9.50650,-6.89046,-9.26311,-0.04694,0.07928,0.98840,-0.12076,11.03074,-4.27003,-38.24794
-0.21543,1.48595,0.13413,-0.42554,-1.19534,0.33222,5.50425,-4.86341,-3.95997,-9.80707,-5.11860,-13.26273,-0.08437,0.04023,0.99289,-0.07377,22.20633,-2.51508,-32.94740
-0.23045,1.46538,0.12480,-0.56122,-1.25336,0.12337,5.90047,-4.98000,-4.06678,-10.44442,-2.53183,-16.26723,-0.12491,-0.00557,0.99144,-0.03760,27.98987,-3.34109,-10.19277
-0.24713,1.44661,0.10980,-0.69349,-1.27296,-0.12639,6.35128,-5.41722,-3.69257,-9.40015,0.34301,-19.07699,-0.17842,-0.05375,0.98238,-0.01446,17.06771,-39.86220,13.27288
-0.26353,1.43005,0.09178,-0.79183,-1.25481,-0.36512,6.66269,-5.91986,-3.23827,-7.44051,3.03815,-20.98106,-0.23630,-0.10053,0.96646,0.00388,3.84281,-58.62540,20.45519
-0.28053,1.41730,0.06577,-0.87793,-1.18621,-0.66822,6.88165,-6.49722,-2.79186,-4.71347,6.98277,-22.91809,-0.29815,-0.14605,0.94309,0.01922,-3.50838,-57.07988,12.75621
-0.29591,1.40966,0.03403,-0.92233,-1.05657,-0.99194,6.93898,-6.91068,-2.48573,-1.13791,11.68068,-24.05837,-0.35598,-0.18782,0.91474,0.03551,-7.18298,-43.36593,2.27178
-0.30796,1.41038,-0.00524,-0.90942,-0.82926,-1.36424,6.87754,-7.28499,-2.18749,2.97724,16.83061,-22.48276,-0.41205,-0.22596,0.88135,0.04890,-9.84731,-26.22777,3.36625
-0.31673,1.41330,-0.04115,-0.85245,-0.61755,-1.61173,6.60196,-7.57718,-1.93749,6.51310,19.22094,-19.38339,-0.46532,-0.25627,0.84513,0.05957,-24.02332,-26.45378,-4.79436
-0.32072,1.42392,-0.08014,-0.73778,-0.34016,-1.84841,6.08495,-7.81584,-1.64535,10.07687,21.10952,-15.06484,-0.51681,-0.27755,0.80736,0.06365,-39.09485,-18.90432,-9.34808
-0.32010,1.44001,-0.11818,-0.58045,-0.04018,-2.02452,5.39967,-7.90886,-1.37201,12.71166,22.41185,-10.65230,-0.56333,-0.29064,0.77086,0.06299,-48.50516,-5.28263,-12.48215
-0.31336,1.46372,-0.15499,-0.36406,0.31404,-2.14969,4.36766,-7.98815,-1.00677,14.14728,23.14545,-5.37626,-0.60802,-0.29174,0.73663,0.05070,-59.38670,-4.64476,-8.13734
-0.30504,1.48864,-0.18825,-0.16562,0.61763,-2.19701,3.18621,-8.36132,-0.88010,15.26773,22.67033,-1.32255,-0.65997,-0.28007,0.69625,0.03514,-71.93932,-7.83899,-49.08246
-0.29468,1.51576,-0.21871,0.01883,0.88743,-2.19484,1.78185,-8.54499,-0.71238,15.23835,22.50222,1.25568,-0.70649,-0.25611,0.65971,0.00851,-104.79250,-11.74685,-40.10114
-0.27953,1.54949,-0.24671,0.23237,1.19444,-2.15858,0.19202,-8.84277,-0.79272,15.51236,22.23075,3.84111,-0.75484,-0.21464,0.61935,-0.02343,-86.53022,-16.77068,-71.96403
-0.26153,1.58769,-0.27221,0.44380,1.50318,-2.09195,-1.46718,-9.05547,-1.11679,15.10693,22.72764,5.50413,-0.79917,-0.15762,0.57717,-0.05795,-83.45312,-14.36016,-85.35764
-0.23911,1.63392,-0.29499,0.67970,1.87101,-1.99973,-3.37499,-9.33908,-1.92353,14.59690,23.85670,5.83166,-0.84018,-0.07454,0.52896,-0.09353,-68.78347,-20.25137,-106.04710
-0.21574,1.68232,-0.31723,0.88495,2.20148,-1.91822,-4.95907,-9.70858,-2.98039,15.12764,24.09499,5.91610,-0.87422,0.01860,0.46921,-0.12342,-55.79506,-44.23197,-120.14540
-0.19097,1.73306,-0.33922,1.06518,2.49182,-1.84892,-5.95729,-9.69033,-4.07905,16.20019,23.99182,6.78191,-0.89373,0.11142,0.41094,-0.14128,-30.83959,-45.76500,-121.79720
-0.16124,1.79181,-0.35924,1.27817,2.83567,-1.76714,-6.11744,-8.57095,-5.63350,17.14554,24.58618,7.72566,-0.89203,0.20499,0.38235,-0.12676,47.70215,-1.62220,-111.43530
-0.12484,1.85904,-0.37690,1.54842,3.23736,-1.66663,-4.86545,-6.38561,-7.69103,18.64425,24.26591,7.46232,-0.87028,0.29013,0.39325,-0.06148,171.41350,30.91393,-112.93340
-0.07822,1.93258,-0.39141,1.92497,3.66255,-1.53666,-3.14612,-3.96634,-9.71235,29.90219,29.27208,7.79653,-0.82724,0.37003,0.42217,0.02286,209.09310,34.60005,-89.37686
-0.03374,1.99409,-0.40304,2.25422,3.93455,-1.43792,-2.74281,-3.27039,-11.07289,35.76030,27.19115,7.67301,-0.78573,0.46013,0.40623,0.07671,163.51310,-32.45930,-118.91940
0.00231,2.05741,-0.39998,2.92820,4.31224,-1.25321,-3.24116,-3.18089,-13.67357,49.68731,20.91744,12.91069,-0.70921,0.59362,0.35639,0.13276,7.45641,-27.52070,-161.01830
0.05945,2.12087,-0.39744,3.71531,4.53446,-1.02793,-3.45688,-2.80688,-16.04185,65.22430,10.38396,21.38943,-0.60214,0.71422,0.30291,0.18859,-1.90970,-15.20427,-170.36480
0.14281,2.17851,-0.38588,4.73191,4.57899,-0.67553,-2.49245,-1.61658,-18.38909,81.44841,-5.61413,33.72636,-0.45348,0.80722,0.27380,0.26035,77.85310,-50.76518,-155.28040
0.35441,2.24458,-0.36699,6.09259,4.25922,-0.08200,0.05124,0.20218,-21.61031,92.83654,-38.43501,42.67573,-0.23297,0.86422,0.26601,0.35789,116.95770,-155.72460,-198.28780
0.56270,2.25897,-0.33551,7.41644,3.37110,0.58015,0.82352,3.65022,-24.61889,99.81856,-92.69376,46.85674,0.03769,0.89729,0.24674,0.36410,144.32670,-72.91023,-240.52250
0.75031,2.21486,-0.29681,8.47178,1.93468,1.15653,1.48554,9.21095,-26.68540,74.85972,-145.05750,41.23321,0.33770,0.86855,0.23948,0.27245,260.98560,-33.52561,-343.41890
0.92666,2.07569,-0.25018,9.20431,-0.51771,1.67533,5.71704,16.43201,-27.18649,24.76011,-202.65610,29.57419,0.63933,0.70098,0.29678,0.10866,305.63470,-180.41190,-512.07860
1.02884,1.80385,-0.22437,8.71359,-4.43719,1.74025,16.05636,19.32253,-25.88504,-82.91216,-214.67220,-20.42365,0.83282,0.35546,0.42422,-0.00917,-98.76454,-112.16310,-593.61060
1.05781,1.58017,-0.23023,7.30192,-6.82410,1.30682,22.87794,17.74619,-24.63904,-149.08520,-172.56670,-48.86282,0.88272,0.01419,0.46257,-0.08144,-213.43370,63.00544,-568.00450
0.98408,1.37649,-0.26834,4.85633,-8.62578,0.45927,27.98317,11.87600,-23.77309,-190.95630,-83.40821,-65.95452,0.80768,-0.31574,0.49087,-0.08374,-247.54280,278.60170,-459.12980
0.87556,1.23179,-0.32227,2.20871,-8.95462,-0.45631,25.16910,5.84528,-23.78032,-180.10580,24.06066,-56.67532,0.73260,-0.48688,0.47560,0.00660,-316.18210,394.76340,-62.19441
0.76798,1.16392,-0.36237,0.14738,-8.07406,-0.95883,19.29211,2.99513,-22.56660,-115.88980,91.02593,-15.90569,0.69639,-0.55201,0.44701,0.10254,-265.85170,331.78340,249.32150
0.69760,1.13592,-0.37135,-0.93642,-6.79222,-0.92955,14.37973,1.51981,-18.95219,-44.35831,91.98830,16.74985,0.67863,-0.55939,0.45203,0.14904,-298.79090,161.72710,305.82110
0.66327,1.11110,-0.36028,-1.24689,-5.72466,-0.59447,10.74683,-0.13663,-15.03316,-4.29537,64.03755,29.25689,0.65446,-0.55298,0.48786,0.16701,-334.84930,10.75082,252.43860
0.65165,1.07639,-0.33966,-1.15195,-5.04122,-0.17231,7.00747,-1.15142,-11.45080,14.09382,36.04551,29.27065,0.63993,-0.52058,0.53099,0.19373,-307.11370,41.43488,201.28140
0.65186,1.02983,-0.31582,-0.90692,-4.68862,0.20947,3.57723,-1.43840,-7.78488,18.34063,16.93674,25.19114,0.64241,-0.45686,0.57632,0.21552,-275.59770,58.90509,245.68050
0.65129,0.97503,-0.29435,-0.72730,-4.52922,0.47535,1.51049,-1.26464,-5.21776,11.65382,13.20467,20.90850,0.64693,-0.40799,0.60222,0.22881,-227.06110,54.62445,217.38430
0.64813,0.92567,-0.26567,-0.62247,-4.32110,0.79346,-0.10096,-0.66180,-2.68997,2.34215,13.76681,19.69230,0.66486,-0.34416,0.62030,0.23399,-116.61030,54.47042,170.34110
0.63805,0.87617,-0.23829,-0.63695,-4.16080,1.02755,-1.02825,-0.52927,-1.71077,-2.08178,12.09832,20.46507,0.66341,-0.31347,0.63273,0.24754,-74.80781,54.97369,101.28520
0.62226,0.83097,-0.20373,-0.72955,-3.97243,1.31484,-2.16853,-1.31174,-1.53190,-7.41092,13.65559,21.94510,0.63095,-0.29336,0.66408,0.27356,-79.17463,-25.88887,17.60367
0.60097,0.78998,-0.16415,-0.88732,-3.76201,1.62156,-3.86152,-2.10661,-1.52068,-12.28113,12.23618,14.52350,0.58231,-0.25943,0.70253,0.31632,-116.39260,-58.94309,0.70183
0.57860,0.74739,-0.13117,-1.02863,-3.61937,1.77179,-4.81160,-1.68736,-1.24806,-13.48158,13.81236,9.88332,0.56227,-0.21974,0.71429,0.35405,-90.96696,20.35492,-5.85127
0.54766,0.71411,-0.09769,-1.26504,-3.36479,1.89626,-5.59386,-0.78767,-0.77849,-17.33363,19.63198,5.24063,0.55551,-0.16743,0.71475,0.39053,-57.10432,66.82924,7.53507
0.51170,0.68725,-0.06801,-1.53182,-3.06772,1.94498,-5.72776,0.36971,-0.88728,-20.91886,22.75821,1.96278,0.55855,-0.13219,0.69720,0.42949,-10.33010,67.50818,-27.70798
0.46798,0.66967,-0.04034,-1.85978,-2.69109,1.95531,-5.72142,1.76190,-2.00209,-17.84793,23.96904,-0.17047,0.56342,-0.11369,0.65506,0.49045,-2.18184,62.60709,-109.89560
0.42728,0.65050,-0.01489,-2.07594,-2.41500,1.92767,-5.64414,1.85739,-2.53124,-16.56174,23.05719,-3.02542,0.54880,-0.10019,0.63566,0.53358,2.97227,13.40217,-53.70544
0.38229,0.64255,0.00526,-2.30977,-2.02891,1.82950,-5.23240,1.75545,-3.12317,-13.02779,25.04335,-8.85545,0.53352,-0.09985,0.61490,0.57209,7.12522,-24.52370,-33.30219
0.34082,0.63350,0.02251,-2.44436,-1.74133,1.71002,-4.58602,1.98643,-3.59943,-10.38550,24.13042,-11.43031,0.52987,-0.10225,0.58523,0.60522,41.88660,-20.06248,-39.17645
0.29928,0.63129,0.03545,-2.54892,-1.41598,1.55203,-3.72336,2.65212,-4.30855,-5.05183,22.60086,-11.52638,0.53954,-0.11041,0.53648,0.63945,57.43616,9.81178,-69.73480
0.26025,0.63333,0.04499,-2.58811,-1.08982,1.37640,-2.69579,3.30109,-5.08410,0.65263,18.69779,-10.20642,0.55479,-0.12545,0.47791,0.66938,61.52160,10.43480,-65.28561
0.22565,0.63196,0.05593,-2.55701,-0.88377,1.25721,-2.16289,3.20808,-5.26455,6.80981,15.76693,-8.79143,0.55569,-0.13648,0.43924,0.69257,47.31149,-3.13826,-57.81895
0.19505,0.63217,0.06415,-2.47762,-0.70135,1.12321,-1.74801,1.92385,-4.47966,7.66046,11.61991,-9.35835,0.54189,-0.15376,0.44545,0.69591,15.02560,-76.19145,49.59095
0.16610,0.63287,0.06985,-2.37763,-0.54733,0.98296,-1.28882,0.50226,-3.77915,8.18838,11.49162,-10.19097,0.52385,-0.18077,0.46087,0.69318,3.51415,-109.76900,66.91316
0.14009,0.63515,0.07511,-2.26127,-0.40552,0.86562,-0.98694,-0.38236,-3.31752,10.28547,11.74682,-9.22411,0.50808,-0.20385,0.46908,0.69301,6.30984,-85.77848,49.95615
0.11989,0.64098,0.07885,-2.09094,-0.24388,0.75124,-0.80551,-0.91372,-2.94844,13.45002,10.91173,-6.90143,0.49407,-0.22251,0.47401,0.69404,4.75955,-50.91645,29.91094
0.10565,0.64887,0.08296,-1.85198,-0.08861,0.66429,-0.74816,-0.60336,-2.60974,15.49362,7.96094,-3.87954,0.49155,-0.22249,0.46687,0.70065,4.35708,10.41828,25.57105
0.09205,0.65345,0.08950,-1.66082,-0.01129,0.62887,-0.72382,-0.04882,-2.53424,16.38134,4.78487,-1.99668,0.49261,-0.21826,0.44906,0.71277,10.27985,43.94335,5.97836
0.08778,0.65762,0.09632,-1.37031,0.04384,0.60378,-0.81108,0.72853,-1.96757,16.81997,2.04747,-1.07346,0.50046,-0.19556,0.43772,0.72090,4.59035,51.72585,32.30452
0.08276,0.66054,0.10307,-1.14355,0.07029,0.57997,-0.92273,1.08436,-1.53360,16.68471,1.44081,-1.94814,0.50186,-0.17887,0.43102,0.72826,-4.16674,29.32395,29.85969
0.07911,0.66286,0.10925,-0.95042,0.08299,0.55280,-0.97792,1.34601,-1.17575,16.36557,0.59351,-2.44736,0.50362,-0.16266,0.42486,0.73444,-0.69910,24.94377,29.12892
0.08066,0.66445,0.11429,-0.72830,0.08500,0.51473,-0.97739,1.67487,-0.79393,15.75226,-0.26473,-3.09682,0.50867,-0.14234,0.41865,0.73873,2.19005,23.66298,26.65058
0.08586,0.66542,0.11785,-0.48585,0.07303,0.46192,-0.87083,2.16997,-0.44473,15.09674,-1.28767,-3.41016,0.51936,-0.11717,0.40853,0.74138,10.24621,30.90126,18.38615
0.09003,0.66575,0.12118,-0.31367,0.05661,0.41624,-0.68930,2.64198,-0.26576,13.97864,-1.44328,-4.22706,0.53241,-0.09299,0.39390,0.74346,13.87057,35.61057,16.27478
0.09804,0.66520,0.12283,-0.12562,0.03418,0.35659,-0.43147,3.23194,-0.10616,13.19742,-1.63922,-4.40048,0.55080,-0.06452,0.37460,0.74305,20.73947,42.70744,5.06159
0.10850,0.66452,0.12250,0.06777,0.01425,0.27888,-0.16239,3.90966,0.04161,11.46858,-0.98178,-5.17592,0.57233,-0.03115,0.35121,0.74035,18.80882,42.76593,5.45662
0.11846,0.66424,0.12137,0.21313,0.00483,0.20321,0.05640,4.51615,0.03245,9.74581,-0.40393,-5.67499,0.59281,0.00157,0.32295,0.73775,15.86213,42.95702,-2.53217
0.12827,0.66417,0.11931,0.32120,0.00663,0.13189,0.20065,5.00828,-0.07016,8.90944,0.56743,-6.09450,0.61126,0.03330,0.29129,0.73512,12.32365,44.58961,-12.78791
0.13844,0.66480,0.11572,0.41267,0.01987,0.05456,0.24727,5.38396,-0.12934,7.46962,1.24291,-6.38020,0.62676,0.06626,0.25973,0.73166,4.49631,34.75589,-7.42343
0.14983,0.66634,0.10931,0.50490,0.04483,-0.04924,0.20838,5.72872,-0.22243,4.75044,1.85595,-6.77428,0.63914,0.10029,0.22583,0.72832,-3.29047,20.94494,0.32114
0.15987,0.66794,0.10228,0.55878,0.07006,-0.14071,0.15832,5.95456,-0.44991,3.60033,2.01477,-6.69382,0.64910,0.12960,0.18850,0.72549,-8.46732,20.64575,-14.85524
0.16896,0.66989,0.09492,0.58881,0.09705,-0.21833,0.06944,5.94413,-0.53694,3.07848,2.45946,-6.51915,0.65536,0.15635,0.15718,0.72205,-10.37899,7.42073,-8.53250
0.17780,0.67316,0.08496,0.60980,0.13838,-0.31930,-0.10309,5.68724,-0.51846,1.05491,2.64622,-6.36809,0.65659,0.17941,0.13354,0.72032,-9.95218,-13.28607,6.43573
0.18510,0.67618,0.07419,0.60940,0.17841,-0.41350,-0.22712,5.23466,-0.48266,-0.04141,2.52339,-5.84180,0.65648,0.19645,0.11580,0.71905,-6.95610,-27.70320,6.03293
0.19179,0.67918,0.06323,0.60069,0.21349,-0.49587,-0.29835,4.67568,-0.34131,-0.05292,2.14044,-5.01994,0.65574,0.21102,0.10451,0.71733,-3.43332,-33.26222,7.79700
0.19939,0.68317,0.05292,0.59502,0.23785,-0.54909,-0.30507,4.22425,-0.15092,-0.34621,2.03565,-4.15831,0.65548,0.22648,0.09553,0.71409,2.52923,-37.26842,15.92354
0.20609,0.68673,0.04226,0.58597,0.26484,-0.59660,-0.29236,3.76198,0.04522,-0.44341,2.24253,-2.79651,0.65483,0.24015,0.09044,0.71088,5.25180,-34.61101,14.66529
