posX, posY, posZ, velX, velY, velZ, angVelX, angVelY, angVelZ, accX, accY, accZ, rotX, rotY, rotZ, rotW, angAccX, angAccY, angAccZ
0.30375,1.04070,-0.21102,-0.09324,0.24076,-0.25402,0.71592,0.45307,0.35796,-0.23051,2.22204,-2.73503,0.15733,0.70549,-0.18748,0.66512,-5.84885,2.66436,1.83165
0.30240,1.04580,-0.21698,-0.09496,0.26638,-0.28891,0.54785,0.43388,0.35027,-0.22328,2.20435,-2.96450,0.15479,0.70736,-0.18684,0.66391,-14.22610,-0.11259,0.09018
0.30099,1.05230,-0.22429,-0.09711,0.30751,-0.33679,0.55380,0.40076,0.40352,-0.08310,2.56573,-3.33342,0.15401,0.70993,-0.18170,0.66278,-4.76603,-2.95391,2.07588
0.29947,1.05923,-0.23163,-0.10029,0.34610,-0.37501,0.85254,0.39963,0.52203,-0.25296,3.20021,-3.61677,0.15792,0.71521,-0.16787,0.65981,16.05884,-1.51265,6.62328
0.29735,1.06844,-0.24077,-0.11192,0.41057,-0.43208,1.58729,0.49076,0.78918,-0.96005,4.31432,-3.98746,0.16817,0.72580,-0.13869,0.65246,43.63311,5.30716,14.43915
0.29469,1.07803,-0.25004,-0.12849,0.46811,-0.48044,2.28293,0.62775,1.06370,-1.54538,5.01728,-4.33288,0.17881,0.73779,-0.10540,0.64233,55.36462,10.45969,20.57014
0.29082,1.09027,-0.26153,-0.15977,0.55219,-0.55075,3.16642,0.88214,1.43270,-2.28940,5.51886,-4.35843,0.19193,0.75356,-0.06101,0.62577,57.24120,16.00532,23.48537
0.28668,1.10215,-0.27269,-0.18839,0.61370,-0.60190,3.64345,1.05756,1.65416,-2.65985,5.20749,-3.72146,0.20163,0.76610,-0.02347,0.60982,46.73970,16.52387,22.23112
0.28183,1.11505,-0.28450,-0.22099,0.67723,-0.65146,3.88089,1.14990,1.79685,-2.44088,4.50121,-2.80362,0.20907,0.77604,0.01035,0.59493,24.02574,8.77652,13.85811
0.27701,1.12814,-0.29646,-0.24691,0.73079,-0.69302,3.76630,1.11436,1.77472,-1.92342,3.76949,-2.60278,0.21376,0.78199,0.03407,0.58450,-0.57909,-1.10855,1.35974
0.27179,1.14194,-0.30944,-0.27383,0.78463,-0.74181,3.45714,1.07177,1.64877,-1.69663,3.35562,-3.35335,0.21663,0.78669,0.04981,0.57594,-20.77748,-4.11577,-7.33420
0.26658,1.15571,-0.32252,-0.29519,0.82737,-0.78211,3.40870,1.14358,1.57198,-1.72697,3.51760,-3.96903,0.22262,0.79305,0.07038,0.56263,-13.12943,1.26832,-5.57849
0.26038,1.17128,-0.33743,-0.32798,0.88981,-0.84164,3.50493,1.41306,1.50240,-2.30785,4.29226,-3.70051,0.23125,0.80254,0.09269,0.54208,4.28189,17.20136,-1.91248
0.25369,1.18712,-0.35184,-0.36059,0.94202,-0.88089,3.52917,1.59242,1.48611,-3.16756,4.62255,-2.71994,0.23777,0.81094,0.11468,0.52220,2.23754,18.93993,2.72887
0.24563,1.20472,-0.36622,-0.40627,1.00885,-0.91162,3.53677,1.71216,1.50014,-3.53823,5.07202,-1.56434,0.24320,0.81831,0.13687,0.50248,-0.37231,9.72004,2.78026
0.23617,1.22417,-0.37994,-0.46482,1.09154,-0.92694,3.52639,1.74952,1.54183,-3.98352,5.37504,-0.38205,0.24730,0.82409,0.15950,0.48403,0.15994,2.68513,3.23038
0.22641,1.24357,-0.39311,-0.51423,1.15416,-0.93024,3.45844,1.74110,1.59686,-4.34545,5.17853,-0.07172,0.24947,0.82895,0.18117,0.46668,-3.29228,-1.81665,3.91840
0.21531,1.26354,-0.40603,-0.57633,1.22131,-0.93002,3.36347,1.77123,1.68026,-4.68174,4.64057,0.08859,0.24966,0.83430,0.20188,0.44818,-6.62543,-1.55881,6.27526
0.20322,1.28383,-0.41864,-0.64074,1.27942,-0.92451,3.29250,1.84528,1.74731,-4.67745,3.88275,0.65856,0.24991,0.83978,0.22205,0.42779,-4.83904,2.59808,6.99812
0.18965,1.30508,-0.43045,-0.71142,1.33402,-0.90723,3.23053,1.93275,1.78831,-4.42644,2.97206,1.41854,0.25043,0.84497,0.24148,0.40621,-5.01209,4.08636,4.71212
0.17614,1.32534,-0.44129,-0.76944,1.36940,-0.87983,3.27784,2.03171,1.78540,-4.11501,2.23181,2.28858,0.25341,0.84877,0.26242,0.38277,0.14812,6.06178,2.32990
0.15966,1.34600,-0.44833,-0.87518,1.41511,-0.78748,3.37752,2.19564,1.66240,-3.29467,1.11657,3.82762,0.26049,0.85135,0.28273,0.35694,0.65173,5.99710,-4.48237
0.13287,1.38567,-0.46727,-0.91404,1.42588,-0.74120,3.30820,2.19231,1.60873,-3.31763,0.82730,4.19906,0.26636,0.85377,0.32000,0.31262,-5.55978,1.46439,-4.21375
0.11733,1.40537,-0.47365,-0.95946,1.43237,-0.68118,3.23771,2.18347,1.55985,-3.21738,0.35986,4.37386,0.26921,0.85413,0.33641,0.29122,-6.70355,-1.77600,-3.13435
0.10123,1.42510,-0.47886,-1.00132,1.43333,-0.61633,3.25065,2.24714,1.52552,-2.86997,-0.17896,4.80118,0.27315,0.85381,0.35393,0.26671,-1.33641,3.99221,-1.59715
0.08503,1.44412,-0.48275,-1.03672,1.42547,-0.54592,3.25677,2.30843,1.47051,-2.32093,-0.75226,5.34714,0.27773,0.85262,0.37060,0.24197,-0.49751,5.12708,-2.01422
0.06907,1.46267,-0.48592,-1.06136,1.41209,-0.48017,3.27195,2.34447,1.40692,-1.95072,-1.40343,5.65478,0.28268,0.85023,0.38712,0.21758,-0.25812,4.25717,-3.75406
0.05276,1.48043,-0.48719,-1.08400,1.38761,-0.40143,3.28894,2.38156,1.31233,-1.38691,-2.06250,5.64789,0.28891,0.84666,0.40300,0.19310,0.45746,4.61059,-5.86227
0.03666,1.49676,-0.48702,-1.10016,1.34912,-0.31663,3.19814,2.41075,1.18072,-0.67775,-2.82371,5.31770,0.29561,0.84335,0.41522,0.17018,-3.99863,4.73282,-6.43722
0.02108,1.51285,-0.48756,-1.10571,1.31430,-0.25939,2.97275,2.35932,1.06602,-0.20281,-3.07548,4.76671,0.30034,0.84116,0.42352,0.15127,-16.38584,-1.32491,-7.00712
0.00582,1.52736,-0.48673,-1.10452,1.26276,-0.19349,2.57428,2.25550,0.90276,0.33660,-3.46976,3.75202,0.30474,0.84087,0.42569,0.13734,-25.65150,-7.39420,-7.03304
-0.00888,1.54160,-0.48671,-1.09615,1.21881,-0.15224,2.27805,2.14994,0.77033,1.29476,-3.63198,3.79855,0.30913,0.83991,0.42854,0.12387,-26.23211,-4.73552,-7.53167
-0.02241,1.55418,-0.48665,-1.07336,1.16153,-0.11875,1.63700,2.00010,0.52846,1.55872,-3.65631,2.05657,0.31403,0.84338,0.41947,0.11893,-46.72679,-15.91321,-11.73139
-0.03555,1.56540,-0.48498,-1.04821,1.09231,-0.06707,1.49949,2.20816,0.35883,0.88759,-3.81837,3.17524,0.32478,0.84272,0.41755,0.09996,-9.56617,13.70637,-7.52724
-0.04958,1.57640,-0.48295,-1.04111,1.03276,-0.01970,1.49887,2.30179,0.28523,0.41161,-4.41402,3.71753,0.33334,0.84018,0.42008,0.08078,0.49721,10.99690,-4.65827
-0.06374,1.58701,-0.48050,-1.03749,0.97981,0.02272,1.53075,2.31234,0.24285,0.37391,-4.22773,3.41973,0.34064,0.83674,0.42409,0.06299,-1.44647,1.59350,-4.47923
-0.07762,1.59606,-0.47659,-1.02856,0.91203,0.07615,1.71481,2.44327,0.19057,0.64355,-4.10810,3.00597,0.35049,0.83060,0.43086,0.04021,9.46129,6.60497,-4.19831
-0.09111,1.60472,-0.47285,-1.01606,0.85217,0.11679,1.86598,2.57624,0.14615,1.13240,-4.51047,2.85904,0.36052,0.82379,0.43717,0.01646,12.78041,12.42072,-3.44415
-0.10434,1.61311,-0.46925,-1.00312,0.80167,0.14632,1.88359,2.61462,0.10731,1.24027,-4.14473,2.52966,0.36930,0.81788,0.44121,-0.00419,4.06817,6.17205,-4.19963
-0.11698,1.62013,-0.46442,-0.98451,0.74137,0.18513,1.66495,2.46971,0.13357,1.32494,-3.83999,2.93625,0.37371,0.81573,0.44113,-0.01836,-9.20875,-4.76309,2.14448
-0.12990,1.62744,-0.45948,-0.97472,0.69818,0.21834,1.29815,2.09408,0.18667,0.86005,-3.71484,3.12741,0.37328,0.81698,0.43895,-0.02310,-24.62289,-24.70281,4.84198
-0.14264,1.63366,-0.45348,-0.96481,0.64882,0.26047,0.92559,1.63189,0.26258,0.62301,-3.14480,2.74835,0.36935,0.82012,0.43645,-0.02224,-30.30011,-37.53596,6.69904
-0.15492,1.63949,-0.44730,-0.94879,0.60286,0.29970,0.80670,1.42105,0.30180,1.05392,-3.03740,2.46344,0.36839,0.82017,0.43685,-0.02775,-11.96231,-21.08835,4.07092
-0.16682,1.64526,-0.44115,-0.93090,0.56594,0.32984,0.83539,1.36859,0.30804,1.47213,-2.88394,2.34837,0.36986,0.81785,0.43921,-0.03777,-0.17383,-6.54448,0.78892
-0.17811,1.65033,-0.43450,-0.90832,0.52700,0.36043,0.89859,1.37464,0.29727,1.54867,-2.58518,1.97796,0.37243,0.81452,0.44205,-0.04940,4.24828,-1.06919,-1.43305
-0.18909,1.65540,-0.42810,-0.88538,0.49554,0.38455,0.95823,1.44233,0.31383,1.60167,-1.95931,1.67758,0.37514,0.81112,0.44423,-0.06343,4.38253,4.58668,0.31468
-0.19989,1.66063,-0.42169,-0.86451,0.47263,0.40412,0.95831,1.46816,0.38350,1.50338,-1.50019,1.39393,0.37575,0.80908,0.44530,-0.07689,1.87903,2.68352,3.82231
-0.21047,1.66585,-0.41517,-0.84466,0.45396,0.41972,0.86278,1.45196,0.48395,1.46607,-1.47147,1.14709,0.37458,0.80912,0.44401,-0.08871,-3.96895,-0.95388,7.32151
-0.22057,1.67070,-0.40858,-0.82012,0.43280,0.43444,0.66816,1.39123,0.59605,1.78612,-1.28905,0.99455,0.37201,0.81145,0.43992,-0.09818,-10.91456,-4.18735,7.81265
-0.23024,1.67559,-0.40186,-0.79434,0.41625,0.44763,0.44966,1.27849,0.68218,1.97938,-1.34620,1.17174,0.36881,0.81475,0.43490,-0.10501,-13.13684,-6.84154,7.27723
-0.23957,1.68010,-0.39454,-0.76952,0.39767,0.46503,0.21682,1.09178,0.76369,1.80824,-1.43543,1.46307,0.36397,0.81938,0.42939,-0.10849,-16.32041,-13.56649,7.11379
-0.24866,1.68422,-0.38675,-0.74518,0.37611,0.48720,0.06265,0.89000,0.82046,1.69031,-1.57446,1.71518,0.35848,0.82358,0.42537,-0.11076,-12.03457,-15.44478,5.70843
-0.25739,1.68783,-0.37844,-0.72082,0.35176,0.51232,0.06114,0.79579,0.82081,1.54941,-1.72043,1.78971,0.35491,0.82516,0.42399,-0.11569,-2.98811,-10.48992,1.47193
-0.26544,1.69065,-0.36938,-0.69173,0.32036,0.54300,0.23088,0.83246,0.77179,1.85207,-2.06577,1.87949,0.35382,0.82317,0.42608,-0.12517,8.88611,2.20354,-2.66479
-0.27352,1.69355,-0.36050,-0.66851,0.29633,0.56344,0.34260,0.86096,0.72461,2.17809,-2.09371,1.62204,0.35304,0.82128,0.42758,-0.13431,11.34896,4.08518,-5.58275
-0.28065,1.69593,-0.35145,-0.63686,0.27001,0.58230,0.29666,0.73658,0.68736,2.73434,-2.23147,1.57008,0.35061,0.82194,0.42721,-0.13773,1.34643,-3.03051,-2.57561
-0.28733,1.69777,-0.34203,-0.60578,0.24099,0.60229,0.10370,0.36950,0.68322,2.16185,-2.24825,1.49960,0.34410,0.82645,0.42565,-0.13189,-11.21312,-24.30567,-0.85912
-0.29391,1.69911,-0.33247,-0.57905,0.21018,0.61974,-0.05498,0.03129,0.68809,1.67969,-2.16686,0.91888,0.33661,0.83128,0.42439,-0.12471,-11.26258,-27.45707,0.72746
-0.30022,1.70017,-0.32326,-0.55400,0.18222,0.62849,-0.18307,-0.19480,0.71311,1.64317,-1.89378,0.27630,0.32914,0.83612,0.42237,-0.11906,-8.91258,-18.95221,2.05418
-0.30618,1.70101,-0.31459,-0.52906,0.15706,0.62792,-0.21277,-0.22660,0.68990,1.44396,-1.44721,-0.57648,0.32481,0.83880,0.42075,-0.11782,-5.48682,-8.30408,-0.58298
-0.31165,1.70181,-0.30651,-0.50135,0.13580,0.61855,0.04971,0.19610,0.59385,1.18995,-0.89268,-0.50855,0.32801,0.83479,0.42224,-0.13136,9.30919,20.21610,-4.90144
-0.31736,1.70272,-0.29825,-0.48276,0.12081,0.61364,0.38247,0.69215,0.45990,1.18771,-0.78342,-0.18809,0.33476,0.82702,0.42591,-0.15022,31.93161,36.68298,-17.84000
-0.32273,1.70376,-0.28980,-0.46348,0.11125,0.61295,0.81372,1.31252,0.46515,1.71463,-1.02265,0.38072,0.34056,0.81627,0.43067,-0.17958,30.59800,51.52621,4.31871
-0.32746,1.70411,-0.28088,-0.43766,0.09293,0.61893,0.95566,1.47639,0.46305,2.08222,-1.27109,0.47411,0.34258,0.80983,0.43360,-0.19701,9.20108,12.46358,-0.34576
-0.33233,1.70461,-0.27228,-0.41317,0.08054,0.62053,0.89061,1.42333,0.47117,1.83471,-0.87050,-0.09753,0.34247,0.80737,0.43364,-0.20693,-4.45653,-5.34494,0.79569
-0.33791,1.70512,-0.26414,-0.39281,0.07079,0.61800,0.86137,1.46439,0.45762,1.88932,-0.78730,-0.41098,0.34388,0.80376,0.43333,-0.21896,-3.67345,-1.00273,0.30576
-0.34288,1.70537,-0.25642,-0.36318,0.05934,0.61144,0.90710,1.62440,0.39613,2.27496,-0.81655,-0.47400,0.34806,0.79744,0.43356,-0.23445,2.53058,12.03979,-4.06589
-0.34681,1.70561,-0.24843,-0.34184,0.05055,0.60472,0.82831,1.59229,0.38655,1.99052,-0.80837,-0.45691,0.34963,0.79425,0.43232,-0.24500,-2.90309,3.69392,-1.36408
-0.35012,1.70584,-0.24045,-0.32086,0.04366,0.59871,0.73889,1.47201,0.42600,1.26081,-0.30652,-0.34722,0.34871,0.79275,0.43109,-0.25318,-7.42491,-9.38046,2.24679
-0.35353,1.70599,-0.23236,-0.30513,0.03681,0.59469,0.72429,1.40382,0.47556,1.07158,-0.46526,-0.31452,0.34723,0.79029,0.43090,-0.26307,-1.01139,-6.05773,3.39085
-0.35647,1.70612,-0.22425,-0.28585,0.03131,0.59234,0.73833,1.37788,0.49984,1.61672,-0.27344,0.01668,0.34631,0.78696,0.43107,-0.27377,0.09051,-2.64993,2.57681
-0.35869,1.70623,-0.21580,-0.26019,0.02648,0.59578,0.81683,1.34358,0.48988,2.06046,-0.35144,0.39954,0.34543,0.78227,0.43342,-0.28440,5.48270,-1.43898,-1.31627
-0.36033,1.70619,-0.20700,-0.23096,0.02052,0.60290,0.88634,1.21137,0.47347,2.39182,-0.57138,0.60855,0.34316,0.77820,0.43730,-0.29226,5.97896,-6.52729,-1.99557
-0.36147,1.70592,-0.19806,-0.20058,0.01224,0.61082,0.95848,1.03929,0.43724,2.05076,-0.56240,0.49383,0.34030,0.77428,0.44258,-0.29802,4.03103,-13.37267,-3.39989
-0.36225,1.70555,-0.18925,-0.17121,0.00450,0.61548,1.02589,0.90118,0.41154,2.20547,-0.62612,0.20168,0.33725,0.77011,0.44811,-0.30396,6.94186,-7.56860,-3.88272
-0.36309,1.70521,-0.18063,-0.14900,-0.00138,0.61598,1.00010,0.67355,0.41447,1.86679,-0.55648,-0.13207,0.33246,0.76866,0.45270,-0.30610,0.18540,-15.97205,-1.30067
-0.36329,1.70493,-0.17243,-0.12204,-0.00499,0.61049,0.93400,0.41702,0.42526,1.51056,0.01259,-0.46079,0.32671,0.76881,0.45687,-0.30572,-3.71403,-17.79712,-0.59712
-0.36339,1.70486,-0.16440,-0.09850,-0.00492,0.60387,0.97663,0.37804,0.41888,1.01273,0.22230,-0.40712,0.32285,0.76567,0.46161,-0.31056,0.73375,-7.10536,0.01431
-0.36357,1.70490,-0.15624,-0.08061,-0.00325,0.59987,1.14874,0.56349,0.40432,1.07533,0.22375,-0.28963,0.32106,0.75792,0.46744,-0.32245,10.33908,11.42459,-0.94069
-0.36356,1.70481,-0.14827,-0.06362,-0.00401,0.59424,1.30683,0.77597,0.38683,1.42161,-0.41257,-0.54907,0.32014,0.74879,0.47306,-0.33620,13.13410,17.32893,0.03668
-0.36329,1.70437,-0.14062,-0.04633,-0.00983,0.58491,1.34214,0.82122,0.36391,1.51147,-0.67478,-0.80553,0.31851,0.74213,0.47782,-0.34567,4.03161,7.38853,-1.14216
-0.36277,1.70370,-0.13340,-0.02881,-0.01793,0.57073,1.27478,0.72534,0.34809,1.32572,-0.63766,-1.21552,0.31578,0.73843,0.48164,-0.35075,-3.30825,-6.23693,-1.61862
-0.36194,1.70295,-0.12661,-0.01053,-0.02529,0.55348,1.18859,0.66859,0.32265,1.23044,-0.58885,-1.27762,0.31404,0.73492,0.48452,-0.35570,-6.41076,-4.79181,-2.32588
-0.36085,1.70200,-0.12015,0.00807,-0.03435,0.53513,1.10330,0.62653,0.28190,1.40432,-0.59940,-1.29848,0.31300,0.73144,0.48713,-0.36017,-6.55396,-4.19777,-2.14282
-0.35926,1.70089,-0.11378,0.03023,-0.04376,0.51868,1.09828,0.70349,0.19323,1.44122,-0.56574,-1.02825,0.31437,0.72501,0.49068,-0.36711,-2.93820,3.02808,-5.46909
-0.35753,1.69967,-0.10732,0.04933,-0.05266,0.50745,1.15309,0.84389,0.11044,1.54676,-0.73723,-0.82412,0.31666,0.71631,0.49490,-0.37645,3.05448,11.18919,-6.03113
-0.35520,1.69801,-0.10103,0.07345,-0.06643,0.49643,1.26834,1.04444,-0.00667,1.38447,-0.96510,-0.59720,0.32073,0.70456,0.50038,-0.38775,6.04357,13.14355,-7.01063
-0.35314,1.69626,-0.09463,0.08869,-0.07845,0.48867,1.37742,1.20958,-0.09098,1.21629,-0.97769,-0.80343,0.32435,0.69223,0.50603,-0.39943,8.80983,14.17706,-7.09919
-0.35090,1.69447,-0.08861,0.10300,-0.08841,0.47755,1.45313,1.35980,-0.15131,1.33489,-0.81428,-1.03063,0.32823,0.67956,0.51098,-0.41153,7.57402,14.43447,-4.99837
-0.34823,1.69249,-0.08306,0.12065,-0.09910,0.46216,1.47232,1.38065,-0.20818,1.19848,-0.73532,-0.95010,0.33117,0.66871,0.51607,-0.42051,1.97240,4.54013,-3.90913
-0.34572,1.69055,-0.07747,0.13249,-0.10716,0.44979,1.44512,1.26537,-0.22953,0.82976,-0.57008,-0.88858,0.33174,0.66069,0.52134,-0.42619,-1.46925,-6.58149,-2.20575
-0.34327,1.68856,-0.07201,0.14107,-0.11427,0.43827,1.41099,1.11966,-0.23238,0.40995,-0.46326,-0.74577,0.33115,0.65384,0.52669,-0.43061,-3.30666,-10.99772,-1.35309
-0.34102,1.68648,-0.06669,0.14533,-0.12145,0.42703,1.42100,1.01272,-0.20422,0.07058,-0.38798,-0.69904,0.32945,0.64647,0.53230,-0.43612,0.06903,-7.61773,-0.01057
-0.33890,1.68445,-0.06137,0.14668,-0.12640,0.41754,1.41440,0.91822,-0.17068,0.17127,-0.32016,-0.60664,0.32752,0.63944,0.53745,-0.44157,0.53629,-6.45974,1.83768
-0.33672,1.68244,-0.05606,0.14866,-0.13012,0.41005,1.42445,0.82941,-0.14987,0.09283,-0.26988,-0.52226,0.32519,0.63226,0.54311,-0.44669,0.52131,-7.36181,0.99088
-0.33445,1.68041,-0.05078,0.15175,-0.13334,0.40403,1.44330,0.79157,-0.12743,0.38233,-0.24065,-0.46030,0.32308,0.62439,0.54846,-0.45271,1.34986,-4.00199,1.11705
-0.33176,1.67825,-0.04558,0.16009,-0.13763,0.39770,1.46540,0.71634,-0.12597,0.72780,-0.31055,-0.41498,0.32036,0.61676,0.55466,-0.45752,1.63488,-3.95710,0.38891
-0.32884,1.67611,-0.04037,0.17047,-0.14099,0.39286,1.45660,0.58649,-0.16074,0.91596,-0.19046,-0.31433,0.31754,0.61025,0.56151,-0.45986,-0.22530,-7.99022,-2.51557
-0.32588,1.67398,-0.03506,0.17881,-0.14335,0.39062,1.45403,0.50534,-0.19643,0.70684,-0.26306,-0.11677,0.31515,0.60322,0.56832,-0.46241,-1.47820,-9.80712,-4.51131
-0.32223,1.67177,-0.02972,0.19539,-0.14638,0.38930,1.52940,0.49728,-0.26240,1.11826,-0.10045,0.00828,0.31334,0.59324,0.57666,-0.46620,4.04972,-1.07435,-4.42769
-0.31820,1.66964,-0.02423,0.21418,-0.14758,0.39029,1.61885,0.53445,-0.33502,1.57944,-0.01573,0.16343,0.31228,0.58163,0.58525,-0.47083,6.05972,3.35155,-4.74502
-0.31403,1.66757,-0.01861,0.23067,-0.14781,0.39300,1.66942,0.53072,-0.39824,1.87090,-0.07312,0.35552,0.31096,0.57074,0.59381,-0.47429,6.15674,2.44292,-6.09522
-0.30848,1.66538,-0.01228,0.26337,-0.14974,0.40535,1.74336,0.34991,-0.56460,2.11562,-0.20820,0.84615,0.30798,0.56059,0.60680,-0.47189,3.77860,-7.52751,-9.83534
-0.30295,1.66299,-0.00568,0.28987,-0.15418,0.41873,1.77845,0.11027,-0.73928,1.87099,-0.36827,1.07213,0.30414,0.55195,0.62077,-0.46637,1.11968,-15.44736,-14.10305
-0.29723,1.66036,0.00124,0.31384,-0.16101,0.43439,1.85330,-0.12245,-0.92134,1.56234,-0.57283,1.20572,0.29935,0.54235,0.63655,-0.45941,3.76801,-15.78940,-15.62859
-0.29143,1.65739,0.00839,0.33440,-0.17162,0.45022,1.95597,-0.32041,-1.09618,1.30794,-0.89194,1.14488,0.29394,0.53144,0.65341,-0.45190,6.50002,-13.00640,-13.90044
-0.28571,1.65401,0.01571,0.34926,-0.18573,0.46500,2.07818,-0.52207,-1.25957,0.89915,-1.13310,0.86078,0.28714,0.51973,0.67156,-0.44321,8.39793,-13.07191,-13.19994
-0.28002,1.65006,0.02316,0.36138,-0.20575,0.47941,2.22238,-0.71845,-1.42709,0.31113,-1.10536,0.71219,0.27935,0.50699,0.69079,-0.43327,6.77538,-11.30198,-11.04955
-0.27473,1.64608,0.03044,0.36505,-0.22257,0.48824,2.38344,-0.80697,-1.49099,-0.01886,-1.37363,0.54871,0.27089,0.49258,0.70861,-0.42644,10.39659,-6.63611,-6.47013
-0.26975,1.64174,0.03752,0.36351,-0.24101,0.49239,2.48129,-0.93258,-1.55409,-0.01947,-1.86388,0.07606,0.26166,0.47912,0.72620,-0.41787,10.86891,-7.47706,-4.04546
-0.26508,1.63667,0.04440,0.35789,-0.26625,0.49289,2.48857,-1.18969,-1.70033,-0.43500,-1.96525,-0.21871,0.25134,0.46832,0.74490,-0.40327,0.73536,-15.29838,-11.55893
-0.26073,1.63103,0.05093,0.34819,-0.29429,0.48751,2.42173,-1.47145,-1.87932,-0.86230,-2.24324,-0.68211,0.24098,0.45933,0.76349,-0.38474,-4.60305,-18.04760,-16.55390
-0.25678,1.62478,0.05688,0.33515,-0.32572,0.47516,2.35919,-1.66963,-2.06363,-1.10712,-2.24472,-0.93176,0.23180,0.44952,0.78153,-0.36527,-6.04889,-12.55005,-17.14908
-0.25315,1.61794,0.06233,0.32024,-0.35976,0.45852,2.30884,-1.82099,-2.23920,-0.92530,-2.91658,-1.67659,0.22292,0.43895,0.79908,-0.34512,-0.25854,-6.93708,-11.59031
-0.24982,1.61026,0.06713,0.30360,-0.39851,0.43526,2.17286,-2.03226,-2.55552,-1.25414,-2.67240,-1.71027,0.21556,0.42991,0.81726,-0.31748,-10.48420,-9.81082,-26.57007
-0.24671,1.60217,0.07145,0.28739,-0.43549,0.40990,2.12374,-2.11150,-2.74336,-1.56081,-2.54264,-1.94989,0.20832,0.41852,0.83397,-0.29314,-4.46273,-4.37301,-17.97802
-0.24393,1.59343,0.07523,0.26977,-0.47459,0.38206,2.17728,-2.12335,-2.87447,-1.27041,-2.87318,-2.13916,0.20060,0.40380,0.85055,-0.27069,4.10254,-1.23711,-8.44745
-0.24123,1.58403,0.07840,0.25434,-0.51503,0.35056,2.26685,-2.11579,-3.05620,-1.00328,-2.82518,-2.26436,0.19364,0.38640,0.86751,-0.24621,7.20101,0.26716,-11.69911
-0.23835,1.57438,0.08142,0.24496,-0.55044,0.32390,2.49244,-2.01104,-3.10980,-1.11158,-2.75553,-2.17037,0.18619,0.36392,0.88405,-0.22662,14.59906,3.22394,-6.99849
-0.23582,1.56137,0.08141,0.23174,-0.63446,0.25336,3.32433,-1.60276,-2.74821,-0.26879,-3.11195,-2.54501,0.17576,0.32389,0.90175,-0.22594,30.90627,6.51481,19.58553
-0.22967,1.54088,0.08623,0.22742,-0.67334,0.22216,3.62778,-1.52233,-2.61167,-0.26926,-3.46775,-2.78679,0.15458,0.27041,0.92912,-0.19927,27.24369,-0.83630,19.63332
-0.22724,1.52681,0.08612,0.21701,-0.74004,0.17725,4.02634,-1.56253,-2.52045,-0.35225,-4.25061,-2.53683,0.13816,0.23437,0.94371,-0.18814,20.82036,-7.93552,9.28205
-0.22490,1.51236,0.08616,0.20709,-0.79975,0.14211,4.31312,-1.67064,-2.65906,-0.56175,-4.45495,-2.66560,0.12214,0.19800,0.95782,-0.16867,20.68568,-8.83117,-7.32932
-0.22265,1.49757,0.08581,0.19803,-0.85174,0.10882,4.50624,-1.75341,-2.87482,-0.76586,-4.40979,-3.12870,0.10738,0.16158,0.97019,-0.14524,17.93770,-6.32740,-15.80411
-0.22081,1.48114,0.08342,0.18510,-0.91707,0.05315,4.71799,-1.79267,-3.15995,-0.78538,-3.82792,-3.89068,0.09376,0.12211,0.98097,-0.11830,15.31623,-0.58806,-17.71499
-0.21872,1.46532,0.08088,0.17815,-0.96003,0.00636,4.88950,-1.75524,-3.29219,-0.69744,-3.26997,-4.00671,0.08124,0.08230,0.98876,-0.09473,15.78538,2.72242,-11.73296
-0.21674,1.44932,0.07743,0.17125,-0.99680,-0.04252,5.10435,-1.72122,-3.29773,-0.91207,-2.68385,-4.06248,0.06749,0.04019,0.99411,-0.07466,16.70937,1.21733,-2.68619
-0.21555,1.43244,0.07122,0.15430,-1.03798,-0.12131,5.53852,-1.81293,-2.99689,-1.22704,-1.63183,-4.60458,0.04617,-0.00914,0.99679,-0.06476,19.91353,-16.48394,15.61906
-0.21486,1.41690,0.06475,0.13337,-1.05388,-0.19038,5.83674,-1.98284,-2.70118,-1.83378,-0.66585,-5.32871,0.02223,-0.05583,0.99663,-0.05586,15.77021,-22.47617,16.85383
-0.21672,1.40297,0.05244,0.07394,-1.03978,-0.34277,6.40688,-2.60494,-1.91534,-3.02815,1.89485,-6.04132,-0.01777,-0.10950,0.99188,-0.06222,14.31912,-38.29657,22.31237
-0.21802,1.37701,0.03578,0.02624,-0.99730,-0.44371,6.70245,-3.42258,-1.24448,-2.95083,3.56705,-6.38282,-0.09185,-0.20067,0.97345,-0.06080,8.82803,-65.64975,18.71201
-0.22037,1.36719,0.02379,-0.01258,-0.93827,-0.52683,6.66009,-4.06580,-0.99004,-2.03357,4.62827,-6.28440,-0.14143,-0.23986,0.95844,-0.06207,-5.18107,-60.60797,-0.06814
-0.22250,1.35866,0.01196,-0.04009,-0.87410,-0.59011,6.39477,-4.39125,-1.09287,-1.65245,5.86259,-5.41898,-0.18374,-0.27104,0.94338,-0.05297,-14.33566,-26.29953,-21.38065
-0.22460,1.35280,-0.00075,-0.06141,-0.78638,-0.65289,5.91421,-4.49472,-1.39182,-0.90973,6.67791,-4.42937,-0.22038,-0.29239,0.92984,-0.03666,-23.63184,2.47497,-31.76929
-0.22614,1.34984,-0.01453,-0.07070,-0.67308,-0.71870,5.39502,-4.47223,-1.72324,-0.22866,7.79480,-4.15771,-0.25355,-0.30889,0.91651,-0.01764,-24.11331,16.85082,-28.81012
-0.22676,1.34989,-0.02935,-0.06527,-0.53599,-0.78863,4.96034,-4.51223,-1.92349,0.53458,9.72602,-4.38529,-0.28804,-0.32447,0.90097,-0.00205,-20.34045,9.31750,-20.12184
-0.22657,1.35199,-0.04452,-0.04894,-0.39537,-0.85066,4.56594,-4.69554,-1.98748,1.43180,10.65113,-4.30462,-0.32626,-0.33805,0.88273,0.00845,-24.76977,-2.53068,-17.79600
-0.22525,1.35660,-0.06045,-0.01931,-0.24660,-0.91024,4.16994,-4.97222,-2.02455,2.65270,10.68685,-4.11536,-0.36800,-0.34837,0.86194,0.01636,-26.58436,-13.29120,-16.84292
-0.22242,1.36350,-0.07699,0.02649,-0.09484,-0.96742,3.75602,-5.18569,-2.09876,4.17899,11.20860,-4.24245,-0.40902,-0.35462,0.84045,0.02428,-27.23826,-9.81258,-18.42382
-0.21756,1.37310,-0.09454,0.09273,0.06544,-1.02682,3.38802,-5.23331,-2.17615,5.70596,11.61354,-4.52565,-0.44598,-0.35922,0.81913,0.03302,-25.12300,-1.07619,-15.68623
-0.20990,1.38583,-0.11327,0.18656,0.23876,-1.09166,3.18000,-5.13226,-2.15655,7.62719,12.77427,-4.73331,-0.47724,-0.36686,0.79747,0.04128,-13.32755,12.84516,-8.17081
-0.19930,1.40218,-0.13284,0.30399,0.42977,-1.15569,2.95007,-5.15023,-2.10699,8.21453,14.33988,-4.26729,-0.51001,-0.37257,0.77391,0.04627,-14.16878,5.14884,4.83996
-0.18839,1.41800,-0.15184,0.39940,0.56993,-1.19762,2.78954,-5.43985,-2.03505,10.48678,13.86270,-4.12748,-0.54929,-0.37780,0.74383,0.04754,-17.73154,-6.65213,-28.13418
-0.16922,1.44331,-0.17240,0.59266,0.81620,-1.25153,2.51573,-6.06228,-1.70214,10.77135,13.74132,-1.80571,-0.59450,-0.38239,0.70659,0.03284,-22.09181,-30.78188,1.02232
-0.15163,1.46596,-0.19066,0.72744,0.97931,-1.26382,2.08014,-6.82223,-1.65196,10.71206,14.34866,-0.04865,-0.64619,-0.37619,0.66377,0.01810,-31.53681,-45.12939,-14.84148
-0.13179,1.49160,-0.20739,0.86291,1.14677,-1.25078,1.39179,-7.79226,-1.82309,11.50875,14.82604,2.33737,-0.70659,-0.35442,0.61247,-0.00215,-44.95584,-70.81681,-42.65264
-0.10506,1.52682,-0.21973,1.07141,1.42018,-1.17761,0.12102,-8.98681,-2.25591,11.67357,16.16056,5.84010,-0.77357,-0.30535,0.55426,-0.03394,-52.06036,-56.96296,-64.34718
-0.08129,1.56026,-0.23040,1.19893,1.61756,-1.09557,-0.82836,-9.55397,-2.92830,10.33533,18.07597,7.99402,-0.82767,-0.25125,0.49902,-0.05295,-40.54615,-46.17653,-77.43546
-0.06379,1.59236,-0.23558,1.33576,1.88378,-0.97120,-2.18889,-10.15967,-4.08628,9.49090,21.72803,9.89347,-0.88044,-0.16509,0.43839,-0.07335,-25.97858,-43.48361,-115.29410
-0.06155,1.62028,-0.24275,1.45690,2.19529,-0.83158,-3.58892,-10.47357,-5.94063,8.67958,23.41291,10.00220,-0.92175,-0.04711,0.37633,-0.08077,-6.95929,-40.52729,-158.66440
-0.06294,1.65332,-0.24964,1.59915,2.57576,-0.68048,-4.67076,-10.24466,-8.44850,10.92010,24.42192,10.20332,-0.94115,0.09600,0.31734,-0.06571,38.15658,-46.57240,-162.10500
-0.05800,1.69199,-0.25690,1.73699,2.87744,-0.57356,-4.87003,-9.24532,-10.46686,14.37271,25.87205,9.63109,-0.93454,0.22360,0.27498,-0.03212,93.06445,-27.64148,-146.87260
-0.04386,1.73784,-0.26339,1.99010,3.23694,-0.45538,-4.29490,-7.80511,-12.53610,24.10834,26.31313,10.35038,-0.90386,0.34956,0.24498,0.02890,145.58580,-57.07105,-111.44530
-0.01621,1.79321,-0.26576,2.49649,3.67206,-0.26638,-2.59621,-5.55994,-14.80649,40.82437,25.93116,15.38461,-0.83904,0.46929,0.24391,0.12766,193.35960,-69.70772,-89.15291
0.02793,1.85111,-0.26308,3.06111,3.94629,-0.06309,-0.78327,-4.25486,-15.81666,52.90374,18.59495,19.60297,-0.76900,0.55470,0.23001,0.21915,192.96920,-97.24234,-49.84876
0.09279,1.90730,-0.25123,3.90041,4.12577,0.27679,1.16100,-3.40841,-16.67264,66.78427,6.31166,27.89433,-0.67964,0.62645,0.20993,0.31872,129.61840,-123.63320,-25.04554
0.17815,1.95017,-0.22537,5.04123,4.05479,0.83655,2.96351,-2.95557,-17.70417,75.86426,-16.37095,41.69081,-0.56372,0.69037,0.17929,0.41649,75.33734,-97.17414,-55.76166
0.27545,1.97467,-0.18752,6.11065,3.66219,1.48284,4.94137,-2.81148,-18.40175,76.92014,-41.70443,52.10227,-0.43069,0.72770,0.14741,0.51307,64.43069,-116.62010,-46.69135
0.38116,1.97989,-0.13823,6.98830,3.01313,2.13926,6.82838,-3.21663,-19.20447,69.18748,-68.66898,58.49304,-0.27459,0.73962,0.10095,0.60611,40.59073,-146.14780,-81.12041
0.49042,1.94100,-0.06874,7.81601,1.80949,3.00030,8.77113,-4.03149,-20.00468,47.98357,-104.60570,63.38466,-0.09736,0.71554,0.04548,0.69025,-12.26544,-133.39760,-113.10610
0.57715,1.83666,0.02027,8.24015,-0.19932,4.05467,10.62996,-2.81914,-21.18020,5.70863,-147.70650,62.80012,0.11771,0.69342,0.02331,0.71047,78.43164,-80.37402,-69.78687
0.62729,1.69477,0.10678,7.95349,-2.45138,4.86118,13.64750,-0.26629,-21.42320,-44.65936,-177.54940,50.25593,0.34959,0.64732,0.06084,0.67459,197.66970,-175.60080,-27.92754
0.66307,1.54866,0.18281,7.33874,-4.27863,5.24830,17.19057,0.58222,-21.32787,-81.42724,-195.14920,27.29784,0.57272,0.52796,0.09939,0.61917,108.19380,-278.59960,-147.32770
0.58370,1.30433,0.21934,5.39472,-7.39878,5.15037,26.60790,3.80864,-19.73576,-160.39440,-187.60810,-56.92917,0.83559,0.28926,0.26451,0.38491,227.09840,-199.47470,-418.24430
0.43555,1.10618,0.17628,2.63297,-9.49053,3.91542,38.65524,4.64461,-9.82721,-208.94250,-100.89230,-117.34100,0.84036,-0.05994,0.53871,-0.00139,565.66250,-153.21600,-898.93990
0.26082,0.99741,0.07752,-0.14865,-10.26000,1.93326,43.89277,-5.61100,-1.50723,-183.49080,-15.35306,-142.58340,0.57309,-0.45723,0.64680,-0.21015,749.67210,520.44720,-727.46010
0.12007,0.97043,-0.03940,-2.07164,-9.64131,-0.28054,37.06577,-14.45479,-5.12987,-102.44930,86.21130,-148.13020,0.39730,-0.68373,0.60222,-0.10956,380.29590,871.71550,-16.89319
0.04059,1.02397,-0.14405,-2.83195,-7.79222,-1.86531,26.54950,-11.25685,-9.21577,-9.76000,126.13100,-51.61680,0.43635,-0.70324,0.55821,0.05870,-274.16360,609.33940,404.96010
0.00912,1.05026,-0.19204,-2.78154,-6.45370,-2.14292,20.81850,-7.94827,-9.16514,22.05071,103.55630,3.73254,0.46150,-0.71038,0.52006,0.10914,-296.39370,437.28630,357.76580
0.20544,0.97696,-0.12360,-2.38224,-5.25606,-1.81913,14.86535,-7.26099,-5.70906,31.52129,54.58725,35.16130,0.45140,-0.65821,0.59163,0.11391,-409.15520,111.00870,72.10999
0.41640,0.83765,-0.02828,-2.01443,-4.68863,-1.25969,9.29392,-8.74662,-1.92963,14.04127,24.34629,36.65606,0.38536,-0.58477,0.70946,0.07875,-422.20930,-114.83920,-79.27145
0.46956,0.75458,0.00887,-1.94358,-4.43836,-0.82616,4.86215,-8.43842,-0.95903,-4.11272,15.86294,31.67071,0.33482,-0.52711,0.77517,0.09571,-378.10940,-24.25333,-107.52440
0.47830,0.69100,0.04034,-2.07532,-4.18287,-0.40976,0.72594,-5.66611,-1.49015,-16.41046,21.58507,21.77605,0.33376,-0.45480,0.80412,0.18749,-287.16170,199.22200,-143.59360
0.45415,0.64469,0.05858,-2.27602,-3.89450,-0.16076,-1.60996,-1.69827,-1.94655,-18.36035,29.18740,15.47701,0.38494,-0.38889,0.78670,0.28581,-151.42890,293.63050,-129.14750
0.41472,0.61886,0.07526,-2.55385,-3.42309,0.04208,-3.35369,3.97013,-2.33217,-16.63677,32.53040,9.25781,0.49405,-0.29146,0.70977,0.40890,-92.23589,382.82720,-62.96093
0.36867,0.60129,0.08300,-2.76718,-2.97420,0.11683,-3.27818,7.16754,-3.39208,-11.16993,30.87328,6.55314,0.55843,-0.25087,0.61351,0.49882,9.59058,250.62970,-147.26040
0.32364,0.58395,0.08795,-2.88914,-2.62677,0.14439,-3.07685,7.84969,-4.21482,-6.14865,28.25678,3.51882,0.57591,-0.23291,0.54790,0.56025,-9.37082,97.89769,-99.40865
0.28557,0.58235,0.09148,-2.96320,-2.20518,0.14714,-2.92178,6.87165,-4.85488,-0.63495,26.36295,-0.00837,0.55984,-0.23670,0.51403,0.60524,-29.44394,-51.29541,-37.51566
0.24424,0.57622,0.09282,-2.96428,-1.85592,0.12096,-2.95046,5.25364,-4.85254,1.12799,25.00722,-3.77047,0.53152,-0.24230,0.50786,0.63313,-36.90519,-105.79270,30.11126
0.20603,0.57715,0.09042,-2.91981,-1.46964,0.04470,-2.69544,3.98558,-4.74245,4.03142,24.51656,-6.98155,0.50970,-0.25269,0.49883,0.65385,-14.16490,-83.74535,23.04408
0.17100,0.57913,0.08485,-2.83886,-1.14261,-0.05424,-2.31956,3.09996,-4.45818,7.14768,23.09565,-8.03499,0.49655,-0.26166,0.48795,0.66849,9.59269,-65.38194,22.09869
0.13929,0.58414,0.07696,-2.72651,-0.83798,-0.16779,-1.84016,2.39186,-4.06920,8.44744,21.13930,-9.08075,0.48884,-0.27188,0.47863,0.67678,17.09782,-61.21400,32.91372
0.10923,0.58890,0.06810,-2.61437,-0.60243,-0.26874,-1.18645,2.12855,-3.87531,9.25894,18.90724,-8.92008,0.49117,-0.28349,0.45828,0.68437,38.14086,-42.63358,19.71688
0.08444,0.59887,0.05578,-2.45186,-0.34076,-0.39497,-0.02430,2.08066,-3.98196,10.67032,13.94975,-6.24398,0.50672,-0.30771,0.42238,0.68567,70.22775,-25.63692,-13.87465
0.06184,0.60576,0.04607,-2.28924,-0.17197,-0.45876,0.84390,1.87591,-4.08752,13.33321,10.34254,-2.36335,0.51773,-0.33328,0.38804,0.68579,67.34595,-25.28065,-25.30086
0.03966,0.61050,0.03846,-2.15397,-0.07072,-0.47740,1.06311,1.35369,-3.95057,15.39308,9.14158,-0.20792,0.51502,-0.35468,0.37028,0.68691,27.68424,-45.37675,-5.48238
0.02832,0.61911,0.03335,-1.89829,0.06324,-0.45577,0.70931,0.36593,-3.21848,17.04867,6.74868,3.56048,0.49945,-0.36996,0.38459,0.68247,-27.38219,-58.71070,41.87805
0.02229,0.62642,0.03214,-1.61274,0.15620,-0.38100,0.17509,-0.09426,-2.47402,17.78090,4.92594,5.46287,0.48534,-0.37107,0.39909,0.68372,-45.96678,-34.81451,48.57816
0.01577,0.63134,0.03236,-1.38839,0.19661,-0.30101,0.10849,0.26469,-2.08036,17.70863,2.79529,6.85053,0.48841,-0.36446,0.39129,0.68958,-15.68204,11.66780,40.01517
0.01711,0.63515,0.03683,-1.09571,0.21187,-0.17557,0.37933,1.39779,-1.72617,17.79432,-0.64762,8.53513,0.51149,-0.34232,0.36504,0.69853,25.29760,59.45855,12.76159
0.01855,0.63641,0.04238,-0.85782,0.18851,-0.05738,0.58479,2.51137,-1.25797,16.36077,-2.51429,8.45486,0.53829,-0.31085,0.33899,0.70619,30.67683,81.52463,37.15525
0.02186,0.63622,0.04904,-0.64067,0.14910,0.05262,0.72009,3.50375,-0.87932,15.09721,-3.26174,7.62402,0.56401,-0.27548,0.31064,0.71380,23.29524,70.17834,26.39253
0.03316,0.63324,0.05834,-0.34581,0.07520,0.18001,0.47114,4.35987,0.02168,25.97941,-7.11007,11.04570,0.58686,-0.22253,0.29824,0.71912,5.37314,54.52513,50.87467
0.05167,0.62769,0.07024,-0.01115,-0.01933,0.31848,0.69615,5.91061,0.63438,18.88411,-5.48178,8.08535,0.62399,-0.15298,0.26040,0.72071,27.43835,104.92190,60.31409
0.06779,0.62416,0.07974,0.22504,-0.06502,0.39378,0.83642,6.96697,0.57695,12.67848,-0.21351,1.77693,0.64918,-0.09705,0.21143,0.72419,9.64934,82.11794,-4.94121
0.08030,0.62569,0.08432,0.36492,-0.02823,0.38336,0.58301,7.08440,0.49225,9.16099,4.26561,-2.50135,0.65754,-0.05620,0.17935,0.72960,-15.28958,16.60995,3.74986
0.09247,0.62940,0.08622,0.47190,0.03212,0.33633,0.41128,7.06750,0.15879,6.33616,4.11131,-3.99589,0.66242,-0.02392,0.14275,0.73502,-22.35754,-1.65260,-6.96198
0.10400,0.63250,0.08686,0.54713,0.07072,0.27897,0.31612,6.89311,-0.25309,5.09254,1.56027,-4.31179,0.66554,0.00055,0.10504,0.73893,-21.00867,-4.73556,-27.46837
0.11461,0.63424,0.08610,0.59727,0.08289,0.21695,0.13691,6.27085,-0.35210,4.03817,-0.18038,-4.72882,0.66480,0.01845,0.08370,0.74209,-17.20536,-35.67491,-8.70444
0.12506,0.63475,0.08448,0.63571,0.07436,0.15352,-0.05562,5.30433,-0.00267,2.81369,-1.40384,-4.63211,0.66254,0.03372,0.08385,0.74355,-7.66970,-65.78191,24.04886
0.13545,0.63394,0.08227,0.66359,0.04848,0.09273,-0.08849,4.38505,0.37895,1.52995,-2.09521,-4.10406,0.66272,0.04658,0.08978,0.74201,6.10319,-68.21443,29.11639
0.14516,0.63190,0.07941,0.67892,0.01473,0.03757,-0.01490,3.56616,0.66936,0.90674,-2.33491,-3.61923,0.66478,0.05659,0.09713,0.73854,12.57863,-59.04647,19.93176
