posX, posY, posZ, velX, velY, velZ, angVelX, angVelY, angVelZ, accX, accY, accZ, rotX, rotY, rotZ, rotW, angAccX, angAccY, angAccZ
0.35710,1.00953,-0.32639,0.02919,0.36519,-0.13342,0.74111,1.97106,1.60457,0.91894,-3.63340,0.79842,0.14861,0.76248,-0.05679,0.62714,-1.83648,-4.51454,-44.87126
0.35810,1.01293,-0.32818,0.04336,0.32076,-0.13238,0.29610,1.65308,0.95988,0.75206,-1.68407,-0.46607,0.14963,0.76227,-0.07091,0.62573,-25.63841,-21.39748,-40.09490
0.35874,1.01746,-0.33151,0.04825,0.30459,-0.15390,-0.43653,1.38151,0.50636,0.34340,-0.34349,-1.80708,0.14111,0.76076,-0.09263,0.62670,-50.12769,-21.34059,-29.58459
0.35902,1.02348,-0.33589,0.04672,0.31531,-0.18745,-0.87522,1.20296,0.24486,-0.07293,1.26922,-3.82429,0.13293,0.76038,-0.10966,0.62620,-49.29510,-20.95772,-18.58701
0.35851,1.03073,-0.34129,0.03066,0.35341,-0.22927,-0.64087,1.31411,0.25767,-1.56912,3.95960,-4.28943,0.13125,0.76824,-0.10903,0.61701,3.49789,1.74701,-7.15474
0.35620,1.04141,-0.34806,-0.00714,0.42845,-0.28105,-0.23324,1.42681,0.46499,-3.25145,6.21217,-3.40768,0.12942,0.77839,-0.09841,0.60636,31.75180,11.97323,8.48664
0.35306,1.05323,-0.35484,-0.04907,0.50521,-0.32195,-0.00424,1.40366,0.68058,-3.80902,6.75099,-2.91484,0.12448,0.78593,-0.08823,0.59919,26.27539,3.30407,15.38599
0.34865,1.06671,-0.36217,-0.10057,0.59137,-0.36216,-0.14332,1.16402,0.87705,-3.97694,6.05647,-1.98763,0.11263,0.78790,-0.08461,0.59947,3.18442,-10.18549,15.33652
0.34375,1.08062,-0.36987,-0.14842,0.66474,-0.39999,-0.23227,0.86216,0.96129,-3.05531,4.24425,-4.05802,0.10305,0.78695,-0.08204,0.60279,-19.53866,-29.48980,10.46255
0.33802,1.09553,-0.37901,-0.19869,0.73830,-0.45107,0.57645,0.96641,1.04142,-3.60524,4.88788,-4.70101,0.11100,0.79581,-0.05726,0.59253,41.88146,4.16051,0.74913
0.33032,1.11251,-0.38982,-0.26861,0.83012,-0.51673,2.14034,1.35500,1.24518,-4.71498,5.90895,-4.35451,0.13312,0.81165,-0.00621,0.56874,93.91391,28.79205,6.72310
0.32141,1.13009,-0.40092,-0.34228,0.91204,-0.57350,3.19540,1.61661,1.46620,-5.82057,6.29468,-2.78945,0.14932,0.82370,0.04139,0.54545,90.90559,32.05594,11.50530
0.31188,1.14750,-0.41180,-0.40919,0.97491,-0.61548,3.47792,1.57800,1.62126,-5.84263,5.25133,-2.79992,0.15497,0.82948,0.07474,0.53139,40.42368,5.40590,10.62624
0.29974,1.16605,-0.42436,-0.50048,1.04107,-0.67321,3.40591,1.43795,1.71758,-5.78601,3.56354,-3.59957,0.15536,0.83280,0.09992,0.52185,0.83602,-10.36982,5.25286
0.28754,1.18388,-0.43740,-0.57486,1.08427,-0.72704,3.41326,1.43957,1.67003,-4.94334,2.38731,-4.45548,0.16003,0.83697,0.12352,0.50854,-5.57109,-5.19944,-1.11431
0.27668,1.20058,-0.44983,-0.61376,1.10382,-0.75984,3.54111,1.56015,1.59178,-4.72362,1.97872,-4.63526,0.16833,0.84202,0.14911,0.49034,4.66710,7.59394,-5.03058
0.26078,1.21976,-0.46643,-0.71687,1.15378,-0.84473,4.45046,2.27328,1.28592,-4.93127,2.35100,-3.42277,0.19873,0.85087,0.18882,0.44819,37.88272,41.86774,-9.15620
0.24595,1.23838,-0.48068,-0.78859,1.18810,-0.88197,5.13355,2.77533,1.13358,-5.36919,2.50939,-1.57952,0.22445,0.85526,0.22883,0.40717,50.55690,46.35841,-5.93174
0.23058,1.25678,-0.49443,-0.85276,1.21297,-0.90405,5.25218,2.94234,1.00292,-5.61014,1.96541,-0.62318,0.24265,0.85666,0.25820,0.37494,23.44254,29.09766,-5.92297
0.21365,1.27532,-0.50830,-0.92648,1.23643,-0.92275,4.98735,2.93803,0.82387,-5.27148,1.57530,-0.97751,0.25671,0.85737,0.27691,0.34976,-15.88692,4.35737,-8.46666
0.19596,1.29384,-0.52263,-0.99631,1.25502,-0.94467,4.48874,2.92389,0.60604,-4.90052,1.17478,-1.52027,0.26860,0.85933,0.28632,0.32775,-32.35496,0.38445,-6.94091
0.17751,1.31266,-0.53722,-1.06317,1.27437,-0.96566,3.89674,2.95433,0.37339,-4.91357,1.72586,-1.33959,0.27986,0.86274,0.28865,0.30665,-47.91130,3.33834,-7.86599
0.15697,1.33244,-0.55097,-1.14911,1.30789,-0.96972,3.50073,3.12211,0.26323,-5.78307,2.65759,0.38927,0.29099,0.86675,0.29274,0.27997,-30.59813,10.36761,-0.16035
0.13599,1.35268,-0.56318,-1.22350,1.34036,-0.95021,3.50577,3.31119,0.30294,-6.47212,3.03656,1.79273,0.30257,0.86787,0.30667,0.24739,-10.42435,11.30207,5.78537
0.11278,1.37391,-0.57335,-1.31376,1.37904,-0.90509,3.84454,3.69407,0.38988,-6.25165,2.59348,4.05455,0.31755,0.86613,0.32807,0.20335,23.62097,24.67122,7.30025
0.08929,1.39467,-0.58138,-1.39180,1.40950,-0.83697,3.91507,3.86723,0.42847,-5.01529,1.65109,6.53095,0.32984,0.86348,0.34416,0.16483,15.75114,20.27049,5.68593
0.06567,1.41512,-0.58711,-1.45541,1.42863,-0.74818,3.65916,3.73742,0.42299,-4.11377,1.03777,7.16018,0.33768,0.86147,0.35322,0.13814,-15.35827,-7.46692,2.31962
0.04210,1.43540,-0.59039,-1.50465,1.43894,-0.64249,3.47939,3.63153,0.36252,-3.20008,0.50551,7.91703,0.34704,0.85788,0.36204,0.11193,-17.88175,-10.22725,-0.63341
0.01885,1.45495,-0.59114,-1.53957,1.43865,-0.52158,3.45209,3.57949,0.28026,-2.01561,-0.37707,9.19102,0.35832,0.85162,0.37332,0.08357,-2.69494,-1.16664,-5.26912
-0.00400,1.47375,-0.58993,-1.56172,1.42714,-0.39628,3.24353,3.42611,0.18804,-1.08049,-1.15306,9.18078,0.36787,0.84641,0.38018,0.06100,-12.63114,-8.07476,-6.13956
-0.02628,1.49228,-0.58800,-1.56980,1.41098,-0.28854,3.11605,3.35384,0.09816,-0.51571,-1.45177,8.78227,0.37831,0.84004,0.38712,0.03683,-16.12559,-9.90791,-4.39341
-0.04797,1.50914,-0.58218,-1.56830,1.37732,-0.14668,3.17098,3.43205,-0.01741,0.48275,-2.41173,8.73322,0.39184,0.83029,0.39627,0.00714,1.16491,6.26411,-6.92508
-0.06887,1.52520,-0.57620,-1.55539,1.33721,-0.02888,3.14713,3.48648,-0.12553,1.43163,-3.35947,8.37432,0.40509,0.82027,0.40324,-0.02137,0.48150,7.14197,-6.36879
-0.08861,1.53981,-0.56820,-1.52720,1.28174,0.09539,2.87000,3.43876,-0.22059,2.25741,-3.87985,7.69627,0.41671,0.81315,0.40399,-0.04389,-16.00325,-0.27101,-3.22371
-0.10760,1.55354,-0.56027,-1.49308,1.22587,0.19531,2.50292,3.30983,-0.27861,2.77193,-4.05460,6.97922,0.42646,0.80792,0.40191,-0.06206,-25.50639,-7.32808,-0.17389
-0.12615,1.56701,-0.55210,-1.46024,1.17761,0.27687,2.21079,3.22221,-0.29548,2.69495,-3.72028,6.76395,0.43547,0.80274,0.39932,-0.08072,-27.97769,-8.30618,2.34958
-0.14399,1.57950,-0.54161,-1.42388,1.12375,0.37305,1.98135,3.12053,-0.24578,2.65449,-3.66444,6.88852,0.44219,0.79808,0.39710,-0.09921,-16.60398,-6.88481,5.33723
-0.16106,1.59100,-0.52898,-1.38273,1.06659,0.48129,1.81825,2.98371,-0.10744,2.66077,-3.26329,6.59034,0.44541,0.79427,0.39610,-0.11765,-9.79975,-9.92068,8.68167
-0.17777,1.60251,-0.51607,-1.34456,1.01971,0.57305,1.73963,2.86550,0.06826,2.98952,-3.36671,6.58103,0.44657,0.79030,0.39637,-0.13748,-3.04846,-8.39292,11.73788
-0.19365,1.61302,-0.50198,-1.30303,0.96884,0.66142,1.60462,2.63676,0.27987,3.27632,-3.82588,6.10282,0.44415,0.78867,0.39642,-0.15357,-4.73678,-16.28971,14.18938
-0.20842,1.62245,-0.48718,-1.25436,0.91412,0.74137,1.53591,2.43856,0.42772,3.24168,-3.33272,5.17882,0.44176,0.78627,0.39748,-0.16924,-7.97898,-20.12125,12.18418
-0.22295,1.63194,-0.47255,-1.21259,0.87104,0.80209,1.76130,2.49506,0.52700,3.22527,-3.08180,4.46515,0.44130,0.77804,0.40259,-0.19452,12.27430,-1.75584,4.55987
-0.23627,1.64064,-0.45768,-1.16240,0.82369,0.85446,1.79950,2.52077,0.76627,4.26114,-4.04878,3.21068,0.43645,0.77364,0.40351,-0.21947,16.56706,1.48678,9.10098
-0.24758,1.64748,-0.44320,-1.09274,0.75893,0.89132,1.49311,2.35394,1.01338,4.68292,-4.25203,1.81056,0.42922,0.77616,0.39761,-0.23505,-15.75558,-14.49757,18.51186
-0.25787,1.65376,-0.42941,-1.02072,0.69728,0.91135,1.23648,2.24160,1.11646,5.42386,-4.41515,1.18144,0.42500,0.77709,0.39135,-0.24972,-16.23156,-10.91553,12.02579
-0.26676,1.65916,-0.41578,-0.94094,0.63538,0.92735,1.03726,2.13104,1.11692,5.97358,-4.33185,1.24970,0.42273,0.77676,0.38585,-0.26281,-14.47762,-8.25110,3.16599
-0.27504,1.66426,-0.40206,-0.87038,0.58265,0.94124,0.87420,1.98757,1.06805,6.03863,-4.08409,1.18004,0.42112,0.77617,0.38135,-0.27348,-13.28346,-13.74927,-1.02729
-0.28036,1.66768,-0.38767,-0.77151,0.51575,0.96176,0.91520,1.98169,0.83331,5.92228,-3.84697,1.15319,0.42484,0.76950,0.38105,-0.28668,-2.85643,-3.84040,-12.29755
-0.28515,1.67118,-0.37372,-0.68184,0.46216,0.97306,1.07293,2.10487,0.55551,6.92549,-3.72333,0.46507,0.43147,0.75817,0.38283,-0.30405,9.95388,12.71546,-21.67174
-0.28789,1.67381,-0.36043,-0.57892,0.40584,0.97209,1.10497,2.14751,0.26260,6.16598,-3.42154,-0.38697,0.43975,0.74740,0.38365,-0.31753,-0.60001,2.34103,-19.70511
-0.29028,1.67691,-0.34752,-0.49179,0.36715,0.96459,1.08111,2.10624,0.06649,6.39484,-2.59676,-0.46332,0.44639,0.73832,0.38392,-0.32898,-1.24515,2.22968,-14.78985
-0.29319,1.68058,-0.33441,-0.43270,0.34474,0.96181,1.04763,1.99713,-0.03197,5.91316,-2.18202,-0.03840,0.45072,0.73094,0.38448,-0.33876,-6.62607,-6.86691,-11.17646
-0.29342,1.68332,-0.32115,-0.34716,0.31322,0.96251,1.02306,1.77200,-0.17988,5.14029,-1.78999,-0.11017,0.45506,0.72396,0.38797,-0.34394,-3.96518,-14.22810,-10.24297
-0.29344,1.68630,-0.30845,-0.27527,0.29178,0.95345,1.05172,1.70976,-0.34925,4.76988,-1.27542,-1.06584,0.46144,0.71411,0.39133,-0.35211,-0.37144,-8.19121,-11.37246
-0.29301,1.68932,-0.29668,-0.21060,0.27456,0.93357,1.14049,1.84502,-0.55159,4.22861,-1.20555,-1.61929,0.47096,0.69985,0.39405,-0.36488,4.01481,7.83648,-14.81760
-0.29279,1.69239,-0.28531,-0.16336,0.26214,0.91184,1.18100,1.95240,-0.64839,3.99403,-1.16450,-1.92546,0.47908,0.68658,0.39522,-0.37801,5.02088,12.42729,-11.39563
-0.29131,1.69510,-0.27496,-0.10767,0.24684,0.87910,1.11270,1.93411,-0.67486,3.44474,-1.32321,-2.17559,0.48571,0.67660,0.39494,-0.38771,-2.68013,2.12074,-2.69144
-0.29006,1.69758,-0.26499,-0.06571,0.23084,0.84750,0.92981,1.73361,-0.60666,3.12371,-1.43966,-2.41653,0.48927,0.67227,0.39360,-0.39211,-10.11880,-10.87641,4.52192
-0.28882,1.69987,-0.25518,-0.03314,0.21564,0.81925,0.74428,1.50526,-0.55111,2.47787,-1.28340,-2.28948,0.49240,0.66955,0.39238,-0.39406,-17.69619,-19.40711,5.56002
-0.28680,1.70122,-0.24646,0.00437,0.18930,0.78101,0.62224,1.33082,-0.48729,1.65003,-1.49950,-1.90564,0.49484,0.66667,0.39142,-0.39683,-7.45822,-10.10001,3.67681
-0.28543,1.70261,-0.23714,0.02581,0.16802,0.75851,0.63124,1.27115,-0.45513,1.35559,-1.40594,-1.24336,0.49738,0.66086,0.39178,-0.40297,-2.17311,-5.90014,3.49933
-0.28396,1.70368,-0.22751,0.04379,0.14717,0.74514,0.78393,1.26873,-0.47642,1.12590,-1.35871,-0.69252,0.49964,0.65159,0.39525,-0.41179,8.68861,-0.14223,-2.59932
-0.28210,1.70417,-0.21793,0.06171,0.12098,0.73331,1.03848,1.25931,-0.49002,1.06067,-1.76000,-0.89540,0.49986,0.64054,0.40159,-0.42259,16.15122,-0.09511,-1.77024
-0.28044,1.70491,-0.20862,0.07319,0.10456,0.71933,1.11024,1.20961,-0.47713,0.89417,-1.31661,-1.35034,0.50066,0.63208,0.40542,-0.43064,7.43021,-4.36770,-1.46091
-0.27869,1.70532,-0.19993,0.08347,0.08719,0.69919,1.17331,1.14138,-0.43889,0.59860,-1.39680,-1.55726,0.50031,0.62429,0.40947,-0.43851,5.33006,-4.77836,1.31340
-0.27718,1.70565,-0.19148,0.08918,0.07206,0.68007,1.16885,1.04526,-0.36762,0.48460,-1.47569,-1.61736,0.49918,0.61847,0.41250,-0.44516,2.28576,-6.74819,4.02618
-0.27573,1.70549,-0.18348,0.09280,0.05214,0.65854,1.08002,0.77625,-0.20224,0.20929,-1.32655,-1.13873,0.49445,0.61836,0.41540,-0.44789,-5.26024,-16.60065,9.11151
-0.27406,1.70511,-0.17532,0.09526,0.03371,0.64444,1.05239,0.54605,-0.10283,-0.01894,-1.17413,-0.84202,0.48951,0.61744,0.41981,-0.45045,-4.50294,-19.24296,7.55425
-0.27177,1.70457,-0.16743,0.09949,0.01694,0.63141,1.12449,0.47712,-0.08424,0.08472,-1.39519,-1.06449,0.48584,0.61259,0.42513,-0.45602,3.94012,-9.95967,2.36754
-0.26921,1.70352,-0.16029,0.10565,-0.00401,0.61056,1.17076,0.45115,-0.09854,0.35141,-1.74075,-1.70962,0.48324,0.60688,0.43019,-0.46164,5.55902,-1.82687,-0.81296
-0.26699,1.70170,-0.15383,0.11262,-0.03146,0.58103,1.13037,0.41243,-0.13412,0.42186,-1.88898,-1.83466,0.48203,0.60213,0.43425,-0.46531,-2.02368,-1.60767,-2.16183
-0.26517,1.69976,-0.14704,0.11639,-0.05417,0.56139,1.09312,0.35223,-0.16885,0.28073,-1.90101,-1.50814,0.48063,0.59778,0.43876,-0.46812,-3.76190,-3.83825,-2.95064
-0.26341,1.69740,-0.14036,0.11844,-0.07776,0.54496,1.07728,0.28561,-0.20185,0.09749,-1.98975,-1.28734,0.47882,0.59346,0.44397,-0.47056,-2.14864,-6.36033,-3.12278
-0.26152,1.69419,-0.13423,0.12211,-0.10879,0.52357,1.11700,0.27026,-0.31601,0.23537,-1.73719,-1.37183,0.47844,0.58633,0.45093,-0.47326,1.21933,-2.18867,-6.19759
-0.25938,1.69102,-0.12839,0.12864,-0.13332,0.50195,1.19221,0.37827,-0.47610,0.48180,-1.56326,-1.56435,0.48042,0.57544,0.45777,-0.47802,4.36470,5.66183,-9.76649
-0.25693,1.68791,-0.12278,0.13843,-0.15165,0.48182,1.31210,0.57929,-0.64983,0.89551,-1.34510,-1.62556,0.48403,0.56072,0.46455,-0.48528,8.05511,15.14975,-13.00478
-0.25365,1.68412,-0.11794,0.15851,-0.17647,0.45427,1.49758,0.81411,-0.87657,1.54678,-1.49354,-1.53337,0.48887,0.54152,0.47300,-0.49399,12.17066,16.81485,-12.41721
-0.25018,1.68051,-0.11260,0.17781,-0.19399,0.43944,1.54022,0.69921,-0.97374,1.84602,-1.29052,-0.93894,0.48918,0.53023,0.48290,-0.49635,3.73424,-1.57044,-7.93973
-0.24643,1.67687,-0.10685,0.19703,-0.20811,0.43406,1.54726,0.41777,-1.00227,1.84766,-1.24327,-0.30429,0.48600,0.52323,0.49469,-0.49529,-0.49034,-18.10211,-6.42291
-0.24187,1.67269,-0.10076,0.22436,-0.22746,0.43479,1.51785,-0.12074,-1.02109,1.91575,-1.29718,0.05585,0.47829,0.52182,0.51084,-0.48784,-3.09788,-31.91295,-4.55765
-0.23705,1.66837,-0.09458,0.25017,-0.24488,0.43677,1.47122,-0.63625,-1.07454,1.85691,-1.14142,0.12930,0.46993,0.52137,0.52829,-0.47775,-6.25217,-36.51788,-6.87248
-0.23235,1.66416,-0.08849,0.26814,-0.25678,0.43682,1.44164,-0.96954,-1.12477,1.71600,-1.18650,-0.03947,0.46233,0.51947,0.54480,-0.46861,-5.44355,-34.86932,-8.77780
-0.22650,1.65935,-0.08280,0.29896,-0.27458,0.43102,1.44994,-1.30266,-1.26948,1.90913,-0.71315,-0.36356,0.45444,0.51626,0.56442,-0.45650,-2.44572,-22.73881,-9.58025
-0.22016,1.65475,-0.07747,0.33142,-0.28616,0.42086,1.64662,-1.37857,-1.47576,1.75955,-0.55954,-0.61627,0.44813,0.50493,0.58530,-0.44906,10.80818,-6.75857,-13.31167
-0.21387,1.65009,-0.07245,0.35666,-0.29628,0.40796,1.84628,-1.36503,-1.60764,1.78862,-0.93765,-1.21359,0.44165,0.49175,0.60495,-0.44403,17.10494,1.10467,-8.62262
-0.20739,1.64519,-0.06797,0.37967,-0.30819,0.38982,1.89195,-1.49380,-1.73482,1.95334,-1.11809,-1.70256,0.43455,0.48200,0.62468,-0.43429,8.67650,-4.33304,-8.42344
-0.20058,1.64013,-0.06419,0.40273,-0.31974,0.36484,1.62472,-1.83987,-1.85869,1.98376,-1.07399,-2.20727,0.42756,0.48096,0.64304,-0.41517,-13.70112,-18.62482,-12.05794
-0.19353,1.63503,-0.06073,0.42432,-0.32943,0.34067,1.26321,-2.16839,-2.06055,1.74329,-0.79659,-1.99354,0.42300,0.48201,0.66067,-0.39020,-30.89544,-22.19197,-20.76675
-0.18594,1.62938,-0.05778,0.44913,-0.34531,0.31442,0.98020,-2.41356,-2.42772,1.81777,-0.96317,-1.58624,0.42137,0.47933,0.68018,-0.36061,-25.06361,-14.97536,-25.79426
-0.17752,1.62388,-0.05552,0.48131,-0.35526,0.28281,1.13652,-2.23959,-2.74651,1.43641,0.00212,-1.95743,0.42185,0.46309,0.70053,-0.34183,7.77236,5.37428,-19.34016
-0.16935,1.61874,-0.05389,0.50330,-0.35809,0.24778,1.45938,-1.83142,-2.90710,1.20818,-0.16464,-2.72882,0.42377,0.44005,0.71857,-0.33230,29.72397,23.22831,-8.60968
-0.16113,1.61384,-0.05297,0.52159,-0.35687,0.20976,1.70623,-1.45793,-2.98833,1.41803,0.06798,-2.79048,0.42617,0.41684,0.73454,-0.32414,27.20631,24.38880,-1.69000
-0.15262,1.60905,-0.05261,0.54063,-0.35422,0.17073,1.85037,-1.21027,-3.09007,1.18741,-0.16124,-2.37878,0.42850,0.39458,0.75006,-0.31322,14.13383,15.25187,-2.33078
-0.14437,1.60387,-0.05198,0.55164,-0.35802,0.14406,1.89078,-1.09671,-3.22448,1.11724,-0.59251,-2.16747,0.43035,0.37387,0.76552,-0.29831,8.47287,9.99013,-7.26576
-0.13573,1.59833,-0.05180,0.56606,-0.36646,0.11661,1.92699,-0.99196,-3.43084,0.81380,-0.40003,-1.74200,0.43356,0.35095,0.78106,-0.28073,4.25158,8.17875,-15.73726
-0.12693,1.59286,-0.05169,0.57980,-0.37185,0.09403,2.26204,-0.79217,-3.43976,0.74869,-0.04440,-1.09450,0.43362,0.32136,0.79657,-0.27237,19.89123,8.49893,-3.06164
-0.11814,1.58724,-0.05130,0.59048,-0.37870,0.08042,2.66114,-0.66517,-3.34821,0.86774,-1.06621,-0.91994,0.42978,0.28962,0.81220,-0.26785,33.98923,3.18486,10.73674
-0.10936,1.58094,-0.05063,0.59888,-0.39419,0.07378,2.71126,-0.70461,-3.35427,0.78299,-1.74060,-0.52453,0.42604,0.26450,0.82655,-0.25564,11.62772,-2.34713,2.39071
-0.10075,1.57428,-0.04955,0.60287,-0.41154,0.07462,2.46939,-0.86611,-3.41182,0.27297,-1.80128,0.09710,0.42224,0.24721,0.83955,-0.23614,-14.31074,-5.91245,-6.85543
-0.09238,1.56657,-0.04768,0.60275,-0.44114,0.08732,2.07945,-1.18135,-3.53000,-0.00944,-2.16732,1.43074,0.41572,0.23591,0.85299,-0.20961,-28.46681,-10.71632,-10.66093
-0.08439,1.55788,-0.04478,0.59628,-0.47926,0.11253,1.84681,-1.52835,-3.74476,-0.54978,-3.29679,1.88557,0.40599,0.22099,0.86833,-0.17985,-19.85312,-15.97710,-14.28821
-0.07684,1.54848,-0.04136,0.58525,-0.51951,0.14005,1.67298,-1.78103,-4.00855,-1.01887,-3.44163,3.13383,0.39667,0.20397,0.88280,-0.14735,-23.02901,-14.70921,-28.96526
-0.07004,1.53741,-0.03652,0.56567,-0.57572,0.18214,1.87998,-2.06597,-4.22085,-2.25138,-3.89745,3.67366,0.38103,0.17738,0.89964,-0.11836,1.08356,-18.08968,-21.12294
-0.06549,1.52428,-0.03106,0.51585,-0.65068,0.22461,2.68324,-2.41523,-4.19181,-4.37038,-4.61551,2.28090,0.35454,0.13531,0.91951,-0.10247,37.73642,-33.91370,-0.14715
-0.06144,1.51180,-0.02683,0.47037,-0.70023,0.24049,3.27797,-2.63310,-4.07025,-5.01057,-5.01982,1.13090,0.32873,0.09446,0.93540,-0.08965,48.27836,-41.15641,12.13144
-0.06069,1.49660,-0.02291,0.38758,-0.77806,0.24832,4.05025,-2.98993,-3.86728,-5.43668,-4.94013,-0.59489,0.29348,0.04588,0.95129,-0.08254,41.02551,-40.57598,14.35276
-0.06188,1.48052,-0.02082,0.28939,-0.85570,0.22727,4.31518,-3.25001,-3.79701,-5.57139,-4.32690,-2.61488,0.26169,0.00655,0.96272,-0.06815,12.29630,-23.00356,3.80749
-0.06317,1.46528,-0.02014,0.20783,-0.90659,0.18879,4.22613,-3.25150,-3.88781,-6.28322,-3.29982,-3.48232,0.23843,-0.02608,0.96969,-0.04664,-4.86692,1.09777,-7.80576
-0.06625,1.44995,-0.02108,0.11615,-0.94785,0.13390,4.21816,-3.21586,-3.92622,-6.97154,-2.62367,-4.19696,0.21543,-0.06018,0.97430,-0.02675,-2.16872,4.94759,-3.48279
-0.07027,1.43467,-0.02285,0.03123,-0.97931,0.07918,4.36166,-3.23923,-3.91719,-7.41985,-2.37924,-4.56106,0.18964,-0.09824,0.97688,-0.00934,6.45063,-0.89712,0.93942
-0.07805,1.41886,-0.02730,-0.09289,-1.01166,-0.00475,4.73634,-3.50134,-3.73020,-8.42541,-1.26420,-5.50046,0.15477,-0.14206,0.97768,0.00049,15.50144,-20.23719,8.56610
-0.08728,1.40410,-0.03298,-0.21416,-1.02153,-0.09066,5.10978,-4.03056,-3.38707,-9.21480,0.25317,-6.46259,0.10942,-0.18586,0.97646,0.00352,13.38481,-42.94968,13.61925
-0.09754,1.39030,-0.03984,-0.32365,-1.01517,-0.17507,5.40011,-4.72690,-3.00646,-9.30733,1.13168,-7.52823,0.05489,-0.22797,0.97212,0.00224,5.12794,-61.73802,12.64300
-0.11079,1.37833,-0.05009,-0.45299,-0.98259,-0.29097,5.56253,-5.54450,-2.67246,-9.24977,3.36725,-9.09785,-0.00846,-0.26684,0.96370,-0.00101,-2.28591,-66.77979,2.95074
-0.12555,1.36877,-0.06293,-0.57818,-0.92179,-0.42122,5.52541,-6.31719,-2.46212,-8.57601,5.40549,-10.02272,-0.07534,-0.29961,0.95108,-0.00279,-10.99388,-58.58568,-8.14978
-0.14137,1.36219,-0.07827,-0.69241,-0.82832,-0.56117,5.22412,-6.93107,-2.40433,-7.58002,8.05455,-10.78289,-0.14209,-0.32325,0.93558,-0.00086,-20.20949,-43.57869,-18.80131
-0.15784,1.35929,-0.09599,-0.79292,-0.70041,-0.70754,4.68498,-7.19491,-2.57976,-6.32643,10.41654,-11.36706,-0.20198,-0.33685,0.91959,0.00926,-28.77990,-14.61013,-32.21909
-0.17506,1.36263,-0.11796,-0.88536,-0.50345,-0.88980,4.01648,-7.13066,-2.93686,-5.01153,14.43634,-12.09851,-0.25378,-0.34219,0.90430,0.02737,-25.72925,20.25312,-37.15105
-0.19058,1.36796,-0.14050,-0.93228,-0.31824,-1.04138,3.65306,-7.32236,-3.08998,-3.50755,16.87831,-12.57336,-0.31158,-0.35102,0.88216,0.03870,-19.93201,11.57659,-32.60003
-0.20492,1.38060,-0.16742,-0.95221,-0.06627,-1.22478,3.27297,-8.08831,-3.07864,-0.65480,19.85338,-12.42261,-0.38549,-0.35454,0.85099,0.03898,-24.55638,-34.10680,-26.50051
-0.21627,1.40400,-0.19828,-0.92131,0.30311,-1.43224,2.34840,-9.33248,-3.12775,3.93939,22.04381,-10.66879,-0.47594,-0.33659,0.81197,0.02989,-48.69928,-60.60443,-42.95821
-0.22615,1.42289,-0.22453,-0.87657,0.52547,-1.52780,1.60439,-9.68612,-3.35086,6.25271,23.38146,-9.40259,-0.54655,-0.31598,0.77492,0.03063,-49.98991,-35.04155,-60.66924
-0.22960,1.45894,-0.25542,-0.74248,0.96110,-1.67270,0.14792,-9.47801,-4.13167,10.18583,25.34394,-7.70834,-0.60773,-0.26278,0.74815,0.04334,-36.68526,24.02636,-81.84264
-0.23114,1.49259,-0.28453,-0.60688,1.27245,-1.76202,-0.68594,-8.90418,-4.78365,13.84068,27.18943,-7.61915,-0.65512,-0.21717,0.72100,0.06175,-14.14775,50.29702,-84.65989
-0.22720,1.53261,-0.31523,-0.42182,1.60461,-1.85394,-1.36858,-8.26767,-5.44181,17.44217,28.51990,-7.85423,-0.69557,-0.16634,0.69388,0.08396,4.84492,61.42702,-79.25366
-0.21379,1.58200,-0.34847,-0.13805,2.00083,-1.96270,-2.13021,-7.86822,-6.07006,22.07402,27.36771,-7.93160,-0.73529,-0.10540,0.66159,0.10268,2.91920,39.75711,-77.44627
-0.18758,1.64057,-0.38380,0.28253,2.45780,-2.08113,-3.22652,-8.06240,-6.80444,29.66845,30.21571,-7.50802,-0.78193,-0.02697,0.61272,0.11154,-21.43040,1.12464,-76.86709
-0.16148,1.69493,-0.41729,0.60731,2.75250,-2.14720,-4.22379,-8.29503,-7.39804,34.81492,29.74273,-6.66113,-0.82212,0.05592,0.55498,0.11397,-57.62290,1.81949,-85.11463
-0.11025,1.76451,-0.45330,1.22652,3.20358,-2.23576,-5.71163,-8.58034,-8.60747,43.67028,26.86648,-4.12543,-0.85212,0.17157,0.48090,0.11484,-50.08164,-18.60424,-110.64680
-0.04915,1.83341,-0.48753,1.87053,3.55619,-2.27928,-6.38021,-8.19710,-9.96273,50.78307,22.76539,-1.12450,-0.85629,0.28212,0.41136,0.13400,0.23446,-11.93071,-114.29120
0.01380,1.89851,-0.51961,2.39456,3.77707,-2.28408,-6.15848,-7.56126,-11.08463,56.74916,19.81801,2.01816,-0.84243,0.37543,0.34720,0.16975,58.46097,-27.45019,-95.22316
0.12442,1.97196,-0.54579,3.49613,4.07106,-2.20262,-4.43845,-6.17078,-13.08603,67.55203,10.69840,8.88580,-0.78958,0.46632,0.30128,0.26141,139.22850,-75.40318,-59.39720
0.24156,2.03448,-0.56426,4.49350,4.15137,-2.02163,-2.57685,-5.44263,-14.59115,76.22665,-0.14351,18.19627,-0.72415,0.54007,0.24357,0.35301,130.60020,-114.89860,-45.18295
0.38005,2.08466,-0.56975,5.60084,4.03720,-1.68888,-1.20368,-4.98018,-16.07372,84.81975,-15.47402,29.58924,-0.63713,0.61255,0.17446,0.43408,86.43596,-118.49100,-44.93938
0.53907,2.11467,-0.55680,6.77993,3.65088,-1.15513,-1.22248,-3.72484,-18.26976,86.55764,-39.27534,44.38274,-0.50665,0.71490,0.09846,0.47173,85.80725,-37.12990,-128.05680
0.71379,2.11443,-0.52304,7.94682,2.90223,-0.42752,-0.69881,-1.65889,-20.67561,82.40089,-70.15890,60.94953,-0.32521,0.80796,0.03907,0.48982,148.36480,-7.36176,-167.83960
0.90599,2.05982,-0.45763,9.14360,1.48947,0.62816,2.26096,0.70240,-23.25553,65.99792,-111.67400,73.83643,-0.07616,0.85082,0.01737,0.51962,160.44940,-159.71120,-168.92690
1.08250,1.95315,-0.37760,9.87137,-0.42770,1.69362,6.27402,3.12336,-25.65379,36.99637,-169.99840,74.80193,0.21461,0.83020,0.01939,0.51413,110.81360,-227.63930,-248.16640
1.22458,1.75931,-0.28776,9.92274,-3.24652,2.67820,11.66238,6.00095,-27.95717,-35.01752,-233.95620,58.61015,0.53706,0.71918,0.05499,0.43739,124.09180,-216.07370,-354.73240
1.28142,1.48283,-0.21219,8.68637,-6.70213,3.23979,19.80113,9.14617,-28.87350,-143.78870,-256.35330,12.89289,0.82436,0.47631,0.15376,0.26441,66.00808,-177.34960,-516.09070
1.17755,1.16098,-0.17899,5.32558,-10.33674,2.95310,36.79998,9.12202,-26.97507,-265.86060,-177.26060,-64.35636,0.93139,-0.05661,0.35691,-0.04397,224.94920,239.66000,-952.07080
1.02270,0.93111,-0.20540,1.82580,-11.68624,1.80762,46.49694,0.31859,-23.36609,-293.52640,-40.03245,-109.44960,0.70280,-0.53445,0.41344,-0.22248,624.15240,769.29380,-737.20540
0.80437,0.81780,-0.29540,-1.80413,-10.88967,0.02870,41.13083,-11.75817,-22.07489,-206.28790,124.12460,-109.44800,0.45560,-0.76937,0.42342,-0.14568,465.27910,962.21120,-10.22633
0.66134,0.81606,-0.36431,-3.53055,-8.65434,-1.00291,27.10227,-10.72075,-21.80319,-61.79722,161.43440,-32.14368,0.46529,-0.78536,0.40613,0.04208,-70.47035,827.36620,531.62880
0.59791,0.80738,-0.38006,-3.72297,-7.00984,-1.02758,16.80595,-5.34992,-19.30801,19.04427,122.73890,20.15969,0.54432,-0.73244,0.35944,0.19504,-102.30360,682.60960,850.10940
0.58029,0.80441,-0.35908,-3.20911,-5.63037,-0.51782,10.43431,-3.28712,-12.11703,47.10955,60.86514,43.02858,0.61776,-0.61796,0.42738,0.23205,-347.99780,195.84890,533.63160
0.56566,0.76044,-0.32845,-2.76516,-5.11441,0.00605,6.43706,-4.54012,-7.48804,31.81054,27.92856,45.46172,0.59916,-0.55870,0.52575,0.22901,-457.25890,-55.68114,266.82880
0.54806,0.70811,-0.28514,-2.44949,-4.81961,0.59966,1.32342,-3.54875,-4.38888,11.14172,18.63084,35.37570,0.59442,-0.45214,0.59394,0.29910,-444.92180,105.23270,143.08430
0.52244,0.65984,-0.24060,-2.32389,-4.53400,1.11399,-2.14655,-0.17341,-1.33685,1.96629,22.92696,28.46980,0.64521,-0.31386,0.59357,0.36450,-209.80020,272.97540,146.56150
0.48706,0.61826,-0.20467,-2.37609,-4.22043,1.40650,-3.47509,2.61889,-1.24548,-7.68679,31.07817,20.82500,0.67360,-0.25007,0.54202,0.43582,-113.68540,244.96440,78.19467
0.44634,0.59029,-0.16746,-2.49092,-3.77634,1.65241,-4.18339,4.69560,-1.61832,-5.67468,32.75052,16.00625,0.69159,-0.20120,0.47781,0.50291,-46.68401,195.56440,-65.54697
0.40216,0.57672,-0.12990,-2.64184,-3.20185,1.86529,-4.94408,3.42178,-2.81455,-5.92888,32.16259,10.62146,0.64539,-0.20705,0.47399,0.56208,-64.24785,-70.35617,-35.66535
0.36233,0.56174,-0.09698,-2.70487,-2.75462,1.97369,-5.70864,2.05802,-3.26331,-3.60955,32.22346,4.76345,0.59263,-0.20485,0.48452,0.60998,-87.92217,-111.26670,9.76208
0.32566,0.55141,-0.06689,-2.70193,-2.32712,2.01491,-6.16340,1.98799,-3.10577,0.26497,31.29581,-0.20097,0.56126,-0.17950,0.47687,0.65220,-44.29679,-20.07416,21.93558
0.29133,0.54321,-0.04040,-2.65955,-1.96522,1.99356,-6.11025,3.15855,-2.86347,2.88632,30.81920,-4.85104,0.55672,-0.13776,0.44000,0.69101,1.58918,64.47083,-4.21258
0.26085,0.54649,-0.02003,-2.57432,-1.50584,1.88685,-5.40344,5.40515,-2.94999,5.98346,27.89911,-8.84669,0.57948,-0.08651,0.36262,0.72472,55.32218,121.88240,-70.53334
0.23106,0.54992,-0.00343,-2.49060,-1.13375,1.74370,-4.60390,6.77164,-3.27354,6.80745,26.22463,-11.23178,0.59441,-0.04915,0.28689,0.74964,55.38441,84.58765,-79.68805
0.20115,0.55443,0.01121,-2.41982,-0.83170,1.59995,-4.01461,7.21120,-3.60809,6.77730,23.92841,-12.58488,0.59741,-0.02422,0.22268,0.77002,40.04770,35.46572,-70.36573
0.17256,0.56365,0.02109,-2.34499,-0.52731,1.41783,-3.44523,6.94733,-3.89643,5.78158,19.77916,-13.62928,0.59504,-0.01403,0.17099,0.78517,21.54570,-24.59523,-34.27306
0.14467,0.57285,0.02783,-2.27542,-0.28577,1.22700,-2.77679,6.24120,-4.15614,5.83627,15.56952,-14.27241,0.59306,-0.01825,0.12877,0.79459,21.18620,-55.31386,-25.67286
0.11813,0.58156,0.03131,-2.20014,-0.10081,1.02774,-2.04729,5.08195,-4.23871,5.65085,10.93379,-14.16392,0.59250,-0.03627,0.10212,0.79825,19.18635,-87.69914,-9.88609
0.09252,0.58810,0.03407,-2.12714,0.01360,0.86077,-1.40924,3.83440,-4.09928,7.95097,8.42146,-14.70145,0.59298,-0.05913,0.08768,0.79824,24.46819,-107.12230,0.17139
0.07136,0.59563,0.03206,-2.00481,0.11847,0.66006,-0.80867,1.82263,-3.38317,9.14487,4.70725,-10.88466,0.59312,-0.09669,0.11062,0.79160,18.55342,-130.15810,40.40703
0.05539,0.60019,0.02933,-1.87987,0.17125,0.52204,-0.43963,0.46077,-2.67678,9.35626,4.28869,-9.99143,0.59208,-0.12397,0.13239,0.78520,1.52607,-126.98170,70.64121
0.04427,0.60503,0.02468,-1.71541,0.22280,0.39215,-0.31442,-0.75650,-1.98726,11.39385,3.64507,-7.58624,0.58594,-0.15134,0.16073,0.77970,0.70705,-93.01192,46.69580
0.03868,0.61145,0.02041,-1.48077,0.28421,0.27753,-0.36532,-1.59464,-1.32666,13.12697,3.14830,-3.98224,0.57686,-0.17175,0.18870,0.77597,-10.78726,-50.71636,37.00512
0.03152,0.61813,0.02088,-1.28244,0.32434,0.22985,-0.45115,-1.60732,-0.99077,14.14208,2.74118,-2.28551,0.57033,-0.17847,0.19793,0.77698,-11.97120,-9.69395,29.41637
0.02632,0.62440,0.02229,-1.09846,0.34978,0.20582,-0.39053,-1.16136,-0.86384,15.11531,2.10382,-1.28816,0.56982,-0.17691,0.19396,0.77871,-0.60800,22.60328,14.11771
0.02793,0.63054,0.02416,-0.85208,0.36788,0.19322,-0.14703,-0.15873,-0.94934,14.76044,0.58937,-0.16025,0.57790,-0.16326,0.17133,0.78104,18.48069,61.02465,-3.70555
0.02791,0.63588,0.02667,-0.68051,0.37086,0.19228,-0.01046,0.52315,-1.02853,14.24578,-0.15618,-0.08401,0.58326,-0.15226,0.15054,0.78356,19.66608,61.65744,-10.67781
0.02998,0.64118,0.02904,-0.51797,0.37269,0.18925,-0.02882,0.95833,-0.96718,13.89466,-0.15718,-0.36693,0.58510,-0.14035,0.13548,0.78715,8.26172,44.81454,-0.56059
0.04038,0.64561,0.03227,-0.26613,0.36123,0.19941,-0.25968,1.47491,-0.56525,17.99641,-1.80558,1.73780,0.58341,-0.11559,0.12783,0.79368,-11.80917,28.30051,23.62928
0.05365,0.64899,0.03606,-0.02211,0.33747,0.21423,-0.45707,1.99149,-0.19597,16.17581,-1.52445,0.05626,0.58161,-0.08680,0.11921,0.79999,-8.77156,42.76983,28.57426
0.06529,0.65256,0.03832,0.14666,0.32142,0.20393,-0.64374,2.17690,0.04010,12.69635,-1.02633,-2.28650,0.57715,-0.06502,0.11374,0.80606,-11.97594,25.92520,23.48491
0.07811,0.65593,0.03813,0.29692,0.30601,0.16078,-0.81744,2.13958,0.25587,9.74026,-1.24799,-4.14767,0.57097,-0.04770,0.11294,0.81177,-10.89098,2.10553,16.86242
0.09201,0.65818,0.03553,0.43445,0.27721,0.08804,-0.89121,1.99272,0.53725,7.76707,-2.34788,-5.09062,0.56630,-0.03195,0.11734,0.81518,-3.88867,-8.88572,20.72184
0.10345,0.65989,0.03335,0.50888,0.24679,0.03808,-0.81886,1.95098,0.63151,6.98230,-3.27384,-5.24418,0.56512,-0.01737,0.11605,0.81662,4.18818,-6.48210,13.55393
0.11824,0.65894,0.02800,0.61506,0.18585,-0.04612,-0.56481,1.93894,0.70644,6.28600,-3.93568,-5.52083,0.56963,-0.00317,0.11383,0.81397,15.71143,0.02178,2.77456
0.13277,0.65778,0.02217,0.70006,0.13326,-0.12323,-0.30726,1.97525,0.75531,5.95501,-3.48342,-5.76216,0.57560,0.01187,0.11033,0.81017,18.75956,1.59933,1.86222
0.14923,0.65594,0.01437,0.79588,0.08059,-0.21441,0.03030,2.16356,0.69209,5.90030,-3.09429,-5.73748,0.58534,0.02886,0.10052,0.80402,19.46189,11.67523,-6.65316
0.16644,0.65421,0.00512,0.88541,0.03905,-0.30647,0.33305,2.36445,0.59177,5.34012,-2.03250,-5.87102,0.59558,0.04611,0.08852,0.79707,17.23103,13.85330,-7.97118
0.18307,0.65349,-0.00386,0.94836,0.02081,-0.37530,0.54684,2.52275,0.45337,5.22396,-0.86132,-5.56630,0.60476,0.06224,0.07501,0.79042,16.29067,13.38401,-12.95510
0.20216,0.65400,-0.01464,1.03448,0.02469,-0.45614,0.65169,2.72283,0.37938,5.92578,0.82590,-4.38410,0.61218,0.08124,0.06080,0.78418,8.72534,14.49365,-10.13441
0.22125,0.65580,-0.02433,1.10335,0.04610,-0.50498,0.56198,2.78072,0.58083,6.14250,1.98501,-3.72741,0.61406,0.10331,0.05578,0.78048,-2.32512,7.54530,9.61856
0.24221,0.65916,-0.03452,1.18333,0.08548,-0.54988,0.36250,2.78990,0.98212,5.69498,3.27137,-2.82015,0.61155,0.12984,0.05804,0.77832,-7.32264,-0.98060,29.09164
