posX, posY, posZ, velX, velY, velZ, angVelX, angVelY, angVelZ, accX, accY, accZ, rotX, rotY, rotZ, rotW, angAccX, angAccY, angAccZ
0.27509,1.17337,-0.23327,-0.10258,0.12315,-0.28346,-0.03493,0.62711,0.26016,-1.37554,1.50898,-1.18208,0.09353,0.82366,-0.02596,0.55871,2.99294,2.60643,2.65483
0.27282,1.17596,-0.23812,-0.11502,0.13592,-0.29789,-0.13558,0.58795,0.28819,-1.23764,1.26846,-1.49732,0.08916,0.82553,-0.02759,0.55659,-8.53873,-3.06611,3.66547
0.26980,1.17933,-0.24382,-0.13592,0.15725,-0.32262,-0.26479,0.55532,0.30524,-1.41735,1.42293,-1.61282,0.08397,0.82725,-0.03072,0.55468,-7.93493,-2.32957,1.40852
0.26648,1.18302,-0.24965,-0.15688,0.17868,-0.34481,-0.30814,0.53403,0.33279,-1.52375,1.51474,-1.85493,0.07948,0.82913,-0.03205,0.55245,-6.57558,-2.41923,2.20121
0.26320,1.18680,-0.25545,-0.17257,0.19672,-0.36061,-0.19194,0.58057,0.34482,-1.49659,1.71801,-1.96467,0.07808,0.83232,-0.02953,0.54797,3.03263,0.81245,1.56830
0.25882,1.19227,-0.26228,-0.20132,0.23618,-0.38866,0.26844,0.74741,0.30283,-1.79556,2.58040,-1.62522,0.08494,0.83807,-0.01807,0.53861,24.57502,9.71557,-3.46580
0.25407,1.19848,-0.26891,-0.23091,0.27970,-0.40847,0.64532,0.85110,0.28975,-2.50541,3.73214,-1.21809,0.09137,0.84309,-0.00593,0.52992,29.60881,10.73559,-3.32348
0.24867,1.20546,-0.27575,-0.26335,0.32504,-0.42678,0.76114,0.83666,0.33523,-3.04540,4.19326,-1.39916,0.09295,0.84632,0.00259,0.52450,16.91987,1.96326,1.70814
0.24162,1.21441,-0.28375,-0.31404,0.39071,-0.45822,0.65554,0.72875,0.39105,-3.13579,4.94885,-2.21377,0.09054,0.84782,0.00615,0.52246,-4.65029,-5.36102,-1.64851
0.23456,1.22358,-0.29242,-0.35426,0.44581,-0.49285,0.45772,0.67065,0.57831,-3.55340,4.44160,-3.35646,0.08171,0.85012,0.00905,0.52013,-12.45062,-9.57756,18.39729
0.22612,1.23394,-0.30259,-0.40591,0.50624,-0.54162,0.40635,0.77236,0.65175,-3.80979,4.10978,-4.14761,0.07675,0.85475,0.01296,0.51317,-9.33665,1.91214,8.04133
0.21616,1.24582,-0.31390,-0.47056,0.57778,-0.59798,0.74541,1.13580,0.66362,-4.35758,4.52450,-3.57062,0.07993,0.86385,0.02601,0.49669,17.26934,22.37951,0.85763
0.20480,1.25884,-0.32525,-0.54466,0.65349,-0.64404,1.10011,1.43839,0.70947,-4.93249,5.13289,-2.10900,0.08364,0.87266,0.04209,0.47928,24.47562,22.89176,0.94545
0.19280,1.27251,-0.33602,-0.61334,0.72417,-0.67247,1.21261,1.48915,0.80559,-5.18163,5.30433,-1.55819,0.08271,0.87829,0.05490,0.46770,11.49740,6.53026,5.27362
0.17944,1.28738,-0.34650,-0.68792,0.79624,-0.69138,1.32921,1.51131,0.90622,-5.52017,5.07649,-1.19072,0.08137,0.88334,0.06886,0.45645,6.34483,-0.03082,7.31189
0.16558,1.30257,-0.35662,-0.75288,0.85716,-0.70023,1.48356,1.54823,0.97161,-5.45161,5.00923,-0.59426,0.08138,0.88823,0.08439,0.44420,11.80377,3.22534,5.19339
0.15013,1.31914,-0.36647,-0.82733,0.92546,-0.70269,1.76508,1.63476,1.01315,-5.33477,4.67143,-0.07238,0.08422,0.89306,0.10422,0.42952,17.19945,5.51371,3.07455
0.13381,1.33638,-0.37583,-0.90049,0.98987,-0.69780,2.13092,1.79216,1.02029,-5.32836,4.42078,0.45905,0.09019,0.89798,0.12757,0.41138,25.34846,12.03950,-0.99102
0.11701,1.35361,-0.38499,-0.96433,1.03994,-0.69078,2.38485,1.92994,1.02084,-5.49587,4.03448,0.76718,0.09574,0.90239,0.14980,0.39255,22.78892,13.74018,-1.19957
0.09775,1.37203,-0.39369,-1.05085,1.09725,-0.67806,2.62772,2.11923,1.03379,-5.37516,3.26776,0.94209,0.10162,0.90678,0.17316,0.37073,16.33037,12.25081,0.83115
0.07823,1.39003,-0.40220,-1.12409,1.13699,-0.66395,2.70833,2.28139,1.04240,-5.23428,2.51836,1.36073,0.10588,0.91104,0.19291,0.34868,7.39408,13.06791,1.33475
0.05918,1.40733,-0.41052,-1.17405,1.15831,-0.65074,2.69082,2.35698,1.04520,-4.93386,1.83097,1.65459,0.10885,0.91443,0.21009,0.32837,1.37733,9.14800,2.35826
0.03474,1.42542,-0.41504,-1.30345,1.18776,-0.57782,2.61962,2.51810,0.92954,-3.37870,0.22211,2.83435,0.11437,0.91825,0.22382,0.30602,-3.17524,5.26754,-4.28923
-0.00371,1.45859,-0.42882,-1.33505,1.18930,-0.54529,2.66503,2.61637,0.85977,-3.08825,0.00159,3.47375,0.12466,0.92142,0.25705,0.26339,0.61781,10.40223,-5.82773
-0.02533,1.47486,-0.43198,-1.37816,1.18499,-0.48316,2.76632,2.75935,0.73016,-2.32658,-0.58131,4.30235,0.13494,0.92179,0.27439,0.23832,4.78178,10.88143,-6.73184
-0.04647,1.49051,-0.43353,-1.40642,1.17204,-0.40898,2.82070,2.83839,0.56534,-1.27983,-1.08063,5.09557,0.14638,0.92098,0.29019,0.21487,1.54040,8.19058,-9.08922
-0.06664,1.50617,-0.43629,-1.41482,1.16267,-0.36833,2.82331,2.84627,0.48376,-0.84099,-1.33495,5.30124,0.15539,0.91947,0.30529,0.19294,0.14928,5.67679,-9.72883
-0.08698,1.51997,-0.43398,-1.42429,1.12981,-0.26340,2.79808,2.85725,0.28624,-0.22989,-1.79898,5.25006,0.16837,0.91701,0.31804,0.17206,-3.29675,2.33225,-9.98760
-0.10700,1.53354,-0.43287,-1.42796,1.09996,-0.19247,2.73203,2.86856,0.19950,-0.21191,-2.39041,5.04399,0.17843,0.91466,0.32998,0.15059,-5.17465,2.02765,-5.38039
-0.12673,1.54623,-0.43092,-1.42647,1.06315,-0.12375,2.66510,2.90328,0.10956,0.42570,-2.83222,4.79850,0.18909,0.91186,0.34094,0.12854,-6.98440,2.11511,-3.67133
-0.14573,1.55805,-0.42811,-1.41391,1.02094,-0.05660,2.64294,2.99556,-0.03332,1.22956,-3.28700,4.72395,0.20270,0.90786,0.35171,0.10488,-3.80512,7.82641,-7.02853
-0.16396,1.56884,-0.42466,-1.39262,0.97297,0.00630,2.58974,3.06355,-0.19220,1.78300,-3.54455,4.43526,0.21737,0.90318,0.36096,0.08204,-4.53587,7.41438,-9.65072
-0.18050,1.57584,-0.41754,-1.34574,0.86877,0.12084,2.27012,2.95276,-0.34046,1.62241,-3.77495,3.97952,0.22989,0.90033,0.36373,0.06522,-13.55846,-5.55342,-2.52768
-0.21671,1.59631,-0.41064,-1.32649,0.81527,0.17151,2.05096,2.76697,-0.31788,1.36527,-3.83512,3.36024,0.24734,0.89213,0.37689,0.02967,-15.69955,-12.91470,2.35999
-0.23379,1.60389,-0.40518,-1.30567,0.76068,0.21585,1.92361,2.68038,-0.31946,1.54168,-3.91424,2.67061,0.25554,0.88823,0.38152,0.01351,-12.26332,-9.80079,2.35971
-0.24992,1.61022,-0.39909,-1.27374,0.69705,0.25811,1.94831,2.80069,-0.42692,2.14015,-3.98482,2.15053,0.26931,0.88144,0.38789,-0.00813,-0.45111,6.56596,-5.04719
-0.26584,1.61675,-0.39369,-1.24603,0.64980,0.28236,1.95752,2.95324,-0.52755,2.40277,-3.93237,1.80666,0.28408,0.87388,0.39326,-0.03130,3.36324,12.13112,-7.44677
-0.28099,1.62229,-0.38811,-1.21349,0.59849,0.30487,1.89588,3.05386,-0.58805,2.46211,-3.58564,1.59906,0.29787,0.86674,0.39644,-0.05358,-3.79592,11.96711,-3.77583
-0.29608,1.62697,-0.38299,-1.18259,0.54664,0.32465,1.68043,3.00220,-0.56445,1.97733,-2.97508,1.41703,0.30771,0.86228,0.39588,-0.07123,-12.64271,-1.82963,3.06545
-0.31138,1.63221,-0.37764,-1.16198,0.51274,0.34185,1.57130,2.96891,-0.50224,1.75120,-2.61417,1.51963,0.31621,0.85698,0.39685,-0.09006,-11.38956,-5.01910,6.38178
-0.32569,1.63641,-0.37140,-1.13213,0.46994,0.36651,1.47045,2.95749,-0.44584,2.13118,-2.73360,1.49821,0.32457,0.85150,0.39707,-0.10927,-5.00640,-1.43500,5.70453
-0.33918,1.64061,-0.36493,-1.09800,0.43489,0.38705,1.39745,2.97802,-0.45269,2.59193,-2.39978,1.45657,0.33473,0.84485,0.39702,-0.12867,-5.55665,1.36912,1.56229
-0.35247,1.64472,-0.35843,-1.06847,0.40620,0.40343,1.29222,2.94183,-0.42940,2.52767,-2.52704,1.44956,0.34343,0.83894,0.39597,-0.14642,-5.21536,0.56756,1.34639
-0.36496,1.64738,-0.35211,-1.03055,0.36551,0.42468,0.99202,2.70280,-0.28762,2.12431,-2.05322,1.41659,0.34666,0.83807,0.39072,-0.15754,-15.87389,-13.18785,9.50234
-0.37796,1.65015,-0.34635,-1.00469,0.33648,0.44115,0.81178,2.51737,-0.14419,1.77316,-1.90140,1.35904,0.34888,0.83653,0.38692,-0.16966,-13.03313,-16.54108,11.97285
-0.39088,1.65322,-0.34027,-0.98459,0.31681,0.45263,0.75280,2.49419,-0.06787,2.06988,-1.78653,1.26037,0.35318,0.83271,0.38397,-0.18552,-7.96227,-8.88239,11.13043
-0.40145,1.65528,-0.33280,-0.93648,0.28299,0.47490,0.75085,2.58041,-0.03792,3.01120,-1.82364,1.30115,0.35930,0.82703,0.38100,-0.20439,0.67706,5.11962,2.39421
-0.41205,1.65782,-0.32520,-0.90008,0.26169,0.49079,0.72841,2.57615,-0.03149,3.24822,-1.89111,1.49545,0.36514,0.82150,0.37825,-0.22077,-0.43255,3.96223,0.09743
-0.42138,1.65957,-0.31692,-0.85209,0.23305,0.51392,0.65761,2.44989,0.00047,3.03877,-1.69194,1.47801,0.36893,0.81767,0.37526,-0.23342,-4.48354,-8.29231,2.74874
-0.43079,1.66151,-0.30859,-0.81508,0.21315,0.53175,0.65405,2.39137,0.01108,3.04166,-1.58627,1.44610,0.37322,0.81250,0.37322,-0.24751,-1.82479,-6.84036,1.45223
-0.43913,1.66296,-0.29987,-0.77040,0.19030,0.55148,0.69373,2.37001,-0.00554,3.26991,-1.62845,1.29798,0.37811,0.80605,0.37211,-0.26239,1.99391,-2.06824,-1.05933
-0.44661,1.66410,-0.29118,-0.72211,0.16784,0.56640,0.72045,2.34171,-0.05608,3.68717,-1.61798,0.86449,0.38382,0.79906,0.37119,-0.27640,2.46676,-0.91077,-3.35055
-0.45441,1.66505,-0.28325,-0.67617,0.14834,0.57543,0.69626,2.25633,-0.09646,3.45787,-1.33125,0.72383,0.38910,0.79305,0.36983,-0.28793,-2.39450,-4.65642,-3.75736
-0.46211,1.66583,-0.27523,-0.63660,0.13056,0.58406,0.66750,2.13080,-0.07849,2.96027,-1.22682,0.71211,0.39234,0.78819,0.36855,-0.29832,-1.73214,-8.11224,0.04861
-0.46957,1.66669,-0.26701,-0.60702,0.11715,0.59042,0.63959,1.98104,-0.00592,2.65832,-1.03441,0.53952,0.39330,0.78458,0.36725,-0.30802,-1.67655,-10.97921,3.94447
-0.47553,1.66748,-0.25801,-0.56916,0.10253,0.59789,0.60637,1.79325,0.11822,2.22785,-0.87179,0.14724,0.39159,0.78267,0.36586,-0.31659,-1.26636,-13.31351,7.92598
-0.48131,1.66829,-0.24937,-0.53611,0.09105,0.59865,0.63364,1.77473,0.17981,2.25433,-0.76161,-0.22772,0.39196,0.77813,0.36438,-0.32882,0.88335,-4.81108,5.50378
-0.48630,1.66872,-0.24117,-0.49845,0.07709,0.59412,0.68391,1.79663,0.22933,2.43845,-1.05354,-0.43976,0.39249,0.77259,0.36306,-0.34242,3.96537,2.99806,1.80918
-0.49126,1.66899,-0.23310,-0.46787,0.06301,0.58754,0.65177,1.71077,0.31096,2.27407,-1.23641,-0.61447,0.39139,0.76949,0.36076,-0.35292,-0.06142,-4.43417,4.90940
-0.49610,1.66904,-0.22518,-0.44244,0.04926,0.58083,0.58713,1.57762,0.40259,2.22811,-1.22635,-0.62019,0.38910,0.76797,0.35796,-0.36149,-3.19176,-10.17809,7.79409
-0.50025,1.66861,-0.21750,-0.41171,0.03195,0.57313,0.54659,1.43214,0.48243,2.17423,-1.33007,-0.56188,0.38597,0.76690,0.35585,-0.36915,-2.77639,-11.62334,6.30059
-0.50426,1.66770,-0.21007,-0.38052,0.01148,0.56475,0.53937,1.35806,0.49034,2.37807,-1.50361,-0.73426,0.38449,0.76426,0.35439,-0.37747,-0.45834,-6.89670,1.58309
-0.50763,1.66649,-0.20287,-0.34663,-0.00901,0.55454,0.52240,1.30054,0.46377,2.65138,-1.47578,-0.69557,0.38402,0.76125,0.35296,-0.38529,-0.76930,-3.44180,-1.31659
-0.50759,1.66560,-0.19463,-0.30436,-0.02792,0.55020,0.50375,1.16951,0.44294,2.50988,-1.46636,-0.38521,0.38273,0.75927,0.35251,-0.39084,-1.38855,-7.66153,-2.04103
-0.50350,1.66528,-0.18506,-0.25366,-0.04435,0.55255,0.52554,1.03387,0.41980,2.14381,-1.36470,-0.20811,0.38091,0.75710,0.35350,-0.39591,0.37186,-10.94200,-1.57050
-0.50015,1.66477,-0.17588,-0.21203,-0.05736,0.55468,0.57505,0.98357,0.37447,1.98849,-1.29070,-0.27242,0.37999,0.75341,0.35491,-0.40252,3.35175,-6.40970,-3.58635
-0.49975,1.66306,-0.16806,-0.18001,-0.07435,0.55094,0.66389,1.00667,0.29928,1.82056,-1.17932,-0.48876,0.37999,0.74773,0.35730,-0.41092,5.56716,-0.10328,-5.23831
-0.50036,1.66089,-0.16109,-0.15294,-0.09043,0.54087,0.75461,1.09676,0.20442,1.89732,-1.15611,-0.96300,0.38140,0.74022,0.35966,-0.42101,6.56573,6.42968,-6.90741
-0.50062,1.65864,-0.15478,-0.12639,-0.10456,0.52329,0.78526,1.18861,0.12520,1.98450,-1.04696,-1.51721,0.38367,0.73279,0.36067,-0.43098,3.17202,7.84910,-6.34000
-0.50033,1.65624,-0.14932,-0.09674,-0.11824,0.49694,0.72227,1.16377,0.09307,1.96392,-0.91738,-1.75163,0.38512,0.72821,0.36028,-0.43771,-3.17183,1.19935,-2.39750
-0.49996,1.65377,-0.14425,-0.07138,-0.13039,0.46937,0.60432,1.03087,0.11365,1.48155,-0.68476,-1.77174,0.38495,0.72674,0.35909,-0.44127,-7.14458,-8.46823,0.82435
-0.50000,1.65157,-0.13892,-0.05747,-0.13599,0.45177,0.53356,0.95232,0.13344,1.29356,-0.46063,-1.74193,0.38466,0.72468,0.35803,-0.44574,-7.34267,-9.13038,2.19246
-0.49928,1.64913,-0.13462,-0.03522,-0.14393,0.42272,0.46558,0.89734,0.14091,1.08404,-0.37255,-1.47518,0.38483,0.72258,0.35666,-0.45008,-4.08788,-3.27442,0.48629
-0.49866,1.64683,-0.13003,-0.01853,-0.14842,0.40332,0.45401,0.94057,0.11113,1.16594,-0.10989,-1.25241,0.38625,0.71813,0.35571,-0.45670,-1.66771,1.35869,-1.06187
-0.49769,1.64460,-0.12547,-0.00011,-0.15087,0.38745,0.49344,1.04380,0.04306,1.30434,-0.25269,-1.04944,0.38881,0.71138,0.35569,-0.46503,2.80465,6.39962,-4.39063
-0.49646,1.64236,-0.12101,0.01841,-0.15287,0.37356,0.52238,1.11251,-0.00999,1.48609,-0.04456,-1.00984,0.39124,0.70473,0.35574,-0.47301,1.96989,6.88931,-4.80250
-0.49509,1.64019,-0.11657,0.03493,-0.15353,0.36232,0.52045,1.07670,-0.02149,1.58657,-0.26934,-0.98955,0.39221,0.70012,0.35590,-0.47888,1.63358,1.25830,-1.90520
-0.49338,1.63794,-0.11239,0.05262,-0.15519,0.34967,0.45767,0.88798,0.01593,1.32530,-0.12331,-0.94950,0.39110,0.69951,0.35602,-0.48060,-4.14749,-11.31900,1.34903
-0.49147,1.63572,-0.10847,0.07001,-0.15599,0.33571,0.37278,0.62998,0.07821,0.94654,0.03177,-0.82848,0.38848,0.70148,0.35625,-0.47968,-5.31861,-17.03536,3.51485
-0.48978,1.63365,-0.10446,0.08055,-0.15451,0.32586,0.33157,0.46522,0.11620,0.71643,0.32079,-0.80810,0.38619,0.70235,0.35671,-0.47992,-3.99870,-14.89915,3.70080
-0.48791,1.63196,-0.10080,0.09142,-0.14755,0.31292,0.35105,0.40115,0.13312,0.35098,0.61337,-0.77073,0.38415,0.70137,0.35775,-0.48220,0.16336,-6.27692,1.05065
-0.48623,1.63044,-0.09723,0.09752,-0.13970,0.30133,0.38628,0.45284,0.14086,0.47125,0.71384,-1.06844,0.38316,0.69834,0.35799,-0.48718,3.40580,1.62886,0.81919
-0.48428,1.62916,-0.09418,0.10618,-0.12994,0.28474,0.41985,0.56461,0.11435,0.65830,0.71315,-1.20912,0.38371,0.69359,0.35792,-0.49355,2.13081,7.17399,-0.68658
-0.48204,1.62798,-0.09152,0.11733,-0.12080,0.26548,0.42206,0.66502,0.06873,0.78144,0.39271,-1.21604,0.38539,0.68854,0.35750,-0.49959,0.73406,8.10987,-3.31022
-0.47974,1.62668,-0.08881,0.12721,-0.11511,0.25093,0.38355,0.66058,0.05494,0.86276,0.34283,-0.93941,0.38614,0.68570,0.35685,-0.50336,-2.51700,1.22052,-0.19618
-0.47725,1.62529,-0.08594,0.13784,-0.11209,0.24177,0.36204,0.64259,0.01689,0.94973,0.23740,-0.65637,0.38721,0.68265,0.35705,-0.50652,-2.48445,-1.95412,-2.16690
-0.47418,1.62390,-0.08321,0.15493,-0.10956,0.23248,0.35981,0.61650,-0.04735,0.95361,0.13725,-0.41776,0.38873,0.67914,0.35832,-0.50918,-0.75668,-1.03389,-4.38881
-0.47134,1.62251,-0.08023,0.16519,-0.10745,0.22854,0.36879,0.56768,-0.06368,0.85585,0.24227,-0.28928,0.38889,0.67642,0.35961,-0.51176,0.19874,-3.09851,-1.68067
-0.46828,1.62126,-0.07725,0.17651,-0.10383,0.22558,0.40584,0.52783,-0.07070,0.71757,0.30485,-0.12980,0.38835,0.67347,0.36152,-0.51472,1.72468,-3.73172,-0.43684
-0.46511,1.62007,-0.07417,0.18712,-0.10012,0.22480,0.46515,0.51330,-0.06361,0.77612,0.30491,0.05008,0.38721,0.66996,0.36365,-0.51862,3.83117,-0.90401,0.26231
-0.46180,1.61883,-0.07084,0.19761,-0.09775,0.22782,0.53482,0.45086,-0.04737,0.83427,0.03264,0.28278,0.38481,0.66715,0.36680,-0.52182,5.67669,-2.77717,0.41881
-0.45844,1.61753,-0.06740,0.20652,-0.09690,0.23174,0.59053,0.35176,-0.02646,0.77602,0.14389,0.25990,0.38156,0.66532,0.37049,-0.52392,4.28118,-7.81092,1.16067
-0.45456,1.61647,-0.06406,0.22149,-0.09256,0.23319,0.65849,0.26252,-0.00397,0.88362,0.36874,-0.07125,0.37760,0.66349,0.37472,-0.52610,3.75914,-5.81470,1.33700
-0.45051,1.61558,-0.06108,0.23626,-0.08647,0.22914,0.70214,0.24135,-0.02278,1.15271,0.49693,-0.45383,0.37529,0.66037,0.37863,-0.52888,3.57127,-1.19659,-1.32015
-0.44672,1.61461,-0.05809,0.24333,-0.08304,0.22623,0.70370,0.23066,-0.02852,1.23608,0.53105,-0.53914,0.37341,0.65766,0.38159,-0.53145,2.64736,-1.41673,-1.48702
-0.44149,1.61437,-0.05560,0.26958,-0.07009,0.21707,0.70890,0.10853,-0.05692,1.47476,0.75982,-0.30613,0.37058,0.65661,0.38656,-0.53113,-0.13335,-6.08233,-2.10221
-0.43632,1.61415,-0.05266,0.29058,-0.05891,0.21597,0.73651,-0.00070,-0.07918,1.63254,0.90886,0.14835,0.36714,0.65544,0.39212,-0.53088,1.04814,-8.09153,-1.52361
-0.43046,1.61433,-0.04921,0.31777,-0.04378,0.22267,0.82086,-0.17438,-0.13030,1.84122,1.17436,0.59938,0.36221,0.65451,0.40065,-0.52905,4.43217,-10.57139,-3.50459
-0.42477,1.61452,-0.04568,0.33640,-0.03194,0.22898,0.89423,-0.26598,-0.17702,1.84589,1.34049,0.68636,0.35780,0.65256,0.40890,-0.52815,6.26950,-10.84427,-4.67014
-0.41804,1.61553,-0.04188,0.36582,-0.01113,0.23784,1.01074,-0.31712,-0.27146,2.26355,1.76526,0.67316,0.35381,0.64862,0.41927,-0.52757,7.94248,-5.28000,-5.73388
-0.40983,1.61761,-0.03784,0.41185,0.02191,0.24846,1.19878,-0.28462,-0.46902,2.70877,1.91159,0.56129,0.35171,0.64042,0.43281,-0.52805,11.03811,2.01656,-10.21857
-0.40143,1.61968,-0.03384,0.45234,0.04850,0.25674,1.34460,-0.23840,-0.63225,3.12051,1.86582,0.67138,0.35002,0.63178,0.44586,-0.52872,10.64934,4.36183,-11.43414
-0.39263,1.62171,-0.02956,0.48962,0.06869,0.26721,1.47139,-0.30441,-0.77417,3.45702,1.45074,0.89103,0.34694,0.62435,0.46057,-0.52698,11.22608,0.91504,-11.57613
-0.38246,1.62399,-0.02455,0.53956,0.08823,0.28662,1.58347,-0.66496,-0.95278,3.32667,0.97887,1.26697,0.34054,0.62104,0.48013,-0.51752,6.35819,-19.05175,-13.07058
-0.37211,1.62599,-0.01914,0.58235,0.09986,0.30801,1.66832,-1.06798,-1.11091,2.96242,0.68004,1.70994,0.33252,0.61933,0.50087,-0.50497,4.60649,-28.08983,-14.15912
-0.36133,1.62784,-0.01323,0.62258,0.10668,0.33263,1.79051,-1.39532,-1.29329,2.68655,0.38193,1.88262,0.32422,0.61580,0.52345,-0.49161,7.04183,-24.45707,-14.90440
-0.35020,1.62948,-0.00697,0.65968,0.10903,0.35706,1.92798,-1.62165,-1.48784,2.43752,0.06847,1.76716,0.31638,0.60998,0.54695,-0.47820,9.83243,-17.60318,-15.10459
-0.33875,1.63095,-0.00049,0.69382,0.10825,0.37981,2.06980,-1.73453,-1.68094,2.24637,-0.14922,1.65069,0.30954,0.60160,0.57061,-0.46547,10.53884,-10.21767,-14.04140
-0.32713,1.63211,0.00628,0.72293,0.10293,0.40191,2.28027,-1.64497,-1.83760,2.27191,-0.57276,2.05638,0.30397,0.58809,0.59399,-0.45709,13.51787,1.25986,-11.79369
-0.31438,1.63252,0.01412,0.76306,0.08746,0.43564,2.59732,-1.61544,-2.09698,1.94579,-1.13235,1.83599,0.29766,0.57012,0.62210,-0.44650,19.58545,2.11466,-13.17717
-0.30237,1.63250,0.02194,0.78435,0.06812,0.46281,2.80641,-1.67125,-2.23233,1.34445,-1.81612,1.94021,0.28897,0.55451,0.64824,-0.43452,16.55264,-2.57507,-9.08859
-0.29080,1.63221,0.02976,0.79412,0.04949,0.48361,2.94282,-1.80071,-2.33424,0.92148,-1.98870,2.11358,0.27861,0.54006,0.67402,-0.42001,13.71541,-9.34832,-9.26312
-0.27933,1.63037,0.03878,0.79995,0.01189,0.51730,3.09968,-2.12932,-2.51444,0.12054,-2.77573,2.00537,0.26427,0.52588,0.70332,-0.39868,9.08533,-19.14115,-13.31138
-0.26837,1.62744,0.04796,0.79713,-0.03541,0.54728,3.26170,-2.41113,-2.73793,-0.70000,-3.18777,1.70216,0.24989,0.50945,0.73310,-0.37495,8.30856,-18.44587,-18.08411
-0.25776,1.62390,0.05693,0.78959,-0.08250,0.56804,3.51771,-2.44201,-2.84924,-0.93229,-3.49753,1.40266,0.23607,0.48748,0.76119,-0.35669,15.92745,-7.45312,-9.56159
-0.24729,1.61942,0.06582,0.78143,-0.13399,0.58309,3.86648,-2.38256,-2.92963,-0.32516,-3.81055,0.73740,0.22156,0.46009,0.78937,-0.34078,25.79844,1.20977,0.63416
-0.23676,1.61417,0.07438,0.77613,-0.18615,0.58971,4.04637,-2.43286,-3.12484,-0.52090,-4.15392,-0.00094,0.20796,0.43377,0.81677,-0.31856,18.15544,-3.88202,-10.41460
-0.22672,1.60771,0.08243,0.76412,-0.24589,0.58703,4.22512,-2.42391,-3.27774,-1.46979,-4.55924,-0.44673,0.19467,0.40513,0.84263,-0.29656,13.71474,0.18201,-12.02165
-0.21755,1.59981,0.08982,0.74129,-0.31480,0.57481,4.47158,-2.37340,-3.36134,-1.92820,-5.20638,-1.06032,0.18016,0.37277,0.86734,-0.27623,17.60930,0.97793,-2.10277
-0.20908,1.59054,0.09650,0.71286,-0.38996,0.55438,4.76986,-2.33611,-3.49964,-1.80088,-5.53336,-1.67045,0.16502,0.33608,0.89181,-0.25395,22.18329,-0.16211,-2.90886
-0.20113,1.57882,0.10197,0.68196,-0.48806,0.51899,4.97475,-2.40536,-4.20254,-3.25671,-5.87779,-2.89032,0.15517,0.29506,0.91839,-0.21314,26.92370,6.38011,-50.30585
-0.19365,1.56760,0.10701,0.65043,-0.55690,0.48474,5.24977,-2.34926,-4.19551,-3.20663,-5.29557,-3.05629,0.13941,0.25375,0.93839,-0.18871,16.10073,-0.59771,-9.46703
-0.18735,1.55494,0.11039,0.60760,-0.63147,0.43248,5.58517,-2.22950,-4.04149,-3.44236,-5.13220,-4.37311,0.12263,0.20817,0.95547,-0.16945,25.35010,-2.30391,13.46895
-0.18196,1.54178,0.11232,0.56063,-0.69819,0.36977,5.88666,-2.16136,-3.77233,-3.48279,-4.42157,-4.82681,0.10325,0.16208,0.96921,-0.15394,19.05102,-8.66258,20.08313
-0.17737,1.52824,0.11296,0.51182,-0.75724,0.30106,6.16326,-2.13887,-3.45988,-3.55523,-3.96448,-4.98611,0.08194,0.11520,0.97987,-0.14095,14.42781,-11.13900,23.80090
-0.17367,1.51449,0.11237,0.45950,-0.80603,0.22786,6.43136,-2.24971,-3.11063,-3.87156,-3.07503,-5.43431,0.05566,0.06731,0.98771,-0.12958,14.30901,-19.21358,20.39139
-0.17032,1.50107,0.11115,0.41365,-0.83904,0.16176,6.61150,-2.42632,-2.80693,-3.67059,-2.44078,-5.59608,0.02677,0.02059,0.99241,-0.11820,7.93895,-25.46592,19.27839
-0.16830,1.48716,0.10746,0.35755,-0.87229,0.07240,6.70282,-2.67187,-2.49873,-3.17918,-1.88047,-5.90089,-0.00538,-0.02404,0.99383,-0.10814,1.06260,-24.58933,12.50402
-0.16588,1.47387,0.10384,0.31920,-0.88945,0.00287,6.65477,-2.80546,-2.39801,-2.98666,-1.28425,-6.26163,-0.03381,-0.06565,0.99288,-0.09344,-6.06499,-16.57234,3.99122
-0.16462,1.46072,0.09709,0.27152,-0.90059,-0.09943,6.47871,-2.75405,-2.52151,-2.66319,-0.31046,-7.15862,-0.05581,-0.10390,0.99037,-0.07250,-8.62915,3.44518,-5.63931
-0.16347,1.44851,0.08913,0.23141,-0.89537,-0.19960,6.26239,-2.54750,-2.68367,-3.11915,1.08922,-7.30007,-0.07186,-0.14022,0.98627,-0.04950,-9.57698,23.00737,-8.77038
-0.16257,1.43713,0.08032,0.19649,-0.87849,-0.28988,6.11055,-2.49566,-2.65586,-3.18901,2.12544,-7.48547,-0.09174,-0.17616,0.97958,-0.03125,-11.91708,12.60128,-0.45027
-0.16293,1.42796,0.06798,0.15027,-0.83252,-0.41442,5.90498,-2.64759,-2.48046,-2.95980,3.96946,-7.90069,-0.11720,-0.20821,0.97086,-0.01831,-15.22453,-6.87188,4.45512
-0.16328,1.42084,0.05467,0.11343,-0.76414,-0.52900,5.67862,-2.82790,-2.38931,-2.33566,5.82097,-8.39538,-0.14443,-0.23789,0.96048,-0.00424,-19.05010,-13.06722,0.40577
-0.16318,1.41458,0.04170,0.09155,-0.69953,-0.61161,5.51138,-2.95379,-2.36711,-2.05052,7.09223,-8.23390,-0.17109,-0.26738,0.94821,0.01127,-17.48175,-8.94622,-4.51523
-0.16397,1.41448,0.02355,0.06147,-0.55689,-0.75307,5.24126,-3.37443,-2.27093,-1.60692,9.22212,-7.43846,-0.20726,-0.29155,0.93357,0.02226,-16.19411,-19.03394,-6.21046
-0.16418,1.41588,0.00634,0.04546,-0.41774,-0.85484,4.93478,-3.98135,-2.13708,-1.23617,11.16018,-6.89640,-0.25091,-0.31245,0.91574,0.02899,-25.25360,-33.69335,-10.53620
-0.16403,1.41632,-0.00928,0.03854,-0.32711,-0.90865,4.67694,-4.44832,-2.07771,-0.98553,11.96889,-6.42072,-0.29441,-0.33178,0.89550,0.03627,-30.77658,-43.07108,-15.76235
-0.16374,1.42911,-0.03035,0.03566,-0.07527,-1.03024,3.77540,-5.56371,-2.20530,1.22356,13.69441,-6.25621,-0.36252,-0.32604,0.87223,0.03868,-46.34556,-47.72425,-37.93280
-0.16205,1.43976,-0.04945,0.05361,0.09908,-1.10102,3.24954,-5.74805,-2.47497,3.08485,15.63346,-6.35532,-0.40809,-0.32603,0.85115,0.05209,-37.88579,-16.77296,-42.40611
-0.15798,1.45713,-0.07040,0.10286,0.33395,-1.18350,2.80138,-5.43883,-2.86178,5.14789,17.52717,-5.97458,-0.44091,-0.32298,0.83415,0.07401,-20.55431,25.46301,-35.05209
-0.15028,1.48082,-0.09265,0.19681,0.61692,-1.26885,2.55380,-4.90161,-3.15921,6.61550,17.77354,-4.72317,-0.46446,-0.32281,0.81872,0.09887,-0.20965,43.19937,-17.43198
-0.14052,1.50542,-0.11431,0.30283,0.85799,-1.32884,2.29130,-4.88705,-3.22600,7.37278,17.46765,-3.51788,-0.49772,-0.32202,0.79731,0.11345,-8.00393,17.94637,-8.40313
-0.12823,1.53291,-0.13581,0.42468,1.09201,-1.37379,1.71181,-5.50030,-3.27758,8.77081,17.17550,-2.56715,-0.54785,-0.31029,0.76811,0.11657,-36.60949,-23.70651,-20.32881
-0.11293,1.56368,-0.15698,0.56626,1.32613,-1.40420,0.79384,-6.40562,-3.46120,10.99148,17.45563,-1.68989,-0.60928,-0.28325,0.73212,0.11204,-61.05301,-45.52794,-40.45709
-0.09186,1.60075,-0.17796,0.76846,1.61068,-1.42590,-0.52578,-7.55561,-3.86833,14.46329,19.37542,-0.99839,-0.68041,-0.23580,0.68665,0.09974,-74.07538,-51.67313,-60.88576
-0.06852,1.63912,-0.19832,0.96181,1.85419,-1.43340,-1.59220,-8.36205,-4.35395,18.25927,21.67937,-0.13525,-0.74456,-0.18354,0.63550,0.08991,-74.74521,-53.33082,-77.54771
-0.03695,1.68581,-0.21765,1.23532,2.16778,-1.42362,-2.63112,-8.79166,-5.09479,22.00516,22.60615,1.72358,-0.80042,-0.11741,0.58165,0.08503,-52.96431,-33.77531,-86.18115
0.00235,1.73915,-0.23544,1.57136,2.51946,-1.39288,-3.05358,-8.88736,-6.49543,21.61680,21.89605,3.08505,-0.84573,-0.04334,0.52118,0.10595,0.57579,0.91787,-76.95432
0.01569,1.77375,-0.24778,1.85389,2.79395,-1.33461,-3.90027,-8.46238,-7.73551,25.35368,25.01984,5.29918,-0.87355,0.04769,0.46931,0.11990,29.24949,-8.63070,-110.40120
0.02302,1.81671,-0.26370,2.21968,3.10961,-1.25167,-4.32288,-7.84974,-10.14721,29.67458,20.39072,7.85570,-0.88285,0.16932,0.40519,0.16653,57.75667,-35.43589,-172.58710
0.03590,1.86396,-0.27724,2.66728,3.38193,-1.12877,-3.80982,-6.44550,-12.24371,35.72187,16.32678,10.11929,-0.85958,0.28083,0.35731,0.23363,125.46190,-17.34830,-129.38540
0.06129,1.91197,-0.28545,3.23862,3.57997,-0.95522,-2.95348,-5.04165,-13.66411,46.94482,11.71954,15.23068,-0.81730,0.37789,0.31496,0.30004,134.39270,-31.67807,-80.16379
0.10232,1.95815,-0.28796,3.83456,3.66497,-0.74803,-2.29143,-4.10158,-14.84878,52.79472,2.39729,19.45358,-0.76118,0.47244,0.26259,0.35840,124.06370,-40.95462,-78.67596
0.15450,1.99559,-0.28085,4.60250,3.61104,-0.43048,-1.32213,-3.01548,-15.81893,57.58106,-10.32173,26.27937,-0.68319,0.55759,0.21797,0.41812,101.49700,-31.80003,-53.61621
0.21948,2.02184,-0.26467,5.41326,3.37735,-0.03710,-0.31419,-2.05633,-17.00951,59.12608,-23.11626,29.41667,-0.57960,0.64013,0.16807,0.47545,108.80700,-58.04038,-52.24005
0.29461,2.03218,-0.24033,6.20737,2.92104,0.42674,0.16694,-1.05342,-18.81831,57.35795,-42.58970,36.66009,-0.44107,0.73076,0.10204,0.51092,70.01831,-34.16879,-119.57720
0.37803,2.01789,-0.20515,6.95743,2.16034,0.99424,1.24862,0.60372,-20.56735,49.96971,-68.58450,45.06858,-0.26181,0.80467,0.05510,0.53002,112.81670,-26.77153,-135.53740
0.45667,1.95849,-0.15510,7.62002,0.82419,1.73111,3.77752,2.48215,-21.61312,30.05146,-100.44780,48.21084,-0.05344,0.83562,0.04688,0.54469,131.59400,-119.66630,-112.49410
0.52143,1.87073,-0.10055,7.87032,-0.75467,2.39791,7.12263,3.52763,-21.74080,3.17891,-126.59110,47.61361,0.15538,0.81451,0.06361,0.55533,101.62820,-187.17650,-101.88440
0.55991,1.74815,-0.04385,7.69203,-2.65590,2.97627,10.97325,3.73005,-21.58265,-29.33988,-148.81070,33.38540,0.36879,0.73957,0.09689,0.55465,26.59564,-230.81700,-151.73440
0.54385,1.57701,-0.00056,6.79983,-5.13443,3.29471,16.39110,5.44251,-21.72819,-82.69359,-161.02110,-1.03181,0.61665,0.61045,0.17140,0.46660,116.00640,-182.07270,-223.38510
0.50802,1.41862,0.01796,5.49603,-6.94778,3.14708,23.61642,7.99825,-20.28359,-129.28330,-139.15230,-34.02404,0.82235,0.40494,0.29773,0.26666,237.38030,-210.55260,-399.83420
0.39424,1.26998,-0.00308,3.31473,-8.56716,2.48937,35.99657,7.19841,-14.74590,-170.19790,-84.97130,-64.86173,0.85660,0.00982,0.51448,-0.03821,412.77810,-45.86481,-816.44890
0.25021,1.17888,-0.05068,0.89055,-9.26767,1.36072,43.85093,-2.27904,-9.58675,-165.08520,-19.13866,-80.99296,0.62748,-0.42689,0.61383,-0.21739,582.58530,480.61010,-699.31950
0.11526,1.14705,-0.11070,-1.12373,-8.85294,-0.05152,39.91103,-11.89428,-10.17832,-122.05180,63.17965,-96.90691,0.40019,-0.67113,0.59850,-0.17674,387.02760,783.81980,-168.04650
0.01522,1.15793,-0.16312,-2.24899,-7.60599,-1.07226,30.18998,-13.50701,-12.58373,-53.22134,97.97755,-49.51178,0.31858,-0.74815,0.58003,-0.04844,-93.44194,687.99550,131.73670
-0.04802,1.18367,-0.19508,-2.58845,-6.27905,-1.37773,19.20133,-7.22291,-13.39172,-9.18444,90.60597,-2.54206,0.42008,-0.70395,0.55759,0.13071,-247.75640,696.14200,452.23110
-0.08406,1.21139,-0.20934,-2.51890,-5.26442,-1.16127,11.88055,-0.20593,-10.34796,17.97897,64.08665,34.11915,0.57279,-0.59561,0.51458,0.22884,-138.52440,546.60340,697.89340
-0.10481,1.23601,-0.20731,-2.35031,-4.60816,-0.69728,7.93382,0.78383,-6.25672,14.52495,33.96924,42.44918,0.61842,-0.52155,0.54227,0.22687,-214.66480,59.93016,406.40580
0.26833,0.99218,-0.11231,-2.30490,-4.22707,-0.13997,3.62766,-0.60388,-4.57365,5.43235,17.69423,39.33340,0.58290,-0.46738,0.60943,0.26528,-317.00180,-23.52011,142.95480
0.40639,0.84466,-0.04851,-2.34102,-4.00483,0.33609,-0.56495,-1.32563,-3.84181,-3.80125,18.45831,27.26514,0.53208,-0.40103,0.66680,0.33384,-350.06880,-6.93153,17.85947
0.43063,0.75664,-0.00532,-2.42437,-3.74536,0.66705,-3.01192,0.66901,-3.50469,-7.04554,22.41845,17.26569,0.53792,-0.33284,0.65441,0.41425,-176.52100,153.02630,19.47349
0.41943,0.70301,0.02509,-2.50376,-3.41764,0.86301,-4.14882,2.91334,-3.13488,-4.46177,27.08435,11.67566,0.56340,-0.27087,0.61506,0.48052,-58.50174,209.92200,-13.88198
0.39303,0.67428,0.04834,-2.59259,-2.95477,0.96764,-4.38675,4.28081,-3.35821,-4.70329,31.73654,2.81806,0.57673,-0.23521,0.56935,0.53656,-18.62472,98.18402,-9.11769
0.36004,0.65634,0.06401,-2.62870,-2.53772,0.97592,-4.05097,4.71582,-3.66389,0.49791,28.31602,-0.40094,0.58064,-0.22208,0.52882,0.57783,24.02395,33.01862,-61.60921
0.32592,0.64559,0.07531,-2.63510,-2.12262,0.92577,-3.74045,3.87823,-3.73503,0.69966,25.48969,-5.03088,0.56511,-0.22323,0.51526,0.60442,5.80753,-54.57728,6.13421
0.29612,0.63477,0.08310,-2.62580,-1.87874,0.86618,-3.45531,3.53563,-3.79297,0.69296,24.16422,-7.64718,0.55522,-0.22056,0.49409,0.63164,5.60481,-56.52800,7.33582
0.26127,0.63277,0.08680,-2.58985,-1.51674,0.74051,-2.75787,3.44645,-3.90176,2.87925,21.81493,-8.75403,0.55599,-0.22535,0.46388,0.65184,35.17057,-22.82389,-9.89723
0.22820,0.63241,0.08828,-2.52701,-1.19584,0.60387,-2.17621,3.10775,-3.97038,6.27983,18.56327,-8.29701,0.55320,-0.23415,0.43777,0.66895,34.99630,-21.75920,-15.40826
0.19606,0.62734,0.09095,-2.47133,-1.02001,0.51567,-1.96011,2.48867,-3.81956,7.19552,17.06614,-8.88515,0.54179,-0.24148,0.42477,0.68390,14.41190,-50.96917,9.91849
0.16892,0.63010,0.08841,-2.35292,-0.76855,0.37122,-1.63441,1.52152,-3.42466,8.27101,14.76955,-9.18035,0.52848,-0.25664,0.42616,0.68793,6.12819,-66.21603,29.35018
0.14470,0.63373,0.08426,-2.20824,-0.55058,0.22973,-1.06806,1.06595,-3.04408,9.20666,12.40193,-7.70235,0.52711,-0.26913,0.41993,0.68803,23.91570,-41.37844,23.97006
0.12138,0.63518,0.08184,-2.08590,-0.41275,0.14408,-0.54956,1.11128,-2.89880,10.45654,10.61304,-6.62659,0.53229,-0.27681,0.40165,0.69190,39.98024,-13.01226,16.80356
0.10207,0.63806,0.07913,-1.93572,-0.28449,0.07553,-0.03735,1.32967,-2.73673,11.01386,7.88888,-3.63965,0.54306,-0.28106,0.37964,0.69423,44.96633,7.14986,5.61211
0.08347,0.64012,0.07751,-1.80733,-0.19679,0.03809,0.21248,1.37297,-2.56090,11.28909,6.52270,-2.36531,0.54900,-0.28450,0.36234,0.69740,29.33617,5.11246,11.39918
0.07143,0.64471,0.07546,-1.60539,-0.08894,0.00146,0.57790,1.37046,-2.31559,11.85927,5.56856,-1.35899,0.55875,-0.28903,0.34669,0.69575,20.39948,-4.83247,11.52447
0.06031,0.64843,0.07453,-1.43152,-0.01282,-0.00988,0.76519,1.33282,-2.12377,13.34686,5.10297,0.13118,0.56562,-0.29280,0.33220,0.69570,18.33512,-4.47126,10.55079
0.05111,0.65222,0.07472,-1.26829,0.04708,-0.00237,0.78416,1.35446,-1.91247,14.03198,4.56812,1.60650,0.57086,-0.29249,0.31935,0.69756,6.74354,-2.73163,16.08385
0.04834,0.65753,0.07717,-1.04247,0.11705,0.03767,0.55932,1.45141,-1.59949,14.21084,3.73717,3.87733,0.57325,-0.28474,0.31059,0.70274,-7.09989,5.15714,21.13197
0.04703,0.66241,0.08127,-0.84289,0.16800,0.09682,0.10779,1.63806,-1.32643,14.06765,3.06799,4.94033,0.57065,-0.27086,0.30282,0.71365,-26.46898,12.39228,22.89402
0.04819,0.66686,0.08684,-0.64833,0.20120,0.16558,-0.34184,1.97395,-1.12324,13.55958,1.46208,5.16399,0.56724,-0.25168,0.29194,0.72778,-31.96869,23.72048,17.57667
0.05251,0.66938,0.09422,-0.44471,0.19707,0.24643,-0.71018,2.58603,-0.62833,16.89165,-2.24402,7.06970,0.56945,-0.21813,0.28191,0.74072,-18.88550,39.08862,30.45930
0.06265,0.66934,0.10390,-0.19872,0.15610,0.34529,-0.83359,3.67196,-0.16152,16.23350,-2.72896,6.06293,0.58038,-0.16987,0.26042,0.75265,-6.61836,73.90353,40.32301
0.07353,0.66918,0.11252,0.00589,0.12278,0.40565,-0.76253,4.63040,-0.00851,13.44659,-1.54176,2.46436,0.59261,-0.12397,0.22950,0.76208,9.55805,77.31334,7.69681
0.08365,0.67032,0.11894,0.15523,0.11536,0.41825,-0.83194,5.08872,0.14856,12.95189,-0.16642,-0.05845,0.59819,-0.08296,0.20566,0.77006,2.42295,49.22048,6.28195
0.09931,0.67226,0.12316,0.35568,0.12223,0.39545,-1.01821,5.44524,0.46032,12.50566,0.85087,-2.89564,0.59997,-0.03712,0.18699,0.77697,-6.23547,24.71405,21.80148
0.11393,0.67455,0.12559,0.49905,0.13222,0.35041,-1.02495,5.69560,0.58768,11.33001,1.14869,-4.65625,0.60290,0.00454,0.16489,0.78058,0.54181,21.54557,15.05838
0.13096,0.67723,0.12531,0.64684,0.14552,0.27495,-0.96272,5.94898,0.64045,9.75980,1.02626,-6.24888,0.60622,0.04630,0.13974,0.78155,4.26207,19.75464,2.98266
0.14837,0.67982,0.12282,0.77010,0.15458,0.18259,-0.82118,6.19383,0.57342,7.82092,0.58407,-6.94794,0.61036,0.08626,0.11042,0.77964,5.99583,17.30935,-6.20400
0.16419,0.68216,0.12047,0.84278,0.15779,0.11327,-0.71028,6.33667,0.45633,6.88986,0.26513,-7.09857,0.61289,0.12346,0.08014,0.77634,4.99813,17.23868,-14.88134
0.18335,0.68460,0.11267,0.94903,0.16163,-0.02103,-0.53948,6.49473,0.16087,4.79906,0.30864,-8.07404,0.61624,0.15702,0.04370,0.77051,1.71020,5.01366,-11.99888
0.20088,0.68687,0.10531,1.01403,0.16235,-0.12482,-0.38817,6.53342,-0.05568,4.33791,-0.07589,-7.20353,0.61874,0.18829,0.00961,0.76264,4.21434,5.96003,-25.05613
0.21921,0.69074,0.09522,1.07893,0.18830,-0.25185,-0.39552,6.34291,-0.03040,3.16615,2.54951,-7.12834,0.61655,0.21828,-0.01511,0.75630,1.62744,-10.53064,0.86825
0.23607,0.69561,0.08652,1.10986,0.22622,-0.33154,-0.52571,6.18651,0.03660,2.35210,3.55718,-6.12380,0.60998,0.24923,-0.03867,0.75121,-4.64423,-12.27844,8.35373
0.25272,0.70227,0.07671,1.13238,0.28486,-0.41063,-0.75920,5.89117,0.21523,1.20325,4.74462,-5.37748,0.59880,0.27830,-0.05601,0.74890,-9.11474,-18.55836,18.47794
0.26890,0.71053,0.06655,1.14259,0.35490,-0.47883,-1.04539,5.58891,0.36199,0.44895,5.33299,-4.45312,0.58425,0.30536,-0.07242,0.74844,-12.42493,-22.01759,19.39876
0.28473,0.72066,0.05555,1.14564,0.44260,-0.54623,-1.31585,5.21466,0.58113,0.14731,5.89339,-4.26318,0.56745,0.33071,-0.08434,0.74934,-12.50487,-21.35388,19.17189
0.30038,0.73176,0.04454,1.14547,0.52885,-0.60085,-1.47319,4.89126,0.84236,0.10327,6.59968,-3.88393,0.55091,0.35659,-0.09335,0.74875,-3.30701,-23.03719,23.63066
0.31628,0.74469,0.03272,1.14737,0.62167,-0.65620,-1.62715,4.69607,1.08922,0.28697,6.75361,-3.94941,0.53231,0.38400,-0.10279,0.74741,-3.73988,-14.76677,21.32183
0.33206,0.75779,0.02058,1.14845,0.70080,-0.70335,-1.70738,4.57283,1.35468,0.00781,6.65058,-4.02009,0.51306,0.41293,-0.11059,0.74433,-0.79567,-9.27994,23.46717
0.34740,0.77332,0.00685,1.14265,0.80353,-0.76621,-1.75288,4.46023,1.69280,-0.51327,6.60376,-4.58315,0.49206,0.44317,-0.11483,0.74047,-1.06275,-3.60319,17.73954
0.36220,0.78956,-0.00732,1.12693,0.88722,-0.82129,-1.62366,4.29301,2.13403,-1.64694,7.12380,-5.01585,0.47267,0.47442,-0.11142,0.73423,18.21391,-6.79052,31.50660
0.37563,0.80847,-0.02338,1.09268,0.98603,-0.89110,-1.55644,4.24548,2.45073,-3.67291,7.50808,-4.52307,0.45153,0.50634,-0.11000,0.72639,21.38842,-1.99470,28.48386
0.38667,0.82917,-0.04088,1.02858,1.09226,-0.96879,-1.86819,4.37086,2.33496,-4.88103,6.52474,-4.52244,0.42470,0.53394,-0.12504,0.72035,-18.00359,4.34675,0.00532
0.39702,0.84902,-0.05787,0.96775,1.16308,-1.02214,-2.17380,4.44837,2.19592,-5.38956,5.47561,-4.36003,0.39649,0.55911,-0.14202,0.71416,-31.26698,2.81552,-5.59670
0.40514,0.86999,-0.07561,0.88715,1.23469,-1.07465,-2.41986,4.44484,2.16305,-6.16962,4.69601,-3.51590,0.36666,0.58302,-0.15621,0.70799,-19.98043,-1.40080,2.07862
0.41146,0.89126,-0.09329,0.79660,1.29586,-1.11527,-2.60656,4.37502,2.20135,-6.88256,4.00325,-2.50844,0.33583,0.60539,-0.16761,0.70187,-12.59118,-5.51374,6.01706
0.41542,0.90812,-0.11113,0.68321,1.34596,-1.14572,-2.82595,4.21393,2.20441,-7.54904,3.24615,-1.57917,0.30382,0.62376,-0.17925,0.69749,-10.95935,-10.16903,5.83617
0.42062,0.91427,-0.12843,0.59779,1.35851,-1.15967,-2.92890,4.02697,2.25517,-7.66146,2.43856,-1.46769,0.27248,0.64071,-0.18774,0.69282,-9.28655,-14.64057,7.66555
0.42420,0.91826,-0.14512,0.49206,1.36223,-1.17301,-2.74839,3.78050,2.45241,-8.29695,1.18077,-1.54416,0.24473,0.65801,-0.18644,0.68730,9.15839,-13.99345,12.33578
0.42339,0.93168,-0.16164,0.35620,1.36360,-1.18221,-1.96366,3.48979,2.76980,-8.93951,-0.85867,-0.66630,0.22945,0.67839,-0.16825,0.67737,49.46174,-7.46613,12.59049
0.42207,0.94904,-0.17793,0.25709,1.33790,-1.18124,-0.92111,3.37301,2.76328,-8.48595,-3.49200,0.33176,0.22830,0.70059,-0.14841,0.65956,75.48637,0.60487,-4.21496
0.41776,0.96391,-0.19260,0.13247,1.28019,-1.15563,-0.40560,3.06889,2.66984,-7.99483,-3.35789,3.02417,0.22336,0.71527,-0.13415,0.64846,41.26984,-7.53137,-17.81873
0.41332,0.97850,-0.20598,0.02926,1.22766,-1.11312,-0.28157,2.60872,2.58966,-7.28638,-4.01489,3.32666,0.21242,0.72332,-0.12395,0.64524,13.35426,-30.30793,-4.32877
0.40862,0.99223,-0.21862,-0.05918,1.17111,-1.06736,-0.12757,2.32798,2.38893,-6.08144,-4.23616,3.37178,0.20520,0.73195,-0.11631,0.63923,13.23095,-23.33192,-13.98492
0.40435,1.00595,-0.23142,-0.11693,1.12893,-1.03506,-0.07676,2.21626,2.19456,-5.93516,-4.21928,3.44860,0.19681,0.74199,-0.11200,0.63101,7.74661,-12.37068,-18.85132
0.39668,1.01717,-0.24184,-0.21603,1.05660,-0.97271,0.12707,1.99593,1.89909,-5.25057,-4.09029,3.43026,0.19591,0.74882,-0.10627,0.62418,6.68572,-11.56701,-18.78349
0.38982,1.02923,-0.25222,-0.28454,1.00952,-0.92074,0.56808,1.85294,1.80826,-4.82973,-3.30446,3.73239,0.19722,0.75831,-0.09097,0.61465,27.19771,-6.59026,-12.90455
0.38277,1.04136,-0.26229,-0.33786,0.97531,-0.87651,0.90558,1.76791,1.74222,-4.43979,-2.43180,4.03683,0.19816,0.76800,-0.07546,0.60433,36.19026,-4.24447,-9.28118
0.37344,1.05267,-0.27099,-0.41595,0.93453,-0.81988,0.71141,1.67961,1.78582,-4.48640,-1.98846,2.85978,0.18740,0.77613,-0.06871,0.59814,-10.46023,-6.90118,1.65422
0.36461,1.06453,-0.28075,-0.46858,0.91116,-0.79157,0.55791,1.71973,1.88099,-4.27715,-2.15699,2.07804,0.17434,0.78649,-0.06163,0.58927,-14.89709,-2.83496,9.46151
0.35460,1.07553,-0.29004,-0.52558,0.88101,-0.76311,0.45803,1.82766,1.98499,-3.98429,-2.47861,2.00793,0.16056,0.79823,-0.05399,0.57804,-8.21174,5.85494,8.87829
0.34409,1.08559,-0.29873,-0.58122,0.83732,-0.72889,0.33743,1.93242,2.04012,-3.39484,-3.33811,2.63139,0.14654,0.80974,-0.04795,0.56616,-7.55908,6.43860,5.74061
0.33395,1.09464,-0.30657,-0.61785,0.78803,-0.68882,0.22416,1.91000,1.98360,-2.38645,-3.99925,3.32790,0.13494,0.81855,-0.04369,0.55665,-8.68610,-0.19268,-0.68738
0.32399,1.10226,-0.31319,-0.64111,0.73066,-0.64010,0.10507,1.77839,1.85642,-1.49831,-4.45787,3.84013,0.12518,0.82474,-0.04112,0.54996,-6.76518,-8.30809,-6.89059
0.31448,1.10900,-0.31911,-0.65356,0.66674,-0.58925,-0.07888,1.56574,1.65691,-0.68802,-4.90789,3.70267,0.11651,0.82828,-0.04218,0.54643,-12.91288,-16.06435,-11.61501
