posX, posY, posZ, velX, velY, velZ, angVelX, angVelY, angVelZ, accX, accY, accZ, rotX, rotY, rotZ, rotW, angAccX, angAccY, angAccZ
0.39098,1.19567,-0.29857,-0.30275,0.65063,-0.42265,1.42581,0.74292,1.13152,-1.51016,2.82953,-1.69364,0.22420,0.75820,0.11136,0.60205,14.54214,2.84000,1.06360
0.38525,1.20741,-0.30605,-0.32499,0.68911,-0.44677,1.51890,0.71586,1.12887,-1.78295,2.78080,-1.58381,0.22674,0.76103,0.12500,0.59481,9.43935,-0.00121,-0.26451
0.37926,1.21932,-0.31360,-0.34608,0.72147,-0.46712,1.53633,0.67366,1.12224,-1.78641,2.70170,-1.73787,0.22809,0.76339,0.13721,0.58855,2.36757,-3.55935,-1.40115
0.37265,1.23201,-0.32165,-0.37164,0.75839,-0.49081,1.60211,0.66195,1.12575,-1.85501,2.59185,-1.85415,0.23027,0.76584,0.15067,0.58118,2.95915,-2.12137,-0.45231
0.36526,1.24537,-0.33019,-0.40364,0.79789,-0.51625,1.81210,0.71966,1.17739,-2.01076,2.24241,-1.64296,0.23452,0.76900,0.16865,0.57026,11.76402,3.81867,2.76312
0.35780,1.25842,-0.33870,-0.43077,0.82571,-0.53712,2.03043,0.82078,1.20507,-1.87871,1.70536,-1.48138,0.24018,0.77248,0.18712,0.55729,14.92586,7.06427,2.71209
0.35024,1.27140,-0.34729,-0.45407,0.84736,-0.55504,2.23356,0.94856,1.17167,-1.61423,1.46902,-1.11162,0.24794,0.77587,0.20478,0.54279,15.00576,10.58628,-0.25161
0.34270,1.28434,-0.35593,-0.47174,0.86342,-0.56900,2.27636,1.01627,1.09737,-1.60002,1.26915,-0.89324,0.25449,0.77864,0.21878,0.53017,7.93858,9.10979,-3.24374
0.33458,1.29773,-0.36491,-0.49490,0.88386,-0.58593,2.15936,1.06622,0.93918,-1.51285,1.47077,-0.97747,0.26072,0.78140,0.22683,0.51960,-8.08639,4.21792,-9.15312
0.32634,1.31133,-0.37362,-0.51539,0.90351,-0.59519,2.14126,1.13092,0.88820,-1.82130,1.84595,-0.87986,0.26644,0.78437,0.23789,0.50713,-7.01021,4.64808,-6.47984
0.31699,1.32562,-0.38232,-0.54670,0.92836,-0.60195,2.21113,1.23125,0.90879,-2.43639,1.72231,-0.37345,0.27234,0.78772,0.25195,0.49179,4.71864,7.01051,1.74415
0.30677,1.34020,-0.39062,-0.58520,0.95388,-0.60285,2.26793,1.33300,0.92630,-2.51410,1.56177,0.23341,0.27823,0.79103,0.26570,0.47566,3.63208,6.35714,2.08238
0.29655,1.35456,-0.39854,-0.61612,0.97126,-0.59774,2.27977,1.37767,0.94054,-2.74485,1.42323,0.64895,0.28319,0.79365,0.27875,0.46068,2.04596,5.13603,1.34916
0.28481,1.36941,-0.40595,-0.66174,0.99046,-0.58566,2.20141,1.39336,0.94932,-2.97916,1.04370,1.02800,0.28651,0.79646,0.28957,0.44690,-4.02180,0.96307,1.28662
0.27255,1.38411,-0.41260,-0.70699,1.00479,-0.56604,2.05067,1.36706,0.94081,-2.77476,0.79161,1.50556,0.28847,0.79913,0.29815,0.43506,-8.09563,-1.47593,0.33482
0.26058,1.39847,-0.41908,-0.73910,1.01135,-0.54735,1.90576,1.32651,0.91037,-2.68994,0.36241,1.63831,0.29042,0.80140,0.30574,0.42420,-12.39625,-3.88029,-0.69076
0.24787,1.41271,-0.42467,-0.77451,1.01463,-0.51991,1.85128,1.31874,0.88356,-2.43907,0.30372,1.92784,0.29352,0.80324,0.31449,0.41201,-8.11120,-2.12397,-2.34874
0.23446,1.42674,-0.42905,-0.81416,1.01520,-0.48141,1.94060,1.34197,0.90437,-2.52596,-0.08041,2.42580,0.29769,0.80421,0.32704,0.39708,5.30265,2.01777,0.89804
0.22098,1.44061,-0.43318,-0.84734,1.01312,-0.44500,2.10449,1.41883,0.92400,-2.27919,0.02388,2.49036,0.30346,0.80462,0.34124,0.37955,8.66342,4.03382,0.32370
0.20711,1.45439,-0.43674,-0.87962,1.01171,-0.40610,2.31133,1.52853,0.96689,-2.43086,-0.16988,2.92315,0.30989,0.80453,0.35729,0.35923,16.67863,9.14519,3.26402
0.19304,1.46796,-0.44022,-0.90759,1.00729,-0.37447,2.34002,1.56587,0.98046,-2.25808,-0.48650,2.76157,0.31437,0.80476,0.36988,0.34166,7.06124,5.19388,2.18929
0.17841,1.48106,-0.44273,-0.93859,0.99743,-0.33516,2.22339,1.58180,0.94845,-1.80831,-0.80319,2.50088,0.31797,0.80583,0.37823,0.32631,-5.60778,1.85549,-0.42958
0.16398,1.49403,-0.44558,-0.95886,0.98601,-0.30870,2.06276,1.54938,0.90185,-1.62590,-1.05109,2.09207,0.32074,0.80683,0.38484,0.31313,-13.13992,-2.41052,-2.22372
0.14915,1.50630,-0.44777,-0.98116,0.96745,-0.27795,1.92223,1.58482,0.84606,-1.26997,-1.08655,1.51488,0.32446,0.80833,0.39002,0.29870,-11.61301,0.45576,-2.63244
0.13461,1.51872,-0.45024,-0.99484,0.95346,-0.25758,1.91714,1.70767,0.84028,-1.06655,-1.08511,1.60175,0.32942,0.80950,0.39733,0.27987,-2.95863,7.96653,-0.24543
0.11971,1.53076,-0.45206,-1.00925,0.93735,-0.23233,1.89989,1.85077,0.85792,-0.99230,-1.13504,2.00934,0.33411,0.81117,0.40390,0.25931,-0.52915,11.04442,2.52023
0.10448,1.54229,-0.45309,-1.02661,0.91740,-0.20034,1.76212,1.91130,0.88341,-1.08374,-1.32016,2.22372,0.33643,0.81378,0.40776,0.24145,-7.52737,3.93703,3.61578
0.08921,1.55368,-0.45376,-1.04131,0.89823,-0.16924,1.63212,1.93340,0.91226,-0.98229,-1.41703,2.24134,0.33796,0.81625,0.41126,0.22448,-10.34960,0.67342,3.13030
0.07387,1.56490,-0.45414,-1.05240,0.87945,-0.14145,1.53381,1.95493,0.93570,-0.86294,-1.66976,2.33205,0.33951,0.81844,0.41469,0.20716,-7.25476,1.17041,3.34856
0.05848,1.57564,-0.45408,-1.06235,0.85868,-0.11368,1.42223,1.96047,0.95318,-0.75015,-1.79868,2.36499,0.34053,0.82082,0.41710,0.19057,-8.62034,0.18488,3.19187
0.04267,1.58525,-0.45249,-1.07621,0.82456,-0.06981,1.28746,1.94927,0.99852,-0.74345,-2.02559,2.50806,0.34005,0.82384,0.41860,0.17443,-6.47172,-0.99733,3.61515
0.02702,1.59504,-0.45133,-1.08559,0.79943,-0.04126,1.16795,1.89187,1.02846,-0.72165,-2.24416,2.28695,0.33901,0.82640,0.42020,0.15990,-8.17679,-4.66165,3.48134
0.01129,1.60397,-0.44956,-1.09310,0.76651,-0.01044,1.07367,1.88125,1.04704,-0.38540,-2.41500,1.95782,0.33847,0.82896,0.42120,0.14439,-7.98026,-3.54910,2.76206
-0.00395,1.61192,-0.44715,-1.09283,0.72664,0.02534,1.07505,1.94440,1.03394,0.18270,-2.56150,2.31020,0.34017,0.83026,0.42309,0.12630,-1.24521,4.14658,-0.05596
-0.01895,1.61940,-0.44443,-1.09002,0.68812,0.05853,1.05012,1.96364,1.01994,0.32112,-2.98434,2.51321,0.34132,0.83142,0.42459,0.10938,0.20510,2.55092,-0.45637
-0.03376,1.62620,-0.44113,-1.08389,0.64690,0.09348,0.94806,1.91792,0.97872,0.62842,-2.98310,2.65385,0.34197,0.83303,0.42427,0.09547,-6.89620,-2.55990,-1.82986
-0.04803,1.63200,-0.43680,-1.07173,0.59846,0.13674,0.86649,1.83595,0.91722,0.88638,-3.11195,2.70118,0.34277,0.83402,0.42426,0.08324,-5.92153,-5.01990,-2.79613
-0.06185,1.63746,-0.43216,-1.05606,0.55463,0.17459,0.82483,1.77588,0.84384,1.31024,-3.05037,2.54926,0.34436,0.83430,0.42465,0.07097,-4.59654,-4.78482,-4.76408
-0.07529,1.64279,-0.42743,-1.03699,0.51830,0.20596,0.87827,1.78873,0.75789,1.64812,-2.85705,2.32294,0.34783,0.83303,0.42649,0.05642,-0.06486,-1.23671,-6.37155
-0.08775,1.64724,-0.42247,-1.00935,0.47840,0.23813,1.07293,1.90944,0.63091,1.96952,-2.59997,2.03969,0.35491,0.82881,0.43090,0.03788,10.15518,7.30169,-9.78618
-0.09959,1.65141,-0.41751,-0.97951,0.44338,0.26524,1.28822,2.04064,0.52159,2.18590,-2.48868,1.91863,0.36272,0.82320,0.43643,0.01764,15.47386,12.88825,-9.54520
-0.11116,1.65543,-0.41260,-0.95044,0.41248,0.28557,1.29160,2.11090,0.45129,2.10691,-2.16868,1.52407,0.36905,0.81990,0.43769,-0.00004,1.73458,8.18063,-5.62122
-0.12258,1.65922,-0.40761,-0.92423,0.38464,0.30138,1.19621,2.06178,0.41198,1.81540,-2.00347,0.98389,0.37313,0.81801,0.43755,-0.01369,-5.28808,-2.84040,-2.41723
-0.13368,1.66271,-0.40276,-0.89879,0.35829,0.31209,1.11554,2.06663,0.37345,1.73800,-1.68346,0.60552,0.37790,0.81597,0.43656,-0.02828,-8.24706,-2.00653,-1.41909
-0.14440,1.66594,-0.39784,-0.87208,0.33264,0.32102,1.12462,2.16219,0.32316,1.93497,-1.83327,0.56902,0.38449,0.81224,0.43623,-0.04616,-1.16550,6.15424,-2.29349
-0.15478,1.66914,-0.39288,-0.84677,0.31165,0.32782,1.12477,2.25517,0.26135,2.27910,-1.66092,0.63480,0.39187,0.80797,0.43534,-0.06408,0.35458,8.16617,-4.75957
-0.16401,1.67202,-0.38744,-0.80985,0.29029,0.34022,1.10367,2.31820,0.19500,2.37799,-1.13718,1.05462,0.39948,0.80349,0.43387,-0.08113,-2.17099,4.78675,-4.20859
-0.17299,1.67495,-0.38122,-0.77585,0.27335,0.36218,1.13465,2.31643,0.16807,2.04420,-0.92213,1.63363,0.40541,0.79846,0.43423,-0.09771,0.78087,0.76286,-1.93225
-0.18192,1.67796,-0.37445,-0.74840,0.26050,0.38716,1.19728,2.29915,0.18565,2.05097,-0.93577,1.91636,0.40983,0.79312,0.43567,-0.11485,4.69434,-0.43837,0.19228
-0.19070,1.68091,-0.36744,-0.72449,0.24962,0.41029,1.22822,2.22968,0.21222,2.14747,-0.99393,1.96298,0.41306,0.78815,0.43725,-0.13044,3.87541,-3.46906,0.27698
-0.19852,1.68342,-0.35979,-0.69070,0.23459,0.43793,1.19217,2.09014,0.24488,2.21644,-0.97952,1.52011,0.41482,0.78443,0.43830,-0.14314,-1.63047,-9.55395,1.95576
-0.20625,1.68599,-0.35249,-0.66267,0.22404,0.45511,1.17907,2.01002,0.26139,2.40141,-0.81068,1.31382,0.41712,0.78010,0.43922,-0.15664,-1.51073,-7.33771,0.84002
-0.21327,1.68832,-0.34505,-0.63077,0.21245,0.47054,1.11319,1.87573,0.30727,2.31400,-0.96363,0.94490,0.41764,0.77729,0.43954,-0.16794,-2.04701,-8.62508,2.65894
-0.21994,1.69053,-0.33778,-0.59996,0.20098,0.48027,0.99295,1.70931,0.36410,2.20406,-0.79093,0.51605,0.41700,0.77608,0.43873,-0.17701,-8.28603,-12.43740,4.03866
-0.22601,1.69273,-0.33056,-0.56833,0.19046,0.48596,0.89484,1.59038,0.41045,2.16699,-0.77421,0.22324,0.41650,0.77480,0.43757,-0.18639,-6.67193,-9.81569,4.06359
-0.23228,1.69492,-0.32359,-0.54637,0.18283,0.48752,0.82137,1.52925,0.44642,2.12299,-0.85676,0.06907,0.41642,0.77322,0.43596,-0.19662,-6.05520,-7.74114,3.44303
-0.23704,1.69648,-0.31673,-0.50753,0.16786,0.48747,0.71998,1.44096,0.48349,2.14257,-0.78189,-0.10131,0.41571,0.77266,0.43368,-0.20521,-5.38291,-5.78633,2.80615
-0.24202,1.69808,-0.30996,-0.47761,0.15659,0.48647,0.67484,1.40464,0.50486,2.05296,-0.79574,-0.03226,0.41555,0.77102,0.43188,-0.21523,-3.25556,-3.10372,1.71379
-0.24654,1.69939,-0.30313,-0.44684,0.14333,0.48675,0.62842,1.32167,0.55176,1.91485,-0.81070,0.06585,0.41390,0.77022,0.43037,-0.22412,-2.55824,-5.03109,3.08450
-0.25123,1.70076,-0.29627,-0.42496,0.13384,0.48808,0.59633,1.23270,0.59951,1.83026,-0.78942,0.16777,0.41160,0.76960,0.42919,-0.23257,-2.47441,-6.61455,3.02166
-0.25546,1.70185,-0.28929,-0.40105,0.12200,0.49033,0.57413,1.12297,0.65138,1.66171,-0.90074,0.13025,0.40826,0.76939,0.42854,-0.24023,-1.12700,-8.71888,3.50078
-0.25904,1.70259,-0.28238,-0.37224,0.10735,0.49127,0.57084,1.04283,0.67917,1.86745,-0.94573,-0.01685,0.40527,0.76868,0.42819,-0.24806,0.17814,-5.48684,1.65785
-0.26246,1.70315,-0.27563,-0.34592,0.09316,0.49059,0.56218,0.97295,0.67817,1.89119,-1.12045,-0.05259,0.40286,0.76774,0.42788,-0.25535,-0.50738,-4.52304,0.55676
-0.26552,1.70335,-0.26889,-0.31941,0.07644,0.48932,0.55633,0.91798,0.65732,1.83147,-1.32891,-0.10233,0.40092,0.76648,0.42772,-0.26237,-0.15816,-4.82373,-1.20566
-0.26849,1.70334,-0.26216,-0.29735,0.06055,0.48818,0.55482,0.86290,0.63281,1.89830,-1.33890,-0.06087,0.39899,0.76511,0.42784,-0.26899,0.05344,-3.40322,-1.97684
-0.27068,1.70278,-0.25553,-0.26886,0.03974,0.48647,0.57179,0.81430,0.58195,1.57596,-1.19688,-0.14794,0.39763,0.76313,0.42874,-0.27515,0.00499,-4.81928,-3.14655
-0.27287,1.70220,-0.24895,-0.24567,0.02263,0.48378,0.64028,0.85844,0.52369,1.58292,-1.28218,-0.27124,0.39739,0.75928,0.43003,-0.28399,4.74497,2.67303,-4.27908
-0.27483,1.70137,-0.24260,-0.22390,0.00538,0.47843,0.67884,0.89960,0.46268,1.58577,-1.21684,-0.46883,0.39773,0.75532,0.43093,-0.29256,2.87943,3.96803,-4.23508
-0.27658,1.70047,-0.23651,-0.20333,-0.00936,0.47090,0.69015,0.89896,0.42686,1.51662,-1.05613,-0.57448,0.39745,0.75206,0.43166,-0.30019,1.04254,1.89246,-3.45389
-0.27842,1.69955,-0.23047,-0.18834,-0.02110,0.46367,0.66379,0.82489,0.43008,1.25139,-1.04029,-0.58665,0.39560,0.75041,0.43221,-0.30592,-0.90361,-3.47917,-1.07886
-0.28012,1.69837,-0.22469,-0.17486,-0.03393,0.45424,0.61913,0.70502,0.45481,0.82586,-0.81722,-0.79913,0.39245,0.75007,0.43277,-0.30997,-2.90303,-9.21991,1.75828
-0.28348,1.69728,-0.21940,-0.16696,-0.04413,0.44063,0.60259,0.65641,0.46809,0.74391,-0.68982,-1.29159,0.38992,0.74887,0.43326,-0.31534,-0.81335,-5.61787,1.03133
-0.28665,1.69615,-0.21476,-0.15835,-0.05267,0.41964,0.57840,0.70969,0.44850,0.81213,-0.65696,-1.79840,0.38964,0.74643,0.43244,-0.32253,-1.88478,1.78699,-0.92351
-0.28882,1.69489,-0.21081,-0.14730,-0.06065,0.39268,0.52641,0.81389,0.38910,0.93238,-0.60231,-2.06527,0.39176,0.74316,0.43033,-0.33022,-3.53616,7.10533,-3.14567
-0.28997,1.69355,-0.20735,-0.13431,-0.06786,0.36382,0.46184,0.95668,0.35157,0.83728,-0.48606,-2.02492,0.39474,0.73963,0.42666,-0.33925,-5.18196,9.43060,-2.58562
-0.29113,1.69210,-0.20409,-0.12407,-0.07509,0.33796,0.40767,1.05813,0.33337,0.77852,-0.52801,-1.71203,0.39724,0.73633,0.42290,-0.34811,-4.21318,8.85264,-1.81249
-0.29213,1.69050,-0.20098,-0.11354,-0.08318,0.31485,0.33606,1.08633,0.33017,0.70947,-0.56252,-1.24222,0.39895,0.73415,0.41901,-0.35537,-4.86933,2.44094,0.28708
-0.29308,1.68876,-0.19762,-0.10423,-0.09180,0.29970,0.31085,1.09727,0.31614,0.67462,-0.57567,-1.02876,0.40035,0.73146,0.41623,-0.36253,-2.65820,-0.23427,-0.18183
-0.29378,1.68690,-0.19436,-0.09314,-0.10050,0.28633,0.29791,1.13389,0.28176,0.89781,-0.64945,-0.86624,0.40264,0.72793,0.41351,-0.37015,-0.41956,3.51879,-2.43037
-0.29436,1.68493,-0.19106,-0.08257,-0.10881,0.27616,0.26326,1.08605,0.25916,0.78191,-0.52843,-0.62923,0.40403,0.72568,0.41117,-0.37561,-2.46387,-2.00101,-2.01783
-0.29481,1.68296,-0.18775,-0.07215,-0.11550,0.26831,0.26403,1.08036,0.22959,0.66663,-0.33223,-0.52953,0.40576,0.72249,0.40921,-0.38197,-1.27344,-2.66539,-1.46873
-0.29512,1.68113,-0.18443,-0.06213,-0.11881,0.26249,0.28671,1.10692,0.20749,0.94208,-0.18328,-0.43044,0.40762,0.71852,0.40733,-0.38943,1.25099,2.39541,-2.32913
-0.29502,1.67931,-0.18108,-0.04817,-0.12100,0.25802,0.30307,1.08419,0.16462,1.13633,-0.11910,-0.24229,0.40952,0.71472,0.40632,-0.39544,1.14660,-0.05607,-2.48026
-0.29450,1.67763,-0.17767,-0.03087,-0.12089,0.25540,0.30682,0.98912,0.13676,1.16708,0.14656,-0.08957,0.41028,0.71216,0.40610,-0.39949,0.29649,-5.52337,-2.53400
-0.29392,1.67622,-0.17405,-0.01613,-0.11685,0.25644,0.30012,0.85016,0.12793,1.03712,0.38534,0.20788,0.40995,0.71078,0.40632,-0.40204,-0.71752,-9.32140,-0.67369
-0.29329,1.67491,-0.17020,-0.00373,-0.11219,0.26046,0.33153,0.77031,0.11793,0.96832,0.52836,0.47906,0.40960,0.70843,0.40705,-0.40579,0.73227,-8.64954,-0.77110
-0.29214,1.67382,-0.16596,0.01366,-0.10543,0.26946,0.41755,0.70578,0.08504,1.15799,0.41693,0.64605,0.40904,0.70483,0.40961,-0.41002,5.21997,-3.12503,-2.48870
-0.29088,1.67278,-0.16155,0.02942,-0.09925,0.27921,0.48393,0.61667,0.05392,1.18898,0.47158,0.69697,0.40808,0.70172,0.41269,-0.41322,4.97814,-6.21427,-2.56297
-0.28928,1.67191,-0.15702,0.04689,-0.09168,0.28849,0.54267,0.51726,0.02652,1.37294,0.55984,0.64983,0.40670,0.69884,0.41633,-0.41581,4.07688,-6.25384,-2.58537
-0.28736,1.67117,-0.15236,0.06541,-0.08372,0.29790,0.56264,0.37125,0.00023,1.37852,0.51742,0.70393,0.40485,0.69720,0.42031,-0.41635,2.10234,-9.22326,-2.36603
-0.28524,1.67050,-0.14750,0.08318,-0.07657,0.30861,0.59134,0.20704,-0.02922,1.18363,0.49758,0.83530,0.40229,0.69597,0.42539,-0.41574,1.53373,-12.55080,-2.40746
-0.28275,1.66981,-0.14227,0.10283,-0.07097,0.32227,0.68320,0.11470,-0.09393,1.14301,0.35915,0.92698,0.40027,0.69261,0.43207,-0.41639,4.99398,-6.65304,-4.26541
-0.28021,1.66907,-0.13698,0.11954,-0.06728,0.33435,0.76789,0.06089,-0.16687,1.17805,0.23509,0.85635,0.39887,0.68847,0.43897,-0.41739,5.99991,-3.83980,-5.51383
-0.27746,1.66837,-0.13156,0.13589,-0.06372,0.34599,0.86534,0.03321,-0.25614,1.07968,0.31617,0.83158,0.39792,0.68325,0.44675,-0.41862,6.26008,-2.91669,-5.70743
-0.27451,1.66774,-0.12608,0.15166,-0.05989,0.35580,0.97568,0.06735,-0.34158,1.13452,0.33184,0.60485,0.39760,0.67644,0.45475,-0.42136,8.47550,2.15317,-6.65132
-0.27138,1.66734,-0.12067,0.16707,-0.05323,0.36254,1.03767,0.04891,-0.41750,1.19784,0.48741,0.31589,0.39715,0.67042,0.46285,-0.42259,5.98591,0.81267,-5.54655
-0.26808,1.66721,-0.11537,0.18166,-0.04414,0.36633,1.04502,-0.01900,-0.46905,1.00707,0.70346,0.20564,0.39625,0.66588,0.47056,-0.42210,0.84427,-4.83475,-4.15715
-0.26460,1.66728,-0.11014,0.19587,-0.03389,0.36846,1.05954,-0.03089,-0.52137,0.92642,0.80801,0.16550,0.39607,0.66046,0.47800,-0.42242,-0.08074,-2.36640,-3.74618
-0.26110,1.66741,-0.10488,0.20726,-0.02502,0.37023,1.07753,-0.03338,-0.55532,1.02188,0.64683,0.15654,0.39573,0.65480,0.48539,-0.42312,2.41320,1.87829,-3.71599
-0.25730,1.66785,-0.09946,0.22071,-0.01327,0.37419,1.04256,-0.15800,-0.57701,0.86151,0.79774,0.30846,0.39404,0.65171,0.49321,-0.42042,-2.36113,-7.51631,-2.07524
-0.25339,1.66842,-0.09386,0.23332,-0.00213,0.38025,1.05278,-0.22603,-0.59873,0.84313,0.85922,0.60407,0.39230,0.64752,0.50143,-0.41878,-0.98585,-6.70853,-1.26162
-0.24946,1.66884,-0.08813,0.24303,0.00449,0.38630,1.10833,-0.22447,-0.62488,0.94162,0.68531,0.69283,0.39091,0.64150,0.51012,-0.41886,3.34746,-1.49761,-2.35647
-0.24489,1.66948,-0.08201,0.26006,0.01261,0.39704,1.19928,-0.21588,-0.66719,1.22865,0.36174,0.64574,0.38938,0.63412,0.52001,-0.41937,6.35252,0.90457,-1.96712
-0.24009,1.66988,-0.07575,0.27737,0.01575,0.40788,1.23788,-0.29326,-0.71431,1.48156,0.01072,0.85945,0.38719,0.62830,0.53032,-0.41723,3.73512,-2.73997,-2.92173
-0.23493,1.66999,-0.06905,0.29607,0.01415,0.42254,1.24905,-0.46835,-0.77375,1.43798,-0.23094,1.18206,0.38370,0.62407,0.54199,-0.41176,-0.03228,-12.06107,-4.99748
-0.22937,1.66977,-0.06195,0.31678,0.00804,0.44011,1.32168,-0.58705,-0.87291,1.41439,-0.45042,1.34656,0.38066,0.61757,0.55536,-0.40655,3.06461,-10.14341,-7.35150
-0.22352,1.66941,-0.05459,0.33784,0.00130,0.45803,1.41383,-0.65817,-0.97113,1.49039,-0.46464,1.25322,0.37783,0.60965,0.56924,-0.40191,6.80416,-4.73835,-7.59530
-0.21719,1.66891,-0.04691,0.36146,-0.00644,0.47692,1.50985,-0.70381,-1.06431,1.41773,-0.60219,1.19553,0.37508,0.60076,0.58351,-0.39740,6.05277,-2.92443,-6.12315
-0.21093,1.66817,-0.03911,0.37963,-0.01604,0.49423,1.57126,-0.79618,-1.14596,1.35211,-0.84897,1.23531,0.37155,0.59264,0.59799,-0.39133,5.22823,-3.92660,-5.27106
-0.20457,1.66690,-0.03086,0.39578,-0.03204,0.51501,1.60463,-0.97321,-1.23122,0.76487,-1.16559,1.35297,0.36658,0.58576,0.61342,-0.38240,0.98108,-10.37385,-6.70745
-0.19850,1.66548,-0.02262,0.40395,-0.04659,0.53095,1.66941,-1.08771,-1.29355,0.51789,-1.21505,1.33893,0.36125,0.57759,0.62907,-0.37439,4.03460,-10.08104,-6.13281
-0.19243,1.66367,-0.01399,0.41054,-0.06384,0.54923,1.74879,-1.22183,-1.35329,0.43077,-1.31006,1.29414,0.35467,0.56902,0.64566,-0.36545,5.29376,-9.11590,-4.71921
-0.18645,1.66133,-0.00507,0.41476,-0.08573,0.56850,1.82173,-1.40994,-1.43234,0.22555,-1.43293,1.08045,0.34676,0.56056,0.66337,-0.35421,3.85705,-11.14966,-5.68066
-0.18058,1.65898,0.00366,0.41590,-0.10312,0.58047,1.86222,-1.54868,-1.49157,-0.06183,-1.53637,0.90769,0.33897,0.55203,0.68032,-0.34283,3.41980,-11.41248,-6.72794
-0.17497,1.65625,0.01242,0.41316,-0.12189,0.59027,1.88334,-1.69741,-1.53851,-0.32798,-1.67693,0.72100,0.33021,0.54392,0.69716,-0.33027,1.73818,-11.51015,-5.53117
-0.16967,1.65275,0.02131,0.40666,-0.14821,0.60001,1.88495,-1.91488,-1.62513,-0.43855,-1.66013,0.47836,0.32010,0.53635,0.71492,-0.31424,-0.63041,-12.77399,-6.64339
-0.16449,1.64906,0.02993,0.39971,-0.17231,0.60416,1.90888,-2.04986,-1.71754,-0.68268,-1.77583,0.15628,0.31079,0.52716,0.73237,-0.29858,0.88298,-9.89828,-8.26415
-0.15943,1.64487,0.03837,0.39156,-0.19836,0.60356,1.99704,-2.09528,-1.78861,-0.68968,-1.84171,-0.21300,0.30166,0.51524,0.75002,-0.28459,5.03860,-5.30389,-5.64050
-0.15456,1.64030,0.04638,0.38297,-0.22496,0.59756,2.12149,-2.07950,-1.83111,-0.72811,-1.96616,-0.62496,0.29275,0.50132,0.76730,-0.27244,9.43867,-0.22853,-1.87289
-0.15013,1.63529,0.05395,0.37021,-0.25307,0.58757,2.13712,-2.15912,-1.87995,-0.88029,-2.35954,-0.96672,0.28271,0.48983,0.78354,-0.25731,5.35772,-2.47138,-1.72851
-0.14615,1.62966,0.06123,0.35285,-0.28384,0.57398,2.00053,-2.35306,-2.03915,-1.25025,-2.30602,-1.13595,0.27276,0.48153,0.79913,-0.23479,-8.25703,-11.02858,-12.96356
-0.14224,1.62390,0.06821,0.33857,-0.31016,0.55964,1.90830,-2.44746,-2.17919,-1.29011,-2.02952,-1.23123,0.26408,0.47189,0.81379,-0.21292,-8.87823,-8.27148,-15.30532
-0.13855,1.61738,0.07449,0.32357,-0.34181,0.53738,1.92282,-2.39549,-2.28150,-0.99195,-1.74371,-1.49291,0.25736,0.45857,0.82812,-0.19415,0.81473,1.83126,-7.58233
-0.13504,1.61023,0.07953,0.30793,-0.37918,0.49873,2.12910,-2.04155,-2.23404,-0.76701,-1.30206,-1.62545,0.25461,0.43927,0.84139,-0.18513,11.28521,14.02392,6.46869
-0.12752,1.59805,0.09145,0.29286,-0.40218,0.47083,2.26881,-1.79184,-2.08736,-0.96782,-1.32957,-1.43453,0.24213,0.40679,0.86551,-0.16366,8.83775,11.99005,11.55357
-0.12444,1.59135,0.09689,0.27846,-0.41840,0.45491,2.33027,-1.68476,-1.99555,-1.30511,-1.51681,-1.28651,0.23577,0.38999,0.87656,-0.15478,6.12407,7.73950,10.09264
-0.12185,1.58419,0.10222,0.26050,-0.43709,0.44099,2.37215,-1.63183,-1.94938,-1.44503,-1.70706,-1.00207,0.22886,0.37308,0.88745,-0.14448,3.44834,4.58608,8.02776
-0.12020,1.57590,0.10733,0.23225,-0.46826,0.42629,2.50108,-1.57676,-1.88541,-1.78068,-1.74311,-0.66558,0.22114,0.35324,0.89883,-0.13570,6.33141,1.64190,3.74011
-0.11829,1.56811,0.11275,0.21363,-0.48645,0.41923,2.60593,-1.55891,-1.83382,-1.98170,-1.86785,-0.67256,0.21257,0.33325,0.90980,-0.12658,9.62306,0.61991,6.86922
-0.11741,1.55938,0.11799,0.18450,-0.51334,0.41075,2.76867,-1.55671,-1.76754,-2.19620,-1.93056,-0.46307,0.20257,0.31063,0.92109,-0.11861,9.52406,-1.75074,5.29839
-0.11757,1.54985,0.12310,0.14644,-0.54686,0.40243,3.04011,-1.59161,-1.62075,-2.78398,-2.12686,-0.60777,0.18932,0.28432,0.93291,-0.11404,14.87349,-5.03412,8.95511
-0.11903,1.53961,0.12773,0.09586,-0.58437,0.38818,3.26174,-1.72449,-1.49143,-3.42224,-2.73416,-1.29321,0.17258,0.25806,0.94439,-0.10842,13.85282,-11.19331,10.74569
-0.12144,1.52898,0.13178,0.04121,-0.62071,0.36830,3.34717,-1.89702,-1.53712,-4.17520,-2.71346,-1.69150,0.15602,0.23366,0.95485,-0.09652,5.22633,-11.65426,-4.06397
-0.12797,1.51579,0.13338,-0.07185,-0.69364,0.31177,3.65523,-2.25593,-1.51266,-4.41996,-2.85398,-2.45730,0.13172,0.20351,0.96640,-0.08542,11.30952,-14.91721,-0.01507
-0.13515,1.49270,0.13857,-0.14676,-0.74817,0.26063,4.06271,-2.54232,-1.33615,-4.11438,-3.03610,-3.22769,0.08827,0.14237,0.98336,-0.07034,19.24885,-20.04440,7.95843
-0.14085,1.47940,0.13881,-0.20150,-0.79153,0.20998,4.38893,-2.78474,-1.19237,-3.79797,-3.20761,-4.09959,0.05993,0.10580,0.99043,-0.06526,20.28936,-22.34934,9.46752
-0.14671,1.46585,0.13810,-0.24617,-0.82835,0.15643,4.64190,-2.99395,-1.09920,-3.60889,-3.04437,-4.92496,0.03099,0.06872,0.99539,-0.05929,18.67647,-21.80161,6.89726
-0.15348,1.45162,0.13533,-0.29449,-0.86724,0.08463,4.86589,-3.21794,-1.07545,-3.18542,-2.74126,-5.50040,0.00031,0.03054,0.99821,-0.05133,15.45393,-19.12528,1.65163
-0.16095,1.43702,0.13036,-0.34405,-0.90468,-0.00576,5.04970,-3.43259,-1.18468,-2.92210,-2.08370,-6.10422,-0.03070,-0.00814,0.99874,-0.03892,12.75795,-12.67462,-7.22537
-0.16813,1.42302,0.12517,-0.37883,-0.92464,-0.08073,5.14995,-3.58787,-1.30677,-2.89060,-1.24834,-6.58518,-0.06099,-0.04548,0.99678,-0.02515,11.18329,-9.27885,-12.12711
-0.17599,1.40934,0.11745,-0.41606,-0.93606,-0.17606,5.23171,-3.79316,-1.41428,-2.56354,-0.32282,-7.16108,-0.09396,-0.08254,0.99209,-0.01074,8.00172,-10.99871,-11.06534
-0.18400,1.39646,0.10780,-0.44823,-0.93415,-0.28016,5.29484,-3.99195,-1.50549,-2.15255,0.75280,-7.90991,-0.12787,-0.11914,0.98460,0.00380,6.08386,-11.32167,-10.93969
-0.19203,1.38462,0.09603,-0.47363,-0.91653,-0.39353,5.33496,-4.20002,-1.57173,-1.54581,1.83892,-8.39919,-0.16333,-0.15514,0.97413,0.01802,3.88943,-12.64387,-8.87858
-0.19988,1.37454,0.08130,-0.49182,-0.87709,-0.52868,5.35443,-4.44118,-1.65761,-0.71000,3.17318,-8.61946,-0.20072,-0.19005,0.96047,0.03299,2.21363,-12.22243,-10.50324
-0.20699,1.36589,0.06583,-0.49526,-0.82353,-0.64858,5.32139,-4.63071,-1.74491,0.24428,4.75222,-8.85285,-0.23752,-0.22288,0.94424,0.04814,0.69018,-10.60077,-11.23697
-0.21342,1.35809,0.05067,-0.48867,-0.77114,-0.73707,5.24621,-4.75038,-1.77919,1.02822,6.02740,-9.13901,-0.27262,-0.25339,0.92610,0.06168,-3.97096,-8.46949,-11.37800
-0.21820,1.35496,0.03005,-0.45954,-0.66286,-0.88390,5.10549,-4.89772,-1.82265,2.73226,7.74555,-9.41690,-0.30908,-0.28051,0.90564,0.07492,-7.76989,-6.48797,-10.34463
-0.22063,1.35493,0.00776,-0.40134,-0.52870,-1.02969,4.99388,-4.93724,-1.77204,4.59410,9.14460,-8.90150,-0.34168,-0.30762,0.88395,0.08521,-8.22802,-3.01986,-1.41467
-0.22279,1.35408,-0.01245,-0.35186,-0.43501,-1.11337,4.93477,-4.92318,-1.70938,5.41499,9.86909,-7.99783,-0.37188,-0.33535,0.86037,0.09498,-7.09494,0.24681,1.97921
-0.22178,1.35800,-0.03517,-0.26939,-0.29599,-1.21352,4.74989,-5.05545,-1.52627,6.05680,10.50947,-6.28047,-0.40504,-0.35914,0.83510,0.09780,-13.19956,-5.48105,4.83001
-0.21696,1.36699,-0.05881,-0.14635,-0.10801,-1.31015,4.24019,-5.64045,-1.22508,7.24058,11.16167,-4.42823,-0.45119,-0.37317,0.80589,0.08783,-31.96280,-30.06478,-3.84371
-0.21152,1.37616,-0.08076,-0.03595,0.04935,-1.36373,3.69222,-6.18349,-1.05297,8.55686,11.75570,-3.29269,-0.49869,-0.38223,0.77413,0.07702,-40.56507,-37.32584,-14.51296
-0.20471,1.38673,-0.10204,0.07030,0.19283,-1.39682,3.21115,-6.60589,-0.95371,9.43286,12.43726,-2.29532,-0.54454,-0.38859,0.74037,0.06577,-40.26052,-31.89783,-18.95530
-0.19419,1.40179,-0.12300,0.20680,0.36986,-1.41889,2.62657,-7.07565,-0.87323,10.14048,12.96927,-0.87526,-0.59255,-0.38819,0.70410,0.04930,-39.24753,-30.14721,-20.71499
-0.18948,1.41894,-0.13228,0.48243,0.73661,-1.40135,1.33575,-8.00529,-1.09793,9.43848,13.86205,2.34490,-0.65386,-0.36380,0.66305,0.02195,-37.85202,-29.40131,-34.10335
-0.18457,1.44299,-0.16120,0.60771,0.92626,-1.35619,0.56712,-8.39099,-1.53521,8.83966,13.84107,4.17585,-0.74318,-0.33714,0.57793,-0.00354,-29.96939,-25.38648,-55.48375
-0.18701,1.45838,-0.16807,0.72406,1.12272,-1.28847,-0.25113,-8.53943,-2.14127,8.57214,15.12473,5.60033,-0.78984,-0.29705,0.53631,-0.01674,-23.62285,-9.17208,-66.93431
-0.18841,1.47634,-0.17295,0.84336,1.34606,-1.20539,-1.12963,-8.60166,-2.90838,8.81886,17.72809,6.31994,-0.83337,-0.24392,0.49515,-0.02869,-19.28391,0.09989,-77.05675
-0.18878,1.49787,-0.17636,0.97486,1.61063,-1.11424,-2.08634,-8.88017,-3.94945,9.53630,21.04908,6.48542,-0.87764,-0.17264,0.44528,-0.04089,-15.14395,-12.92249,-93.43070
-0.18620,1.52345,-0.18108,1.09846,1.86913,-1.03413,-2.93108,-9.38522,-5.14146,10.59860,22.99927,6.50622,-0.91895,-0.08727,0.38109,-0.05180,-10.12706,-43.10190,-111.46060
-0.18215,1.55264,-0.18574,1.26184,2.19764,-0.94457,-3.74578,-9.94612,-6.54767,13.14250,25.43649,7.18580,-0.95016,0.01561,0.30557,-0.05980,-9.26270,-61.00424,-111.68740
-0.16905,1.58845,-0.19729,1.48415,2.63605,-0.84247,-3.70533,-9.69586,-9.22922,17.85025,29.75835,8.40917,-0.95973,0.14741,0.23860,-0.01612,93.66541,-76.08127,-121.40470
-0.14874,1.63074,-0.20672,1.78068,3.06648,-0.71323,-3.51592,-8.57528,-10.81672,25.67219,32.21360,12.36528,-0.94477,0.25882,0.19994,0.02097,92.39627,-6.91559,-98.70959
-0.12101,1.67946,-0.21212,2.19033,3.52762,-0.53578,-2.16303,-6.82201,-12.51291,34.16131,31.88076,15.52808,-0.90787,0.36330,0.18474,0.09824,196.10520,-37.14398,-72.82471
-0.08283,1.73302,-0.21114,2.75497,3.98088,-0.27095,-0.06438,-4.91081,-13.62141,46.93657,31.43689,24.49783,-0.85341,0.44553,0.18732,0.19522,196.52330,-52.69353,-15.31353
-0.03078,1.78970,-0.20009,3.48111,4.38047,0.12044,2.56712,-3.32468,-14.50781,58.23922,25.58248,33.34768,-0.77582,0.51300,0.19340,0.31231,206.52370,-101.27560,-10.44269
0.03249,1.84512,-0.17472,4.36330,4.66422,0.65685,5.33978,-2.53292,-15.50346,70.27113,15.08455,43.83646,-0.66885,0.56975,0.18355,0.44082,162.00870,-143.75540,-32.49424
0.11188,1.89611,-0.13683,5.25147,4.74115,1.26023,7.61664,-2.51214,-17.21216,81.02631,-3.59206,56.78826,-0.51877,0.62837,0.14207,0.56200,114.03890,-147.73010,-120.15730
0.21808,1.91221,-0.07004,6.55907,4.31344,2.28757,10.06624,-2.84127,-19.60379,80.85091,-53.00294,71.52199,-0.30669,0.66777,0.07770,0.67378,101.98750,-96.64088,-195.68780
0.32261,1.88426,0.01632,7.58160,3.23735,3.37211,12.73972,-3.54527,-19.73716,60.24771,-101.58030,83.31312,-0.11338,0.63350,0.03711,0.76449,30.86216,-119.99030,-127.59750
0.41707,1.82011,0.11214,8.18969,1.79228,4.33873,14.55993,-4.43729,-19.66658,41.57427,-142.63100,79.05936,0.07542,0.57079,-0.00871,0.81758,-53.11286,-171.50330,-124.19750
0.47755,1.65065,0.22520,8.47761,-0.95293,5.49508,17.07125,-3.38530,-21.56805,-3.80275,-206.32820,55.23367,0.34168,0.51153,-0.04529,0.78711,89.14912,-83.66877,-116.95230
0.48532,1.42821,0.29872,7.80108,-4.10370,5.90307,20.99958,2.80101,-22.36350,-86.99870,-240.61650,-8.93239,0.63190,0.49270,0.01764,0.59803,339.41690,-212.66240,-97.29697
0.39837,1.17936,0.29753,5.85653,-7.30056,5.30823,29.60254,9.50864,-15.52963,-175.12950,-208.28630,-78.60886,0.83243,0.37604,0.29264,0.28288,463.31390,-532.32930,-487.18760
0.21435,0.96809,0.20230,2.78736,-10.00188,3.48617,42.45703,6.85292,-4.13608,-205.08950,-128.53000,-148.43710,0.80273,-0.04373,0.58491,-0.10770,632.91090,256.04170,-872.94830
0.05049,0.85140,0.05369,0.04339,-10.98392,0.85713,46.69819,-4.34894,-1.44284,-189.11920,-5.78846,-198.70450,0.59413,-0.46950,0.59090,-0.27824,717.20480,709.24490,-232.52440
-0.03713,0.77698,-0.05273,-1.23294,-10.57334,-0.80838,42.49121,-8.69365,-4.74710,-143.30780,88.29083,-186.78180,0.48024,-0.66363,0.48941,-0.29908,398.28690,719.73750,301.91310
-0.13232,0.90338,-0.21436,-2.56220,-8.01656,-2.93669,29.14750,-5.72471,-10.86634,-14.45881,157.78300,-41.49318,0.58996,-0.68169,0.42867,-0.05907,-265.48180,563.03470,685.23850
-0.13774,0.99926,-0.25428,-2.47037,-6.07194,-2.87415,22.49232,-5.27958,-8.60838,28.51765,98.12087,39.06325,0.58637,-0.66857,0.45582,-0.03760,-462.78260,137.08790,224.64190
-0.12522,1.04884,-0.25122,-2.13026,-5.06231,-2.21599,16.27673,-8.78580,-4.39097,22.45367,51.32127,54.20445,0.49505,-0.62786,0.59678,-0.06766,-473.77150,-52.26797,-308.15490
0.19372,0.92272,-0.11622,-1.95644,-4.63524,-1.45422,9.60182,-10.24178,-3.69415,-2.55636,14.23735,48.86921,0.40118,-0.58505,0.70469,-0.01347,-412.91170,-31.57666,-293.44310
0.35593,0.81483,-0.02807,-2.03216,-4.42431,-0.78831,2.99621,-5.97779,-3.48583,-13.77576,16.04706,40.33673,0.44223,-0.49184,0.73853,0.13076,-369.95440,363.04690,-159.47640
0.40598,0.73939,0.01831,-2.22856,-4.22840,-0.31853,-2.05352,-0.68409,-2.50580,-16.70851,22.27726,26.60878,0.52717,-0.35719,0.72228,0.26986,-348.81960,467.37210,-13.08571
0.40045,0.69159,0.04338,-2.49226,-3.88710,-0.05629,-2.66348,4.49605,-3.78742,-14.80119,28.97583,18.88824,0.61069,-0.32675,0.60558,0.39188,15.61136,392.28110,-176.12500
0.37269,0.65893,0.06075,-2.69100,-3.49544,0.12006,-2.90099,5.49256,-4.41427,-7.73875,30.45762,14.00674,0.62299,-0.31300,0.55118,0.45838,-6.45609,165.41890,-29.98312
0.33743,0.63701,0.07440,-2.80306,-3.08058,0.24614,-2.74093,4.05500,-5.06153,-4.62110,29.00409,8.37601,0.58855,-0.33610,0.54321,0.49556,-26.88372,-95.86491,-34.76160
0.30163,0.62083,0.08716,-2.82932,-2.69114,0.34826,-2.96722,2.87995,-5.20982,-0.33588,27.60690,5.07592,0.55280,-0.34480,0.54262,0.53017,-52.08709,-94.65490,4.09154
0.26694,0.60519,0.09792,-2.79942,-2.38543,0.40914,-3.28237,2.61925,-4.97403,2.78574,23.76564,2.77479,0.53321,-0.33453,0.53195,0.56639,-32.43053,-25.17123,28.44815
0.24260,0.60189,0.10724,-2.72183,-2.03913,0.43508,-3.56443,2.94363,-4.55883,5.44579,20.82624,-0.53574,0.52567,-0.31090,0.51287,0.60330,-9.00916,24.80503,24.24081
0.21146,0.59118,0.11334,-2.64032,-1.79424,0.42216,-3.71004,3.26148,-4.27572,7.51384,20.52525,-2.52128,0.51855,-0.28816,0.48968,0.63897,5.80985,41.34878,15.43621
0.18420,0.58731,0.11604,-2.52138,-1.50345,0.36391,-3.77668,3.36877,-3.88808,9.59159,21.75072,-6.55120,0.51035,-0.26523,0.47168,0.66837,0.25161,18.69670,20.96840
0.15999,0.58796,0.11338,-2.38195,-1.20608,0.24685,-3.45953,3.36611,-3.40519,9.78933,21.88895,-11.09654,0.50955,-0.24828,0.45567,0.68635,21.29351,4.14239,32.20223
0.14055,0.59406,0.10423,-2.21430,-0.88814,0.05196,-2.19181,3.81334,-3.17378,9.35374,18.28779,-14.52561,0.53510,-0.24450,0.41744,0.69256,73.97403,8.68596,-4.00848
0.12042,0.59637,0.09231,-2.08241,-0.68085,-0.13985,-0.64279,4.01410,-3.15226,9.17479,12.18239,-13.28074,0.56679,-0.25501,0.37254,0.68915,110.26320,2.13506,-32.56805
0.09990,0.59703,0.07880,-1.97152,-0.53756,-0.30925,0.39858,3.22224,-2.91309,8.76066,8.05571,-10.00159,0.58226,-0.27773,0.35391,0.67719,80.42309,-53.71429,-13.14361
0.08265,0.59822,0.06568,-1.84519,-0.41179,-0.44638,0.82463,1.70467,-2.39757,7.73050,7.18081,-7.01034,0.57974,-0.30662,0.36510,0.66075,15.61886,-104.04050,24.15502
0.06645,0.59879,0.05520,-1.72145,-0.31717,-0.51496,1.02341,0.74508,-1.99185,8.54946,6.05928,-3.18695,0.57778,-0.32725,0.37163,0.64882,8.92443,-79.74284,22.09957
0.05205,0.60001,0.04677,-1.59011,-0.23372,-0.53594,1.03788,0.06411,-1.64666,9.25239,5.90254,-0.15984,0.57413,-0.34329,0.37849,0.63974,-4.80611,-59.23542,22.67413
0.04076,0.60213,0.04077,-1.44390,-0.15310,-0.51883,1.13096,-0.09528,-1.48921,9.92096,5.76175,2.25525,0.57636,-0.35410,0.37425,0.63432,2.05940,-20.95543,13.50351
0.03022,0.60449,0.03648,-1.31455,-0.08638,-0.47945,1.15798,-0.09096,-1.47876,10.78411,5.18407,4.16888,0.57821,-0.36355,0.36506,0.63264,7.33906,-2.83814,3.60110
0.02337,0.60796,0.03476,-1.15604,-0.01963,-0.40922,1.03286,-0.00105,-1.42919,11.77584,3.91106,6.24841,0.57853,-0.36821,0.35672,0.63441,-4.22377,6.26610,1.68988
0.01930,0.61103,0.03534,-0.99113,0.02872,-0.32089,0.82254,0.31249,-1.34403,12.69477,2.35728,7.51448,0.58012,-0.36505,0.34603,0.64067,-12.20791,15.54993,6.71387
0.02880,0.60993,0.04848,-0.65405,0.00556,-0.06196,0.48330,1.90285,-0.56452,27.34968,-5.23136,25.53558,0.60232,-0.31689,0.32675,0.65576,-19.47707,57.39689,44.66771
0.04074,0.60552,0.06675,-0.35564,-0.05913,0.21223,0.22296,3.56784,0.05961,21.41767,-4.51593,18.53038,0.62797,-0.25628,0.29624,0.67247,4.48767,171.95610,69.32426
0.05230,0.60455,0.08296,-0.12345,-0.05966,0.40063,-0.50612,3.98659,0.35904,12.21006,3.45545,6.81074,0.62764,-0.21363,0.28543,0.69207,-33.69538,45.30258,32.14528
0.05951,0.60934,0.09172,0.00475,0.02182,0.44672,-1.31440,3.46138,0.34339,7.99236,6.98119,0.83264,0.60965,-0.19458,0.28957,0.71177,-56.87032,-30.91809,20.55247
0.06643,0.61551,0.09740,0.10274,0.10581,0.44105,-1.78636,2.94887,0.23433,6.07213,5.54486,-1.64236,0.59303,-0.18219,0.29144,0.72814,-42.03033,-42.21859,7.62496
0.07289,0.62044,0.10147,0.17392,0.15437,0.41371,-1.89328,2.64587,0.11901,5.47355,3.52705,-3.18801,0.58343,-0.17124,0.28758,0.73999,-17.86521,-29.24682,-1.52916
0.08175,0.62509,0.10235,0.26647,0.18932,0.34421,-1.85527,2.09023,0.08840,5.20827,0.74742,-4.56617,0.57449,-0.16796,0.29021,0.74667,2.68834,-27.84121,-1.38586
0.08904,0.62787,0.10309,0.31935,0.19106,0.28658,-1.85061,1.54450,0.25466,4.40769,-0.52848,-5.03888,0.56531,-0.16302,0.29972,0.75101,2.76503,-40.49320,14.83554
0.09672,0.62968,0.10266,0.36598,0.17865,0.22545,-1.79648,0.99482,0.48557,3.61883,-1.42993,-5.20842,0.55667,-0.15987,0.31407,0.75228,5.16265,-44.93037,24.30045
0.10560,0.63001,0.09994,0.42097,0.14728,0.14445,-1.59829,0.42915,0.73529,3.07125,-2.19733,-4.95608,0.55085,-0.16039,0.33164,0.74890,13.33992,-35.73136,21.13299
0.11427,0.62984,0.09695,0.46561,0.11422,0.07718,-1.30668,0.18166,0.84719,2.90907,-2.20490,-4.66115,0.54988,-0.15894,0.34175,0.74537,19.90147,-21.29871,12.67979
0.12325,0.62952,0.09389,0.50465,0.08659,0.02247,-0.94276,0.25036,0.78324,2.74044,-2.08511,-4.43383,0.55440,-0.15536,0.34176,0.74276,26.27576,-2.40642,0.67585
0.13382,0.62784,0.08871,0.55932,0.04465,-0.05195,-0.22626,0.75131,0.37156,2.66514,-2.33062,-3.76343,0.57245,-0.15232,0.32144,0.73877,38.02454,27.22980,-24.71288
0.14353,0.62659,0.08474,0.59162,0.01730,-0.09512,0.22354,1.17238,0.01947,2.79837,-2.35491,-3.24093,0.58705,-0.14766,0.30069,0.73699,37.83289,35.44719,-32.11567
0.15341,0.62533,0.08085,0.61735,-0.00371,-0.12779,0.53180,1.47518,-0.22574,2.87198,-2.13521,-3.07638,0.60036,-0.14246,0.28098,0.73507,31.56886,34.49576,-29.87370
0.16490,0.62298,0.07500,0.66192,-0.03554,-0.18050,0.90886,1.88057,-0.53600,2.60916,-1.83140,-2.47940,0.61768,-0.13658,0.25371,0.73174,21.05346,24.75408,-19.53227
0.17620,0.62085,0.06954,0.69752,-0.05912,-0.21875,1.03392,2.02248,-0.65326,2.71083,-1.56929,-2.18534,0.62879,-0.13084,0.23515,0.72952,9.08207,11.63990,-10.47165
0.18796,0.61878,0.06417,0.73164,-0.07744,-0.25025,1.05956,1.97775,-0.56697,2.89614,-1.33323,-2.20706,0.63743,-0.12472,0.22486,0.72634,2.83257,-0.84930,1.96675
0.19988,0.61669,0.05870,0.76172,-0.09118,-0.27516,1.02152,1.85737,-0.38273,2.74949,-1.26108,-1.77897,0.64444,-0.11774,0.21969,0.72289,0.63784,-8.39871,11.93898
0.21241,0.61431,0.05290,0.79470,-0.10623,-0.29925,0.90688,1.63021,-0.09372,2.55739,-1.11169,-1.56044,0.64890,-0.11027,0.22154,0.71951,-4.78148,-16.30595,19.04516
0.22554,0.61184,0.04707,0.82835,-0.11982,-0.32071,0.78541,1.35774,0.25516,2.62066,-0.89882,-1.45102,0.65232,-0.10231,0.22852,0.71540,-5.68490,-20.55267,23.47464
0.23957,0.60956,0.04061,0.86973,-0.12836,-0.34591,0.67690,1.09541,0.69921,2.61248,-0.16148,-1.54058,0.65564,-0.09169,0.24046,0.70986,-4.17533,-20.01378,27.69892
0.25357,0.60769,0.03411,0.90363,-0.12933,-0.36689,0.62962,1.00467,1.01786,2.10601,0.08206,-1.28952,0.66047,-0.07913,0.24855,0.70409,-1.93577,-11.01312,25.13731
0.26789,0.60592,0.02761,0.93369,-0.12882,-0.38519,0.68158,1.08472,1.20332,1.96217,0.29834,-1.24083,0.66819,-0.06502,0.25115,0.69729,2.61018,3.05650,15.18263
