posX, posY, posZ, velX, velY, velZ, angVelX, angVelY, angVelZ, accX, accY, accZ, rotX, rotY, rotZ, rotW, angAccX, angAccY, angAccZ
0.41202,1.08779,-0.30169,-0.10156,0.26855,-0.36746,0.89055,0.35270,0.53992,-0.92487,2.34907,-2.40162,0.18279,0.73179,-0.07733,0.65199,18.78096,3.75853,0.36161
0.40850,1.09496,-0.30868,-0.12025,0.30470,-0.40070,1.13317,0.39850,0.60079,-1.25109,2.75488,-2.51520,0.18765,0.73657,-0.06341,0.64671,20.09039,3.96872,3.71700
0.40448,1.10277,-0.31649,-0.14291,0.34349,-0.43949,1.13672,0.41548,0.65807,-1.62336,2.99894,-2.83715,0.18816,0.74036,-0.05380,0.64309,6.91825,2.22349,3.82518
0.39993,1.11123,-0.32576,-0.17261,0.38839,-0.49092,1.00298,0.44303,0.71134,-1.70267,2.68049,-3.60067,0.18531,0.74407,-0.04778,0.64011,-11.19202,-0.06957,3.54118
0.39460,1.12058,-0.33524,-0.20247,0.43007,-0.53714,1.09390,0.50408,0.82161,-2.53361,2.70938,-3.50221,0.18492,0.74934,-0.03562,0.63484,2.52768,4.61541,6.12547
0.38836,1.12929,-0.34473,-0.24151,0.45617,-0.57312,1.32281,0.41955,0.74468,-2.17047,2.14493,-3.87582,0.19223,0.75078,-0.02205,0.63158,17.30344,-14.11629,4.14193
0.38272,1.13981,-0.35591,-0.26327,0.50367,-0.62593,1.64368,0.77736,0.92402,-0.84215,2.74345,-2.89741,0.19567,0.76261,-0.00251,0.61655,21.26696,23.36298,17.45045
0.37678,1.15040,-0.36682,-0.28274,0.53728,-0.66500,1.80767,0.88214,0.91345,-1.88843,2.11946,-2.82854,0.20119,0.76937,0.01258,0.60616,13.20167,11.04549,-0.12306
0.37017,1.16069,-0.37801,-0.30995,0.56307,-0.69967,1.85302,0.96291,0.89996,-2.09121,2.13671,-2.85555,0.20509,0.77573,0.02542,0.59626,6.30938,7.42579,-0.92431
0.36268,1.17225,-0.38971,-0.34191,0.59452,-0.73698,1.85888,1.05401,0.87813,-2.07918,2.15877,-2.71166,0.20858,0.78237,0.03702,0.58568,-0.94087,6.12318,-0.53449
0.35361,1.18602,-0.40083,-0.37866,0.63183,-0.76611,1.96840,1.15767,0.86968,-2.44311,2.46492,-2.22562,0.21397,0.78936,0.05145,0.57313,4.61162,7.71707,-0.30346
0.34310,1.20099,-0.41166,-0.42785,0.67875,-0.79003,2.14941,1.27761,0.90527,-2.92138,2.78330,-1.35856,0.22009,0.79678,0.06899,0.55851,11.93202,8.66165,1.90115
0.33385,1.21401,-0.42318,-0.46530,0.71359,-0.80406,2.18528,1.33279,0.92711,-3.06366,2.90948,-0.98708,0.22412,0.80311,0.08358,0.54571,6.86751,5.63377,2.45152
0.32209,1.22956,-0.43443,-0.52053,0.76132,-0.81879,2.10571,1.39397,0.96528,-3.31967,2.79073,-0.98094,0.22542,0.80991,0.09578,0.53297,-4.16884,2.60088,2.93389
0.31080,1.24404,-0.44565,-0.56480,0.79547,-0.82776,2.05228,1.45063,1.01670,-3.51274,2.47466,-0.89428,0.22627,0.81664,0.10837,0.51976,-5.84429,2.97977,5.02322
0.29841,1.25907,-0.45701,-0.61614,0.82893,-0.83304,2.10499,1.55427,1.05236,-3.46658,1.90816,-0.27943,0.22901,0.82375,0.12282,0.50389,1.22113,6.51791,4.58104
0.28496,1.27484,-0.46744,-0.66609,0.85728,-0.82779,2.27974,1.65725,1.05213,-3.28444,1.59681,0.50322,0.23494,0.83005,0.14026,0.48596,10.01099,8.10719,0.88114
0.27092,1.29025,-0.47707,-0.71996,0.88317,-0.81181,2.52637,1.75239,1.02391,-3.14134,1.37015,1.22113,0.24345,0.83516,0.15989,0.46656,15.88491,8.00077,-2.19926
0.25712,1.30584,-0.48661,-0.75900,0.90108,-0.79661,2.57139,1.78559,0.97846,-3.02628,1.28094,1.31982,0.24970,0.83956,0.17521,0.44954,8.55952,5.24708,-3.56833
0.24118,1.32331,-0.49491,-0.81129,0.92626,-0.77530,2.59750,1.87225,0.93164,-2.95983,1.34774,1.02884,0.25612,0.84440,0.18957,0.43064,-0.74832,4.58997,-3.01438
0.22564,1.33969,-0.50334,-0.85656,0.94731,-0.75603,2.62426,2.00340,0.92394,-2.99031,1.25875,1.41236,0.26196,0.84975,0.20394,0.40951,3.15565,10.10603,0.49103
0.20952,1.35634,-0.51123,-0.89995,0.96575,-0.73227,2.54436,2.10587,0.91708,-2.78786,0.97988,1.80257,0.26615,0.85523,0.21545,0.38900,-4.61008,7.54859,2.06377
0.19307,1.37286,-0.51812,-0.94009,0.98087,-0.70093,2.46992,2.18222,0.90274,-2.55621,0.73439,2.28549,0.27028,0.86014,0.22635,0.36861,-7.03044,5.11064,0.83767
0.17702,1.38827,-0.52459,-0.97555,0.99274,-0.66120,2.42116,2.22974,0.88459,-2.37249,0.73712,3.20321,0.27465,0.86420,0.23734,0.34841,-3.43947,4.79982,-0.21245
0.16030,1.40411,-0.52954,-1.01080,1.00241,-0.61153,2.34021,2.20293,0.89151,-2.28919,0.38310,3.58056,0.27737,0.86750,0.24797,0.33018,-4.86143,-1.46239,0.85551
0.14337,1.41984,-0.53357,-1.04139,1.00911,-0.55917,2.21686,2.17044,0.88426,-1.86937,0.24371,3.58245,0.27951,0.87070,0.25680,0.31275,-7.95450,-3.48447,0.95092
0.12675,1.43477,-0.53721,-1.06672,1.01197,-0.50614,2.11751,2.18886,0.88024,-1.63419,0.03333,3.78124,0.28180,0.87405,0.26494,0.29399,-7.62897,-0.16267,0.60139
0.10989,1.44953,-0.53973,-1.08951,1.01115,-0.44820,2.03081,2.20956,0.87697,-1.47549,-0.39899,4.23359,0.28399,0.87715,0.27269,0.27495,-5.93946,1.84200,1.02469
0.09344,1.46372,-0.54243,-1.10343,1.00580,-0.40401,1.93039,2.18427,0.86319,-1.11464,-0.88876,4.59922,0.28574,0.87970,0.27958,0.25752,-6.76206,-0.48379,0.82282
0.07700,1.47687,-0.54138,-1.11472,0.98792,-0.31449,1.78341,2.05139,0.76904,-0.18534,-1.18042,5.28542,0.28825,0.88092,0.28442,0.24496,-10.13968,-6.76619,-4.35161
0.06120,1.48968,-0.54037,-1.11530,0.97092,-0.23837,1.82588,1.94793,0.68584,0.07867,-1.28303,5.05707,0.29260,0.88022,0.29394,0.23066,-0.41328,-8.90038,-7.19370
0.04563,1.50239,-0.53983,-1.11414,0.95779,-0.18559,1.96990,1.98709,0.61832,0.14036,-1.23858,4.88755,0.29904,0.87896,0.30543,0.21147,7.47990,-0.49140,-8.02657
0.03008,1.51441,-0.53574,-1.11217,0.93514,-0.09517,2.39680,2.20907,0.53222,0.09141,-1.37261,4.73787,0.31074,0.87465,0.32374,0.18335,23.13538,13.97204,-6.70269
0.01434,1.52632,-0.53169,-1.11097,0.91135,-0.02259,2.60437,2.38136,0.51840,0.42071,-1.82461,4.58835,0.31909,0.87138,0.33841,0.15605,16.24191,13.83763,-1.75419
-0.00084,1.53760,-0.52776,-1.10384,0.88565,0.03602,2.55182,2.40016,0.50305,0.84863,-2.13422,4.24694,0.32456,0.86927,0.34772,0.13458,-0.52851,3.37313,0.00647
-0.01559,1.54847,-0.52380,-1.09328,0.86023,0.08335,2.42216,2.33848,0.49207,1.02827,-2.31310,3.77522,0.32852,0.86744,0.35506,0.11639,-9.38323,-3.77626,0.30934
-0.03002,1.55867,-0.51874,-1.07836,0.82709,0.13275,2.24084,2.29483,0.47690,1.19917,-2.61189,3.27574,0.33216,0.86622,0.35995,0.09886,-11.95080,-4.53193,0.61085
-0.04398,1.56818,-0.51325,-1.06090,0.79211,0.17868,2.06490,2.24246,0.45601,1.27751,-2.60599,3.08858,0.33570,0.86494,0.36387,0.08235,-12.75392,-3.30568,-0.83447
-0.05779,1.57692,-0.50769,-1.04548,0.75489,0.21885,1.81082,2.16583,0.45902,1.19524,-2.81417,2.83111,0.33771,0.86499,0.36488,0.06787,-15.60684,-4.75501,2.17492
-0.07129,1.58521,-0.50155,-1.02854,0.71755,0.25719,1.56324,2.04597,0.45886,1.22574,-2.67326,2.44649,0.33889,0.86531,0.36508,0.05575,-20.07520,-9.79267,2.67130
-0.08452,1.59283,-0.49518,-1.01168,0.67938,0.29221,1.45122,2.02381,0.43383,1.08783,-2.72359,2.14891,0.34194,0.86425,0.36671,0.04083,-10.30594,-4.43063,-0.40624
-0.09732,1.59981,-0.48854,-0.99380,0.64023,0.32451,1.46554,2.08964,0.36886,1.27564,-2.81184,2.10844,0.34756,0.86124,0.37007,0.02275,-1.96259,3.86214,-2.97346
-0.10974,1.60621,-0.48140,-0.97320,0.59981,0.35645,1.51841,2.15943,0.27156,1.55578,-3.02734,2.27399,0.35477,0.85678,0.37423,0.00406,2.79833,7.11789,-6.30914
-0.12167,1.61148,-0.47380,-0.95010,0.55163,0.39103,1.48362,2.10604,0.17423,1.45889,-3.13852,2.11936,0.36103,0.85272,0.37739,-0.01028,-1.43104,-1.06242,-6.68567
-0.13384,1.61688,-0.46671,-0.93502,0.51625,0.41326,1.42511,2.02515,0.12534,1.12406,-2.89888,1.61186,0.36581,0.84922,0.38009,-0.02334,-5.96416,-7.08642,-4.50413
-0.14574,1.62149,-0.45945,-0.91966,0.47686,0.43292,1.39024,1.99901,0.07230,0.93528,-2.81473,1.02034,0.37137,0.84519,0.38254,-0.03737,-3.75382,-3.79674,-3.48712
-0.15730,1.62522,-0.45236,-0.90163,0.43268,0.44747,1.38885,2.06372,-0.02130,1.17575,-2.84591,0.71638,0.37931,0.83987,0.38454,-0.05364,0.17775,4.47984,-4.99320
-0.16848,1.62853,-0.44571,-0.88135,0.39073,0.45411,1.31542,2.15043,-0.09844,1.36527,-2.53773,0.19798,0.38757,0.83512,0.38405,-0.06987,-4.50636,4.97951,-4.39136
-0.17958,1.63216,-0.43922,-0.86317,0.36236,0.45656,1.27117,2.25797,-0.16243,1.49509,-2.28743,0.15494,0.39626,0.82973,0.38328,-0.08737,-5.52819,8.73514,-2.73739
-0.19006,1.63495,-0.43272,-0.84077,0.32752,0.45828,1.19573,2.35772,-0.21242,1.42198,-2.11967,0.06768,0.40508,0.82445,0.38109,-0.10475,-4.13742,7.31550,-2.76546
-0.20026,1.63786,-0.42625,-0.82003,0.30120,0.45906,1.07459,2.40683,-0.22277,1.60187,-1.71860,0.20874,0.41275,0.82011,0.37743,-0.12084,-8.59454,4.87389,0.37010
-0.21041,1.64082,-0.41961,-0.80211,0.28145,0.46209,0.98447,2.42400,-0.21708,1.40107,-1.57388,0.26120,0.41969,0.81567,0.37402,-0.13653,-8.31478,1.16268,1.53601
-0.22006,1.64327,-0.41297,-0.78075,0.25992,0.46598,0.91531,2.48461,-0.22312,1.57206,-1.52002,0.27565,0.42732,0.81061,0.36988,-0.15329,-5.11396,3.76243,1.42049
-0.22919,1.64543,-0.40652,-0.75699,0.23982,0.46790,0.80710,2.50127,-0.22198,1.81542,-1.41011,0.16876,0.43449,0.80615,0.36461,-0.16851,-5.67026,3.10259,0.65803
-0.23850,1.64785,-0.40008,-0.73982,0.22720,0.46821,0.69493,2.47591,-0.19537,1.72388,-1.16913,0.15524,0.44049,0.80241,0.35888,-0.18252,-9.38119,-1.62786,3.22161
-0.24679,1.64973,-0.39319,-0.71159,0.20928,0.47587,0.58473,2.44890,-0.14593,1.36072,-0.72711,0.81389,0.44561,0.79925,0.35233,-0.19620,-7.46125,-2.22131,3.95151
-0.25530,1.65184,-0.38554,-0.69119,0.19734,0.49353,0.66935,2.48632,-0.15534,1.47242,-0.69328,1.59163,0.45179,0.79248,0.34981,-0.21328,3.12494,2.17433,0.58835
-0.26344,1.65381,-0.37705,-0.66896,0.18556,0.51905,0.81461,2.50415,-0.18833,1.77719,-0.92319,2.02987,0.45797,0.78402,0.34963,-0.23093,10.60225,3.31954,-4.51531
-0.27107,1.65574,-0.36801,-0.64477,0.17474,0.54600,0.85227,2.38258,-0.16621,2.06240,-0.93009,1.95141,0.46161,0.77801,0.34913,-0.24439,5.81084,-5.54856,-1.32950
-0.27822,1.65773,-0.35882,-0.61915,0.16723,0.57001,0.76733,2.12599,-0.06852,1.90176,-0.53288,1.66530,0.46198,0.77584,0.34748,-0.25280,-3.26460,-15.58149,4.35440
-0.28535,1.66000,-0.34957,-0.59749,0.16558,0.58922,0.58634,1.81077,0.12490,1.40812,0.14300,1.22639,0.45873,0.77777,0.34370,-0.25790,-11.13603,-23.99075,13.23511
-0.29217,1.66268,-0.34019,-0.57737,0.17029,0.60610,0.52936,1.62553,0.27594,1.04028,0.77945,1.20104,0.45557,0.77811,0.34108,-0.26582,-6.71402,-17.91474,13.04326
-0.29866,1.66568,-0.33033,-0.55729,0.17874,0.62723,0.67757,1.63126,0.35425,1.08996,0.62682,1.33553,0.45374,0.77403,0.34138,-0.28011,8.63369,-1.32193,4.52898
-0.30532,1.66868,-0.32048,-0.54165,0.18574,0.64337,0.83368,1.65900,0.37559,1.39432,0.62781,1.36553,0.45282,0.76841,0.34258,-0.29521,13.36521,4.11310,1.31962
-0.31142,1.67200,-0.31005,-0.52286,0.19521,0.66465,0.99660,1.62529,0.45581,1.13137,0.46508,1.30465,0.44916,0.76357,0.34504,-0.31009,10.89067,-2.16590,3.13120
-0.31738,1.67518,-0.29967,-0.50542,0.20102,0.68134,1.09215,1.57692,0.54834,1.42688,0.12726,1.11091,0.44469,0.75964,0.34657,-0.32416,9.20826,-2.37286,5.04103
-0.32322,1.67815,-0.28939,-0.48822,0.20285,0.69256,1.09710,1.46323,0.62879,1.63841,-0.02818,0.86344,0.43971,0.75733,0.34735,-0.33535,4.18603,-7.67742,5.83903
-0.32829,1.68100,-0.27896,-0.46419,0.20273,0.70408,1.09716,1.33418,0.68714,1.71833,-0.00674,0.89313,0.43433,0.75541,0.34858,-0.34526,-0.40136,-10.82413,4.85033
-0.33264,1.68361,-0.26809,-0.43454,0.19907,0.72027,1.18332,1.23072,0.67627,1.80611,-0.28181,1.07982,0.42952,0.75149,0.35246,-0.35572,4.97921,-5.98331,-1.14613
-0.33693,1.68609,-0.25707,-0.40886,0.19398,0.73447,1.28214,1.16042,0.65352,1.82420,-0.36107,0.91932,0.42476,0.74672,0.35700,-0.36679,6.53637,-5.39818,-2.64883
-0.34089,1.68851,-0.24623,-0.38562,0.18916,0.74377,1.37610,1.13999,0.60455,1.86332,-0.43066,0.69830,0.42092,0.74078,0.36172,-0.37845,7.55501,-2.14500,-4.18170
-0.34429,1.69065,-0.23533,-0.35947,0.18118,0.75203,1.47940,1.13100,0.54776,1.80053,-0.71424,0.52272,0.41719,0.73393,0.36725,-0.39043,7.43518,0.32885,-5.17678
-0.34722,1.69245,-0.22449,-0.32986,0.16968,0.75728,1.57629,1.13765,0.47573,1.89394,-0.86562,0.19711,0.41396,0.72618,0.37313,-0.40258,5.78324,1.43841,-4.91556
-0.35019,1.69411,-0.21389,-0.30772,0.15850,0.75860,1.60721,1.10879,0.43325,1.88037,-1.14755,0.08798,0.41042,0.71953,0.37815,-0.41333,4.37966,-0.42502,-4.23703
-0.35254,1.69523,-0.20339,-0.28165,0.14172,0.75848,1.64425,1.06253,0.36684,1.90224,-1.30854,-0.07388,0.40717,0.71245,0.38417,-0.42313,2.01387,-2.54964,-4.72199
-0.35467,1.69593,-0.19309,-0.25574,0.12265,0.75479,1.64712,0.97801,0.29616,1.85444,-1.49564,-0.45966,0.40404,0.70598,0.39046,-0.43115,1.10651,-4.41582,-5.18246
-0.35653,1.69635,-0.18333,-0.23075,0.10348,0.74489,1.64083,0.93022,0.21802,1.65933,-1.30378,-0.88461,0.40170,0.69903,0.39647,-0.43910,-1.17837,-4.61579,-5.56346
-0.35833,1.69678,-0.17399,-0.21046,0.08882,0.73102,1.62699,0.92689,0.15266,1.63513,-1.18242,-1.31871,0.39998,0.69154,0.40176,-0.44764,-0.86532,-0.35398,-5.76416
-0.35939,1.69670,-0.16572,-0.18310,0.06935,0.70377,1.53949,0.89528,0.10951,1.50889,-1.13868,-1.61761,0.39873,0.68549,0.40552,-0.45461,-4.67218,-0.30601,-2.57555
-0.36084,1.69679,-0.15755,-0.16647,0.05609,0.68088,1.44210,0.79581,0.12265,1.04280,-0.91641,-1.69770,0.39575,0.68157,0.40895,-0.46001,-6.79853,-6.78476,0.06514
-0.36226,1.69665,-0.15002,-0.15271,0.04185,0.65183,1.34232,0.73192,0.16920,0.74590,-0.82492,-1.87745,0.39235,0.67817,0.41116,-0.46594,-6.68412,-5.44505,2.84831
-0.36369,1.69648,-0.14272,-0.14184,0.03029,0.62432,1.25511,0.70000,0.20999,0.81283,-0.87300,-2.13438,0.38922,0.67456,0.41285,-0.47226,-5.06710,-2.22740,3.09150
-0.36502,1.69626,-0.13580,-0.13205,0.02053,0.59739,1.15230,0.67630,0.23556,0.83234,-0.79619,-2.35109,0.38675,0.67133,0.41380,-0.47803,-7.99965,-3.24441,2.92858
-0.36591,1.69584,-0.12972,-0.11780,0.00995,0.56389,1.03879,0.72127,0.23610,1.07650,-0.71130,-2.36328,0.38607,0.66733,0.41337,-0.48451,-8.87640,1.75486,1.35162
-0.36654,1.69522,-0.12395,-0.10276,-0.00146,0.53275,0.91057,0.68684,0.24068,1.27097,-0.92702,-2.18203,0.38504,0.66489,0.41294,-0.48902,-8.18904,0.93803,-0.12020
-0.36702,1.69440,-0.11837,-0.08852,-0.01348,0.50538,0.76928,0.51983,0.26657,1.03956,-0.84324,-1.88952,0.38222,0.66558,0.41315,-0.49013,-10.04977,-11.48823,1.79234
-0.36735,1.69341,-0.11303,-0.07505,-0.02547,0.48012,0.65402,0.37481,0.28676,0.83290,-0.80092,-1.74705,0.37927,0.66653,0.41344,-0.49088,-8.36977,-11.66484,1.40886
-0.36760,1.69233,-0.10803,-0.06316,-0.03620,0.45488,0.57638,0.33286,0.29368,0.60181,-0.71552,-1.82758,0.37726,0.66603,0.41324,-0.49326,-6.23135,-6.57857,0.75534
-0.36770,1.69118,-0.10357,-0.05159,-0.04574,0.42699,0.52161,0.44145,0.27366,0.82897,-0.56110,-1.99433,0.37767,0.66279,0.41171,-0.49857,-4.55272,5.55767,-0.63295
-0.36738,1.68998,-0.09950,-0.03605,-0.05427,0.39899,0.48040,0.61248,0.22228,1.24176,-0.69522,-1.94930,0.38001,0.65756,0.40967,-0.50535,-2.97493,12.00154,-2.80686
-0.36666,1.68853,-0.09570,-0.01779,-0.06458,0.37294,0.45259,0.75863,0.13643,1.44199,-0.72390,-1.87350,0.38341,0.65144,0.40834,-0.51175,-2.38040,10.86749,-5.47324
-0.36551,1.68701,-0.09220,0.00307,-0.07383,0.34777,0.40269,0.86994,0.05136,1.63981,-0.71366,-1.78719,0.38759,0.64547,0.40670,-0.51744,-3.25599,10.01980,-5.88745
-0.36388,1.68528,-0.08909,0.02697,-0.08437,0.32169,0.33616,0.91144,-0.03239,1.49529,-0.64839,-1.59341,0.39187,0.64045,0.40536,-0.52149,-4.53353,2.95646,-4.95552
-0.36233,1.68359,-0.08593,0.04490,-0.09223,0.30155,0.25351,0.83359,-0.06152,1.34466,-0.55905,-1.44475,0.39439,0.63809,0.40420,-0.52338,-4.90157,-1.91822,-3.15856
-0.36104,1.68205,-0.08259,0.05464,-0.09595,0.28888,0.17837,0.70013,-0.05866,0.86061,-0.26286,-1.26722,0.39552,0.63760,0.40335,-0.52378,-7.23099,-10.97977,0.12953
-0.35946,1.68063,-0.07989,0.06674,-0.09718,0.26951,0.13107,0.62945,-0.02621,0.51193,0.13346,-0.79009,0.39621,0.63686,0.40179,-0.52535,-3.39794,-5.01454,2.08825
-0.35799,1.67927,-0.07675,0.07506,-0.09714,0.26014,0.15010,0.64004,-0.02297,0.58487,0.01838,-0.54057,0.39733,0.63373,0.40094,-0.52893,1.65690,0.35438,0.58915
-0.35643,1.67795,-0.07354,0.08284,-0.09668,0.25401,0.18988,0.68773,-0.04025,0.63091,0.16208,-0.43101,0.39896,0.62929,0.40043,-0.53337,2.22758,2.61009,-0.80272
-0.35462,1.67680,-0.07038,0.09264,-0.09370,0.24850,0.26144,0.74773,-0.07210,0.59630,0.24253,-0.31424,0.40057,0.62361,0.40077,-0.53855,4.50757,4.08818,-2.32731
-0.35288,1.67578,-0.06711,0.09939,-0.08948,0.24561,0.31281,0.74528,-0.07615,0.67867,0.36784,-0.26806,0.40116,0.61913,0.40126,-0.54290,4.15156,2.20598,-1.47338
-0.35111,1.67477,-0.06378,0.10488,-0.08605,0.24435,0.34068,0.66066,-0.07436,0.72240,0.29572,-0.17893,0.40068,0.61642,0.40258,-0.54535,3.83213,-3.30585,-0.32800
-0.34886,1.67405,-0.06033,0.11655,-0.07914,0.24518,0.38425,0.39254,-0.05362,0.68332,0.41582,0.18235,0.39666,0.61742,0.40673,-0.54408,2.01680,-13.44871,0.91126
-0.34655,1.67333,-0.05673,0.12691,-0.07326,0.24795,0.44263,0.23565,-0.06191,0.70967,0.47961,0.24467,0.39361,0.61660,0.41093,-0.54408,3.70998,-12.58733,-1.00624
-0.34402,1.67274,-0.05316,0.13854,-0.06674,0.24967,0.51498,0.13772,-0.08945,0.87853,0.51329,0.04902,0.39082,0.61468,0.41568,-0.54465,4.97861,-8.08369,-1.79049
-0.34116,1.67230,-0.04975,0.15275,-0.05936,0.24885,0.55734,0.04325,-0.12741,1.14353,0.46838,-0.14162,0.38839,0.61303,0.42061,-0.54447,3.99567,-6.38056,-2.95204
-0.33790,1.67179,-0.04640,0.16994,-0.05457,0.24689,0.58096,-0.04094,-0.18108,1.33977,0.23149,-0.07343,0.38646,0.61135,0.42590,-0.54362,1.81331,-6.41755,-3.81998
-0.33432,1.67112,-0.04301,0.18797,-0.05332,0.24622,0.63251,-0.06086,-0.27238,1.53842,0.08550,0.01831,0.38555,0.60772,0.43212,-0.54341,2.99994,-3.94619,-5.81845
-0.32967,1.67020,-0.03963,0.21864,-0.05593,0.24514,0.74262,-0.00926,-0.44864,1.83738,-0.16039,-0.04316,0.38638,0.60052,0.44066,-0.54396,6.02473,3.15543,-9.36283
-0.32486,1.66931,-0.03632,0.24591,-0.05764,0.24343,0.83130,0.04369,-0.61584,2.03941,-0.00030,-0.23635,0.38781,0.59273,0.44941,-0.54433,6.49679,4.14391,-11.53034
-0.31986,1.66867,-0.03313,0.27053,-0.05518,0.24074,0.87013,0.00263,-0.73913,2.38426,0.21067,-0.38725,0.38851,0.58678,0.45842,-0.54277,5.90269,3.31901,-11.36419
-0.31412,1.66823,-0.02977,0.30073,-0.05026,0.24117,0.81305,-0.38605,-0.83677,1.77333,0.20793,0.21158,0.38566,0.58828,0.47022,-0.53300,-4.54972,-22.62151,-7.97941
-0.30867,1.66760,-0.02611,0.31999,-0.04924,0.24582,0.82902,-0.58217,-0.90526,1.20945,0.09966,0.75038,0.38293,0.58711,0.48163,-0.52603,-3.31331,-22.85595,-6.86649
-0.30273,1.66677,-0.02200,0.34266,-0.05150,0.25625,0.94469,-0.67252,-1.01378,1.30883,-0.17707,0.74645,0.38024,0.58242,0.49506,-0.52069,6.45557,-6.73839,-6.33139
-0.29675,1.66584,-0.01784,0.36118,-0.05471,0.26540,1.07056,-0.67414,-1.12644,1.21642,-0.16049,0.58587,0.37847,0.57549,0.50858,-0.51664,8.81142,-0.71206,-7.68195
-0.29075,1.66497,-0.01381,0.37615,-0.05642,0.27058,1.17626,-0.63610,-1.20988,1.19440,-0.15919,0.34547,0.37701,0.56766,0.52156,-0.51343,9.99460,2.02128,-6.81941
-0.28439,1.66405,-0.00979,0.39294,-0.05834,0.27436,1.32241,-0.54554,-1.30451,1.11392,-0.11594,0.28261,0.37589,0.55717,0.53538,-0.51150,9.78287,4.56129,-6.35026
-0.27793,1.66305,-0.00576,0.40781,-0.06124,0.27748,1.46928,-0.49798,-1.37552,1.18093,-0.43641,0.05040,0.37368,0.54635,0.54985,-0.50944,12.71498,5.91236,-4.68685
-0.27159,1.66187,-0.00163,0.41753,-0.06608,0.28145,1.48616,-0.72935,-1.42368,1.14096,-0.76743,0.11744,0.36839,0.54176,0.56554,-0.50095,5.86834,-7.36818,-4.33579
-0.26536,1.66013,0.00279,0.42377,-0.07838,0.28907,1.39161,-1.27375,-1.47865,0.14629,-0.85925,0.51948,0.35866,0.54494,0.58369,-0.48344,-9.82377,-34.41813,-7.89708
-0.25931,1.65823,0.00723,0.42573,-0.09041,0.29503,1.37508,-1.60656,-1.53137,-0.16998,-0.74074,0.50014,0.34947,0.54484,0.60151,-0.46820,-4.95573,-27.10984,-7.37421
-0.25334,1.65633,0.01155,0.42631,-0.09987,0.29818,1.41865,-1.74399,-1.57516,-0.16660,-0.68739,0.25342,0.34140,0.54129,0.61860,-0.45584,0.45556,-15.39144,-4.93600
-0.24722,1.65411,0.01556,0.42925,-0.11219,0.29584,1.55471,-1.71091,-1.62907,0.21677,-0.59600,-0.30667,0.33448,0.53310,0.63586,-0.44677,7.49682,0.34727,-1.78923
-0.24094,1.65202,0.01927,0.43391,-0.12022,0.28954,1.66224,-1.60605,-1.67091,0.42593,-0.69463,-0.66352,0.32908,0.52338,0.65190,-0.43910,10.68591,7.50181,-1.22801
-0.23399,1.64901,0.02205,0.44903,-0.14307,0.26872,1.76397,-1.61046,-1.80136,0.69037,-1.25572,-0.90768,0.32327,0.51304,0.66984,-0.42849,3.36766,-1.69802,-5.21876
-0.22115,1.64379,0.02882,0.45404,-0.16159,0.25811,1.68946,-1.85108,-1.93811,0.45851,-1.57597,-0.83405,0.30866,0.50097,0.70294,-0.39954,-4.44105,-12.32416,-10.89464
-0.21454,1.64005,0.03174,0.45824,-0.18371,0.24810,1.62112,-2.09987,-2.11239,0.18843,-1.51576,-0.59938,0.30007,0.49641,0.72166,-0.37783,-7.30900,-16.85611,-15.85880
-0.20788,1.63598,0.03448,0.46239,-0.20615,0.23743,1.65946,-2.18776,-2.25807,0.09012,-1.51265,-0.80360,0.29231,0.48777,0.74032,-0.35856,1.26821,-8.33928,-12.15233
-0.20107,1.63173,0.03684,0.46811,-0.22666,0.22332,1.74565,-2.13670,-2.36137,0.36060,-1.35112,-1.06338,0.28609,0.47603,0.75799,-0.34204,6.81559,0.51009,-7.10171
-0.19398,1.62734,0.03884,0.47660,-0.24494,0.20681,1.87960,-1.97210,-2.40958,0.55243,-1.22778,-1.17769,0.28123,0.46120,0.77462,-0.32890,11.02374,8.77976,-2.04458
-0.18673,1.62277,0.04061,0.48593,-0.26230,0.19056,2.04014,-1.76810,-2.39071,0.62984,-1.28398,-1.01704,0.27648,0.44448,0.79019,-0.31874,13.01976,12.28663,3.41821
-0.17955,1.61782,0.04262,0.49180,-0.28138,0.18112,2.10797,-1.73299,-2.40793,0.60194,-1.66417,-0.45586,0.26979,0.42998,0.80585,-0.30485,9.22187,5.95620,3.51966
-0.17258,1.61238,0.04520,0.49357,-0.30394,0.18210,2.08931,-1.87886,-2.51980,0.11150,-1.78435,0.51327,0.26093,0.41804,0.82232,-0.28451,-2.06637,-7.60257,-8.64922
-0.16579,1.60615,0.04851,0.49247,-0.33391,0.19385,2.16333,-2.04098,-2.63705,-0.22196,-2.38258,1.22103,0.24990,0.40361,0.83985,-0.26323,1.92703,-10.50652,-9.56693
-0.15920,1.59885,0.05247,0.48835,-0.37316,0.21251,2.33068,-2.14801,-2.73117,-0.47833,-3.12774,1.67280,0.23783,0.38547,0.85785,-0.24279,8.59861,-9.92201,-8.50616
-0.15274,1.58999,0.05701,0.48329,-0.42750,0.23588,2.66849,-2.15239,-2.76066,-0.57955,-4.39459,1.81076,0.22480,0.36084,0.87637,-0.22636,20.40222,-5.67476,-0.05741
-0.14675,1.57888,0.06196,0.47230,-0.50515,0.26085,3.13172,-2.15081,-2.78813,-0.83262,-5.11506,1.38611,0.20982,0.33004,0.89580,-0.21116,29.22653,-5.93019,2.19118
-0.14119,1.56730,0.06675,0.45661,-0.57388,0.27819,3.40138,-2.21940,-2.86883,-1.22471,-5.04567,0.89899,0.19446,0.30134,0.91349,-0.19213,23.42313,-6.70098,-0.63179
-0.13628,1.55512,0.07158,0.43450,-0.63732,0.29277,3.52239,-2.33883,-3.02957,-1.77068,-4.33660,0.98556,0.17906,0.27450,0.92964,-0.16838,9.97095,-7.90412,-12.64633
-0.13207,1.54246,0.07643,0.40668,-0.69499,0.30446,3.61638,-2.46480,-3.17952,-2.30716,-4.11844,0.53037,0.16267,0.24732,0.94436,-0.14335,8.16208,-7.42480,-10.06659
-0.12858,1.52960,0.08093,0.37407,-0.74219,0.30816,3.64314,-2.58307,-3.35610,-3.01409,-3.98730,0.01429,0.14626,0.22065,0.95737,-0.11561,4.15377,-6.95728,-14.57923
-0.12718,1.51494,0.08473,0.31692,-0.80677,0.30048,3.66233,-2.73811,-3.66042,-4.13489,-4.40204,-1.18249,0.12922,0.19285,0.96922,-0.08199,1.95116,-5.57578,-19.03031
-0.12652,1.50006,0.08734,0.26089,-0.86171,0.27686,3.76887,-2.82584,-3.96047,-5.15208,-4.71859,-2.56595,0.11277,0.16125,0.97931,-0.04722,8.04035,-3.89974,-24.30897
-0.12860,1.48538,0.08720,0.18528,-0.92835,0.22780,4.05660,-2.91423,-4.20776,-5.89484,-4.57326,-4.23564,0.09418,0.12252,0.98791,-0.01257,19.43645,-5.72273,-19.63846
-0.13680,1.46432,0.08821,0.09267,-1.00273,0.13897,4.65624,-3.02488,-4.14386,-6.26098,-4.16028,-6.58605,0.07063,0.07330,0.99473,0.01242,30.52766,-15.77529,1.63587
-0.14337,1.44384,0.08683,0.02214,-1.05491,0.04726,5.27604,-3.19049,-3.76844,-6.28965,-3.79014,-8.31457,0.04220,0.02081,0.99854,0.02669,35.89506,-30.21010,23.18550
-0.14981,1.42322,0.08481,-0.03741,-1.09237,-0.04526,5.85387,-3.44215,-3.27889,-6.24889,-3.08980,-9.81965,0.00826,-0.03477,0.99877,0.03440,37.03592,-48.09262,37.41177
-0.16575,1.39775,0.07337,-0.15345,-1.13614,-0.26457,6.92513,-4.36731,-1.98837,-5.52064,-0.66410,-12.18169,-0.05411,-0.10727,0.99267,0.01298,29.48710,-80.56717,48.59469
-0.17682,1.37727,0.06217,-0.21588,-1.13182,-0.41304,7.28199,-5.08700,-1.29688,-4.82057,1.23246,-12.94796,-0.11100,-0.16390,0.98020,0.00423,12.56729,-85.82061,32.90780
-0.19023,1.35824,0.04493,-0.27989,-1.09454,-0.59546,7.41838,-6.01786,-0.74731,-3.96845,3.91011,-13.70829,-0.17864,-0.21532,0.96005,-0.00484,-0.77919,-81.14887,7.97537
-0.20615,1.34234,0.02341,-0.33383,-1.01073,-0.81110,7.25287,-7.06754,-0.45912,-2.32504,6.41454,-13.85845,-0.25376,-0.25652,0.93258,-0.01017,-10.16290,-67.34219,-18.05218
-0.22177,1.33012,0.00168,-0.35564,-0.90865,-0.99953,6.91292,-7.84685,-0.49948,-0.26531,8.10131,-13.77855,-0.32492,-0.28928,0.90037,-0.00846,-14.58062,-51.03371,-35.71188
-0.23947,1.32086,-0.01670,-0.34628,-0.78513,-1.18442,6.49022,-8.34113,-0.82222,2.42950,9.60274,-13.48776,-0.39151,-0.31480,0.86465,0.00115,-11.04034,-25.88725,-46.69519
-0.25477,1.31547,-0.03808,-0.30059,-0.64132,-1.36213,6.09735,-8.36567,-1.34577,4.95121,10.99520,-12.66374,-0.44644,-0.33555,0.82929,0.01951,-6.27819,9.74642,-45.19421
-0.26692,1.31441,-0.06131,-0.21370,-0.47140,-1.53012,5.80698,-8.11292,-1.88195,8.11837,13.43994,-11.73496,-0.49261,-0.35443,0.79365,0.04279,4.69559,31.57261,-36.52461
-0.27521,1.31788,-0.08588,-0.07841,-0.27774,-1.68181,5.57661,-7.74615,-2.21411,10.88044,14.51849,-10.08497,-0.53198,-0.37244,0.75776,0.06385,1.72806,37.84602,-18.20024
-0.27893,1.32526,-0.11056,0.10125,-0.06628,-1.80928,5.42679,-7.59041,-2.20831,14.83406,16.59694,-8.07220,-0.57120,-0.39220,0.71700,0.07628,-1.69391,27.31157,-23.60925
-0.27748,1.33610,-0.13463,0.32263,0.16792,-1.89313,5.15656,-7.61436,-1.94031,16.51187,17.09414,-3.89866,-0.61003,-0.41027,0.67356,0.07650,-24.91510,-5.23437,17.06487
-0.27228,1.34875,-0.15596,0.56310,0.40202,-1.91682,4.64721,-7.82359,-1.68794,17.62582,17.41936,0.52366,-0.65169,-0.42003,0.62777,0.06916,-35.65469,-7.45887,-6.05709
-0.26367,1.36302,-0.17411,0.81287,0.63748,-1.87717,3.75777,-8.48857,-1.49051,17.27896,17.48979,5.35676,-0.70264,-0.41613,0.57523,0.04733,-55.05664,-29.53019,-23.46261
-0.25266,1.37852,-0.18803,1.05835,0.87052,-1.76773,2.45696,-9.36004,-1.54286,17.19680,17.11405,10.41677,-0.75985,-0.39220,0.51826,0.01448,-71.06529,-48.29819,-64.92129
-0.24065,1.39495,-0.19759,1.27507,1.09894,-1.59636,1.01465,-10.05367,-1.88403,14.47063,16.70221,14.52890,-0.81474,-0.35124,0.46083,-0.02145,-71.01565,-39.46080,-87.45795
-0.23159,1.41240,-0.19913,1.43699,1.33624,-1.37100,-0.52850,-10.13245,-2.68628,9.48314,18.56825,18.10647,-0.86079,-0.28995,0.41519,-0.05076,-54.57404,-8.65526,-96.83595
-0.22561,1.43149,-0.19642,1.51684,1.54487,-1.16322,-1.91409,-10.21904,-3.95329,4.20674,17.97965,16.82681,-0.90449,-0.20735,0.36547,-0.07308,-21.66465,7.85263,-150.07280
-0.22907,1.45311,-0.18490,1.56171,1.85473,-0.89591,-3.54632,-10.02281,-6.40939,2.58625,22.51587,17.48246,-0.94126,-0.07515,0.31912,-0.08090,10.27777,-23.25300,-173.81960
-0.22875,1.48061,-0.17786,1.58593,2.13573,-0.70881,-4.39604,-9.30883,-8.43785,3.38198,25.09392,15.73784,-0.95574,0.05128,0.27999,-0.07436,60.14205,-8.07499,-191.66760
-0.23188,1.51596,-0.16660,1.66176,2.53820,-0.50847,-4.52965,-7.77891,-10.72999,8.80895,30.79857,12.55438,-0.94600,0.18714,0.26192,-0.03815,112.04460,16.66325,-162.91860
-0.23309,1.56556,-0.15124,1.96135,3.20424,-0.21659,-4.12335,-5.02206,-13.55219,26.80247,41.63326,19.37627,-0.89805,0.33897,0.27917,0.02608,153.91240,25.77212,-154.54490
-0.21217,1.62453,-0.14475,2.45737,3.80413,0.05731,-3.07058,-2.90818,-15.66702,44.51134,43.19277,20.31265,-0.82795,0.47115,0.28819,0.09728,194.12980,-24.18053,-147.45530
-0.17665,1.68958,-0.13009,3.21084,4.36477,0.35792,-1.27908,-1.60415,-17.61666,64.35685,37.01396,24.76482,-0.73358,0.58885,0.28149,0.18940,136.08030,-80.06433,-128.94170
-0.11897,1.75639,-0.11403,4.08073,4.74261,0.66184,1.50665,-0.98547,-18.95722,82.91911,25.50893,31.20930,-0.61926,0.67042,0.26657,0.30983,122.43950,-164.33500,-117.95480
-0.02521,1.81532,-0.08826,5.58307,4.93147,1.22535,6.86484,-1.67404,-20.67694,104.79010,-6.74819,43.41895,-0.45097,0.69481,0.23364,0.50919,70.78596,-293.16570,-176.46910
0.08874,1.85274,-0.04406,6.89363,4.61476,1.81553,10.21567,-3.76169,-21.98812,112.94400,-49.15374,54.27870,-0.26726,0.68143,0.14817,0.66503,-37.36583,-272.64920,-236.56020
0.22620,1.82959,0.02782,8.37013,3.42589,2.70702,11.42467,-5.93950,-23.99195,96.29872,-122.13620,67.57444,-0.05551,0.65111,0.01617,0.75678,-52.63918,-58.49085,-288.29400
0.34613,1.72379,0.11759,9.30249,1.21560,3.72376,11.07075,-4.58536,-25.13534,36.31747,-188.69980,70.63219,0.14564,0.64667,-0.06121,0.74623,88.59110,39.87336,-55.41265
0.40657,1.55282,0.20837,9.23599,-1.62530,4.61014,13.31561,-1.62629,-24.63291,-44.68879,-217.81060,52.12612,0.36154,0.61280,-0.04360,0.70133,161.11110,-176.85660,66.41515
0.39228,1.34313,0.27689,8.08506,-4.69307,5.03705,17.77967,1.87795,-22.35668,-116.19030,-221.81990,2.97878,0.57931,0.54321,0.05751,0.60499,91.82043,-337.71020,-54.86769
0.30013,1.12632,0.29759,5.93741,-7.58221,4.72877,26.12176,6.22708,-17.25520,-181.46550,-189.95900,-55.12370,0.78501,0.39968,0.28464,0.37814,289.97330,-498.36180,-350.15970
0.14739,0.94326,0.26244,3.10483,-9.80829,3.61989,37.96365,5.46389,-8.49831,-215.98500,-129.29230,-103.63780,0.82620,0.04487,0.56023,0.03909,563.14410,-158.44170,-850.79250
-0.02856,0.81422,0.16016,0.12700,-11.05178,1.57786,41.94053,-4.89334,-6.86298,-213.92600,-37.92182,-170.45900,0.69214,-0.38369,0.60516,-0.08666,583.16750,487.06870,-585.21410
-0.17887,0.78777,0.00350,-2.19154,-10.35642,-1.02749,34.92649,-8.74419,-12.00466,-118.04250,117.51390,-157.63690,0.64224,-0.57963,0.50140,-0.01278,150.89940,700.28720,237.27470
-0.25785,0.87317,-0.11969,-3.16984,-8.06639,-2.59869,27.69312,-7.80802,-12.75304,0.84406,152.87580,-38.07948,0.62656,-0.64170,0.44115,0.03220,-171.47130,403.53370,329.87920
-0.27164,0.94365,-0.16448,-3.00061,-6.29428,-2.64705,22.76657,-12.03347,-8.78472,28.42031,104.96330,22.05227,0.48965,-0.68721,0.53630,-0.01902,-440.10560,102.65860,-305.98110
-0.27147,0.97901,-0.17672,-2.64911,-5.29785,-2.23868,17.68337,-14.31888,-6.24883,22.50529,64.19558,38.01973,0.36307,-0.70033,0.61222,-0.05383,-238.59710,55.65338,-430.16020
-0.26640,1.00015,-0.17176,-2.37055,-4.73251,-1.70058,12.41705,-12.04317,-3.58149,9.56773,36.75617,43.46720,0.35850,-0.64923,0.66913,-0.04744,-494.23500,165.38770,-170.56500
0.19113,0.82031,-0.09272,-2.36717,-4.32999,-0.91631,4.77557,-4.69578,-1.99299,-8.54518,13.77834,47.04285,0.49480,-0.51109,0.69466,0.10681,-450.83910,478.40060,142.28230
0.32516,0.72669,-0.05231,-2.58741,-4.12000,-0.38814,-0.03518,0.44376,-2.67813,-13.57528,19.85224,33.75210,0.56334,-0.41825,0.66056,0.26714,-315.39600,485.84690,-52.94473
0.35372,0.67346,-0.02804,-2.80723,-3.82271,-0.04876,-2.47206,3.78697,-2.81914,-14.53346,26.19338,19.90259,0.60970,-0.34224,0.60951,0.37369,-176.51710,300.43890,31.15298
0.33798,0.63806,-0.01276,-2.96176,-3.47972,0.13674,-2.69869,5.54205,-3.59582,-8.47125,30.85844,16.05235,0.63310,-0.32454,0.54255,0.44665,-26.12686,194.08210,-104.68820
0.31768,0.63684,0.01102,-3.10013,-2.68251,0.41229,-2.96394,3.75476,-4.76176,-0.88015,26.72852,5.99350,0.58960,-0.34716,0.53518,0.49541,-46.53751,-104.57360,-19.10157
0.24244,0.59340,0.03090,-3.04587,-2.25790,0.50118,-3.31352,2.12009,-4.89105,3.38088,25.18108,3.47247,0.53348,-0.35571,0.52161,0.56284,-52.30598,-94.29298,13.23147
0.20836,0.58209,0.04210,-2.97773,-1.99491,0.54135,-3.66401,1.39653,-4.59827,5.41204,26.51002,1.60987,0.50006,-0.35140,0.52655,0.59094,-61.85502,-70.06988,38.50426
0.18001,0.58663,0.05299,-2.85633,-1.57972,0.56517,-3.77309,1.59710,-4.08974,5.95303,25.28407,-0.78029,0.48771,-0.33283,0.51840,0.61856,-11.03741,4.45183,39.59788
0.15248,0.59029,0.06165,-2.72733,-1.24509,0.56340,-3.64105,2.42210,-3.83050,10.14566,22.25483,-0.34527,0.48961,-0.30947,0.48941,0.65191,34.65697,65.96259,-6.11499
0.12671,0.59318,0.06863,-2.59647,-0.98598,0.54388,-3.76576,2.55953,-3.49835,11.40491,20.68919,-2.53543,0.47762,-0.28761,0.47612,0.68006,6.23760,29.68137,14.77021
0.11464,0.60730,0.06944,-2.38137,-0.63802,0.46152,-3.48151,2.93830,-3.01434,10.61322,18.24948,-6.64055,0.48016,-0.26356,0.45845,0.69986,21.19385,23.90794,22.34669
0.09643,0.61704,0.06663,-2.19292,-0.36395,0.33103,-2.47366,3.45272,-2.97228,10.62250,16.56707,-9.71671,0.49706,-0.25506,0.42179,0.71412,59.83743,17.51301,-11.18414
0.07480,0.62227,0.06406,-2.08214,-0.21298,0.23190,-1.54786,3.74516,-3.18991,9.81026,14.29021,-10.25684,0.51178,-0.25453,0.37957,0.72748,79.96094,14.02442,-34.54922
0.05746,0.63272,0.05614,-1.92979,-0.02024,0.07978,-0.28204,3.44743,-3.67175,10.99476,9.88779,-7.56977,0.52683,-0.27961,0.33368,0.73002,73.93571,-26.62025,-57.05437
0.04342,0.64194,0.04890,-1.75463,0.12351,-0.03212,-0.01986,2.07864,-3.54728,12.46925,7.35146,-4.94428,0.51500,-0.30894,0.32865,0.72892,5.72108,-83.98881,-0.38500
0.03193,0.64952,0.04414,-1.57027,0.21366,-0.08975,-0.18937,0.92811,-3.20942,13.92231,5.12920,-2.83838,0.49635,-0.33002,0.33417,0.73011,-31.64803,-89.26393,20.92073
0.02239,0.65521,0.04091,-1.39141,0.25619,-0.11034,-0.37753,0.35638,-2.69801,15.26914,2.39758,-0.43377,0.48394,-0.33828,0.34017,0.73189,-23.90311,-53.86314,42.21196
0.02074,0.65958,0.03925,-1.13223,0.27113,-0.10163,-0.47254,0.23998,-2.07127,16.11735,0.05012,1.56582,0.47967,-0.33582,0.34523,0.73345,-11.74939,-13.68667,40.99584
0.02054,0.66221,0.03962,-0.90111,0.25584,-0.06945,-0.31273,0.68471,-1.65918,16.00505,-1.74547,2.99787,0.48715,-0.32501,0.33597,0.73769,12.87050,24.71110,31.73816
0.02038,0.66380,0.04076,-0.71415,0.22694,-0.03136,-0.16165,1.20728,-1.36042,15.31583,-3.09486,3.72672,0.49696,-0.31032,0.32258,0.74342,20.03609,39.87560,23.76224
0.02457,0.66329,0.04367,-0.50384,0.17360,0.02483,-0.05636,1.92154,-0.91844,17.14994,-5.05862,6.68752,0.51193,-0.28406,0.30902,0.74949,16.69253,42.70417,24.66778
0.03532,0.65940,0.05145,-0.24386,0.08269,0.13666,0.23973,3.13884,-0.43666,17.57624,-6.44907,8.12049,0.53977,-0.24073,0.28434,0.75488,27.84062,80.69910,35.47452
0.04578,0.65546,0.05855,-0.03465,0.00859,0.21695,0.49423,4.13829,-0.19122,13.45595,-4.11993,3.75665,0.56509,-0.19788,0.25422,0.75953,28.14512,81.63495,17.34976
0.05502,0.65338,0.06252,0.11528,-0.02397,0.23513,0.52825,4.59984,-0.05748,9.92929,-1.23560,-0.34792,0.58073,-0.16270,0.23004,0.76378,11.62825,43.71521,8.90833
0.06318,0.65292,0.06419,0.21376,-0.02579,0.21488,0.43855,4.69562,-0.01754,7.76265,0.40857,-2.51876,0.58933,-0.13472,0.21041,0.76829,-4.11442,13.64761,8.84864
0.07516,0.65325,0.05852,0.38861,-0.00513,0.08937,0.32227,4.38799,-0.09632,4.32909,0.69680,-4.75855,0.59328,-0.11688,0.19495,0.77224,-4.75715,-15.28653,-0.83051
0.08834,0.65294,0.05611,0.43392,0.00106,0.02151,0.32262,4.07082,-0.14490,2.97244,0.39692,-4.92316,0.60533,-0.08032,0.16215,0.77513,-2.30162,-21.40047,-3.10560
0.09518,0.65216,0.05139,0.46257,0.00397,-0.04701,0.34002,3.69034,-0.21209,2.25869,0.27413,-4.89395,0.60948,-0.07070,0.15027,0.77521,0.17590,-25.81081,-5.27740
0.10196,0.65163,0.04716,0.47849,0.00571,-0.09539,0.33347,3.38737,-0.23976,2.00708,0.08033,-4.69901,0.61309,-0.06067,0.13914,0.77529,-0.81379,-29.00531,-5.55247
0.10952,0.65075,0.04050,0.50194,0.00460,-0.16764,0.28840,2.85148,-0.18568,1.75600,-0.27201,-4.32135,0.61436,-0.05708,0.13667,0.77500,-2.20972,-32.84698,1.44107
0.11643,0.64898,0.03390,0.51815,0.00000,-0.22478,0.19559,2.34884,-0.02654,1.75733,-0.33716,-3.88931,0.61427,-0.05248,0.13916,0.77496,-4.29587,-36.02987,9.44258
0.12377,0.64732,0.02737,0.53327,-0.00544,-0.27021,0.11278,1.94072,0.16176,1.76301,-0.43716,-3.66130,0.61402,-0.04673,0.14358,0.77472,-4.40761,-35.86226,15.48378
0.13208,0.64524,0.01946,0.55873,-0.01602,-0.32631,0.06543,1.51610,0.40738,1.84115,-0.56617,-3.28004,0.61393,-0.04181,0.15271,0.77332,-1.15997,-29.22910,16.46455
0.14036,0.64264,0.01179,0.58182,-0.02768,-0.36873,0.07443,1.32774,0.52280,1.86568,-0.68033,-2.70384,0.61561,-0.03462,0.15605,0.77167,1.70657,-17.85232,10.63753
