posX, posY, posZ, velX, velY, velZ, angVelX, angVelY, angVelZ, accX, accY, accZ, rotX, rotY, rotZ, rotW, angAccX, angAccY, angAccZ
0.34004,1.18803,-0.34416,-0.28269,0.59296,-0.58727,1.79083,1.27890,0.58868,-2.07978,3.18771,-1.27049,0.10027,0.80786,-0.03530,0.57970,12.31877,-1.29840,-1.21968
0.33409,1.19951,-0.35380,-0.31322,0.64074,-0.60782,1.69413,1.01443,0.56578,-2.05550,3.08888,-1.14201,0.10325,0.80833,-0.02607,0.57902,-6.36413,-16.44820,-2.97108
0.32816,1.21096,-0.36317,-0.33808,0.67926,-0.62068,1.79445,0.89077,0.54793,-2.01912,2.95886,-1.58783,0.10950,0.81054,-0.01235,0.57523,-1.25860,-15.81411,-2.84973
0.32111,1.22403,-0.37309,-0.37466,0.73414,-0.63902,2.39444,1.02111,0.49008,-2.34382,3.37982,-1.50083,0.12696,0.81690,0.01396,0.56245,32.39975,7.02086,-4.81638
0.31346,1.23780,-0.38288,-0.41152,0.78719,-0.65177,3.09076,1.27042,0.47379,-2.81018,4.10074,-0.61247,0.14754,0.82492,0.04645,0.54367,49.27679,19.86863,-2.62747
0.30511,1.25249,-0.39238,-0.45183,0.84361,-0.65767,3.58771,1.42840,0.51523,-3.13028,4.39597,0.23207,0.16535,0.83095,0.07869,0.52535,42.78252,16.02889,1.56984
0.29605,1.26791,-0.40163,-0.49417,0.89923,-0.65904,3.75137,1.44512,0.57329,-3.14034,4.08793,0.20139,0.17775,0.83445,0.10528,0.51089,17.37619,2.43203,2.97263
0.28683,1.28335,-0.41100,-0.53400,0.95019,-0.66097,3.67695,1.39749,0.58922,-2.93753,3.69948,0.10665,0.18703,0.83675,0.12591,0.49902,0.55129,-2.34847,1.28355
0.27728,1.29900,-0.42050,-0.57150,0.99516,-0.66329,3.38264,1.30649,0.55781,-2.80763,3.14175,-0.00226,0.19302,0.83852,0.13926,0.49014,-18.36279,-6.70824,-1.00823
0.26708,1.31520,-0.42980,-0.60891,1.03605,-0.66248,3.13395,1.25046,0.51982,-2.66972,2.83946,-0.10667,0.19900,0.84031,0.15162,0.48093,-21.92839,-6.82619,-2.28315
0.25651,1.33153,-0.43876,-0.64631,1.07499,-0.65577,3.16509,1.34088,0.51036,-2.78884,2.72105,0.38340,0.20871,0.84294,0.17000,0.46582,-4.64734,3.93430,-0.01704
0.24529,1.34825,-0.44708,-0.68573,1.11147,-0.64017,3.43295,1.53960,0.53314,-2.93759,2.48053,1.31388,0.22200,0.84562,0.19489,0.44460,16.73318,13.44299,2.42709
0.23376,1.36514,-0.45491,-0.71788,1.13768,-0.62265,3.57347,1.66720,0.54380,-2.63829,2.13441,1.96518,0.23401,0.84726,0.21768,0.42427,18.37943,13.51989,3.40756
0.22202,1.38191,-0.46224,-0.74853,1.16124,-0.60026,3.41780,1.66272,0.53927,-2.15880,1.63922,2.23896,0.24151,0.84854,0.23323,0.40897,-2.76437,3.64851,1.14021
0.20998,1.39856,-0.46922,-0.78012,1.18156,-0.57452,2.77620,1.45654,0.51246,-1.69485,1.03092,1.21248,0.24059,0.85055,0.23508,0.40425,-36.46561,-14.71319,-0.43200
0.19797,1.41538,-0.47600,-0.80145,1.19427,-0.55390,2.49481,1.48550,0.48670,-1.51075,0.87929,1.13107,0.24435,0.85334,0.24186,0.39194,-28.69197,-3.81163,0.34473
0.18578,1.43211,-0.48207,-0.82167,1.20432,-0.52548,2.54056,1.67939,0.46845,-1.55682,0.61820,2.23429,0.25300,0.85591,0.25489,0.37207,-1.07920,12.15933,1.38850
0.17348,1.44864,-0.48738,-0.83861,1.20827,-0.49229,2.65360,1.82464,0.44096,-1.45259,0.19634,3.22438,0.26301,0.85701,0.26982,0.35151,7.96153,14.99730,-0.21531
0.16062,1.46505,-0.49059,-0.85863,1.20708,-0.43736,2.81255,1.96182,0.38655,-1.17720,-0.20345,3.65840,0.27484,0.85675,0.28585,0.32975,8.56590,9.17847,-2.58591
0.14792,1.48133,-0.49367,-0.87161,1.20335,-0.39201,2.92176,2.05695,0.34972,-1.12359,-0.31144,4.12552,0.28603,0.85577,0.30148,0.30814,10.27495,9.82739,-3.39360
0.13492,1.49728,-0.49531,-0.88671,1.19668,-0.33514,2.90181,2.05928,0.33355,-1.08704,-0.51062,4.50965,0.29476,0.85459,0.31471,0.28941,1.98458,3.26865,-1.08976
0.12156,1.51289,-0.49535,-0.90443,1.18635,-0.26603,2.74035,1.94403,0.34984,-1.15077,-0.70962,4.49599,0.29980,0.85363,0.32505,0.27529,-9.19260,-6.69046,0.14605
0.10821,1.52837,-0.49555,-0.91720,1.17544,-0.21293,2.64547,1.88020,0.37345,-1.08396,-0.90285,4.33393,0.30500,0.85237,0.33608,0.25980,-10.33807,-8.57567,2.32983
0.09485,1.54344,-0.49483,-0.92781,1.16151,-0.15859,2.65464,1.88192,0.40480,-0.87701,-1.19575,4.43715,0.31102,0.85035,0.34895,0.24167,-2.53134,-2.81844,2.26453
0.08138,1.55748,-0.49192,-0.93832,1.13684,-0.08344,2.74685,1.92040,0.43925,-0.55369,-1.89032,4.95536,0.31782,0.84719,0.36379,0.22117,6.71724,3.13401,1.81121
0.06816,1.57073,-0.48879,-0.94275,1.10582,-0.01781,2.73140,1.87532,0.44044,-0.18049,-2.50448,4.86505,0.32364,0.84374,0.37649,0.20399,2.69743,-1.64461,0.23179
0.05532,1.58321,-0.48499,-0.94100,1.06955,0.04432,2.60270,1.75835,0.42695,0.34566,-2.66093,4.50623,0.32783,0.84077,0.38634,0.19072,-8.24511,-7.04026,-1.59959
0.04279,1.59498,-0.48062,-0.93451,1.02999,0.10133,2.41925,1.60244,0.41200,0.58213,-2.95822,3.92968,0.33066,0.83822,0.39442,0.18024,-11.25857,-10.37165,-1.21377
0.03059,1.60593,-0.47620,-0.92399,0.98696,0.14918,2.22408,1.48906,0.38909,0.79329,-3.00033,3.05216,0.33346,0.83618,0.40084,0.17010,-15.42794,-11.36413,-1.61142
0.01903,1.61588,-0.47100,-0.90623,0.93647,0.19869,2.20610,1.53314,0.33915,1.11035,-3.13156,2.87206,0.33969,0.83259,0.40921,0.15480,-4.47140,2.15340,-2.09535
0.00771,1.62499,-0.46529,-0.88750,0.88244,0.24552,2.35539,1.67029,0.26991,1.12331,-3.34709,2.69842,0.34885,0.82653,0.42059,0.13509,6.75438,8.52839,-3.90708
-0.00371,1.63432,-0.45988,-0.87323,0.84117,0.27746,2.53646,1.83007,0.22186,1.27330,-3.35920,2.57629,0.35867,0.81922,0.43300,0.11292,14.33117,13.08383,-4.53481
-0.01466,1.64274,-0.45384,-0.85556,0.79527,0.31140,2.64962,1.95351,0.18757,1.32782,-3.31152,2.55626,0.36798,0.81170,0.44437,0.09092,11.03972,12.35849,-1.88587
-0.02558,1.65055,-0.44742,-0.84098,0.74984,0.34171,2.63187,1.97121,0.19877,1.05168,-3.27076,2.11526,0.37440,0.80548,0.45369,0.07205,-0.20923,2.44175,-0.25713
-0.03642,1.65778,-0.44078,-0.82746,0.70433,0.36893,2.52361,1.94012,0.22978,1.10453,-3.30535,2.03217,0.37904,0.80050,0.46096,0.05517,-5.81925,-1.75259,3.64633
-0.04700,1.66432,-0.43388,-0.81347,0.65773,0.39450,2.35235,1.82304,0.25589,0.97074,-3.51102,1.74027,0.38199,0.79641,0.46696,0.04193,-9.75848,-6.89495,1.37180
-0.05752,1.67047,-0.42724,-0.80239,0.61619,0.41051,2.15061,1.70661,0.26607,0.97634,-3.45549,1.02948,0.38457,0.79316,0.47125,0.03052,-15.75809,-11.70637,1.90009
-0.06729,1.67521,-0.42049,-0.78199,0.56273,0.42451,1.97379,1.65402,0.24968,1.29781,-3.09956,0.58823,0.38833,0.78984,0.47436,0.01853,-13.52401,-4.73550,0.17512
-0.07695,1.67997,-0.41403,-0.76408,0.51845,0.43233,1.84880,1.72368,0.26147,1.20168,-3.16812,0.49216,0.39309,0.78643,0.47645,0.00278,-8.45805,4.11907,1.32808
-0.08636,1.68421,-0.40752,-0.74644,0.47517,0.43966,1.73294,1.77541,0.28273,1.43370,-3.07069,0.58362,0.39735,0.78323,0.47802,-0.01283,-8.21087,3.31565,3.63436
-0.09559,1.68837,-0.40094,-0.72936,0.43973,0.44611,1.61717,1.78564,0.30228,1.48448,-2.97872,0.50533,0.40101,0.78024,0.47924,-0.02735,-8.44043,1.33163,2.60307
-0.10393,1.69124,-0.39445,-0.70356,0.39393,0.45293,1.47487,1.82709,0.31063,1.79862,-2.78826,0.52345,0.40527,0.77784,0.47849,-0.04196,-9.11906,2.35775,2.50015
-0.11188,1.69383,-0.38841,-0.67797,0.35485,0.45954,1.37016,1.84456,0.28989,1.74141,-2.79413,0.73360,0.40999,0.77473,0.47811,-0.05580,-7.78377,1.64635,0.30458
-0.11988,1.69628,-0.38203,-0.65737,0.32105,0.46727,1.32743,1.85504,0.26040,1.67712,-2.67376,0.84927,0.41496,0.77053,0.47876,-0.06986,-6.00180,0.08792,-1.33685
-0.12738,1.69732,-0.37511,-0.62748,0.27237,0.48355,1.35523,1.89861,0.21471,1.78022,-2.74475,1.07728,0.42104,0.76451,0.48060,-0.08527,1.70244,3.44489,-2.52624
-0.13541,1.69867,-0.36830,-0.60644,0.23624,0.49619,1.35001,1.89273,0.18426,1.82842,-2.53587,1.04015,0.42634,0.75881,0.48231,-0.09915,-0.74767,0.86408,-2.59299
-0.14311,1.69967,-0.36130,-0.58500,0.20178,0.50706,1.29319,1.84073,0.16864,1.80493,-2.57460,0.82724,0.43074,0.75401,0.48327,-0.11130,-2.23288,-2.69335,-1.54747
-0.14963,1.70005,-0.35346,-0.56080,0.16871,0.51713,1.17343,1.73763,0.16727,1.73368,-2.17247,0.67448,0.43379,0.75100,0.48287,-0.12107,-8.49716,-6.53381,-0.40880
-0.15602,1.70010,-0.34561,-0.54050,0.13871,0.52517,1.04131,1.60108,0.20357,1.33119,-1.98971,0.41174,0.43511,0.74926,0.48222,-0.12947,-8.50122,-9.58164,2.15710
-0.16244,1.70003,-0.33798,-0.52410,0.11215,0.52818,0.88731,1.43611,0.29360,1.16928,-1.76369,-0.01768,0.43414,0.74933,0.48095,-0.13678,-9.22820,-11.22715,5.34092
-0.16874,1.70001,-0.33077,-0.50962,0.08988,0.52355,0.65190,1.22597,0.40680,1.04743,-1.56143,-0.66342,0.43124,0.75221,0.47780,-0.14112,-14.38374,-15.37181,8.58924
-0.17492,1.69992,-0.32407,-0.49723,0.07158,0.51327,0.45452,1.05906,0.49100,0.96535,-1.49043,-1.16544,0.42843,0.75530,0.47426,-0.14503,-16.53546,-15.57093,8.84185
-0.18072,1.69903,-0.31834,-0.48153,0.04507,0.49061,0.26990,0.93913,0.48945,0.62487,-1.50808,-1.92839,0.42771,0.75781,0.47009,-0.14768,-11.27090,-10.43252,-0.49171
-0.18650,1.69859,-0.31338,-0.46818,0.03039,0.46140,0.18974,1.08763,0.67334,0.79494,-0.56085,-2.36131,0.42577,0.76060,0.46310,-0.16044,-10.08022,5.69669,13.68668
-0.19222,1.69816,-0.30868,-0.45710,0.01859,0.43534,0.27065,1.31274,0.73459,0.71432,-1.02164,-2.15748,0.42701,0.75908,0.45848,-0.17683,3.40938,17.11416,7.93177
-0.19767,1.69707,-0.30451,-0.44581,-0.00076,0.40599,0.34357,1.50785,0.78627,0.84726,-1.50291,-1.60689,0.42831,0.75703,0.45368,-0.19397,5.99220,15.41669,2.60091
-0.20268,1.69569,-0.30006,-0.43557,-0.02104,0.38527,0.29797,1.50770,0.81337,0.73249,-1.62621,-1.44658,0.42798,0.75728,0.44859,-0.20527,-1.93397,2.10441,2.68752
-0.20747,1.69389,-0.29587,-0.42402,-0.04353,0.36536,0.22555,1.48801,0.81123,0.68045,-1.64813,-1.51754,0.42810,0.75781,0.44295,-0.21505,-4.90623,-2.32031,0.64756
-0.21242,1.69160,-0.29236,-0.41112,-0.06887,0.34092,0.15009,1.51664,0.78771,0.71163,-1.58579,-1.57768,0.42948,0.75790,0.43630,-0.22534,-4.53847,0.54309,-1.16045
-0.21746,1.68918,-0.28888,-0.40079,-0.09117,0.32173,0.11647,1.59166,0.75564,0.58015,-1.42559,-1.13611,0.43173,0.75693,0.42953,-0.23700,-4.90120,3.80931,-1.36309
-0.22250,1.68667,-0.28497,-0.39287,-0.10973,0.31345,0.21946,1.73519,0.71118,0.55596,-1.36284,-0.34640,0.43476,0.75292,0.42479,-0.25229,2.75535,9.93487,-3.27852
-0.22736,1.68345,-0.28052,-0.38349,-0.13514,0.31489,0.38534,1.85132,0.65663,0.88195,-1.64480,0.39562,0.43764,0.74702,0.42218,-0.26871,10.61235,10.03439,-5.09124
-0.23193,1.68043,-0.27573,-0.37186,-0.15209,0.32101,0.45067,1.85770,0.60803,1.32206,-1.39595,0.63971,0.43975,0.74263,0.41917,-0.28183,6.12920,3.04250,-4.23544
-0.23599,1.67730,-0.27074,-0.35578,-0.16684,0.32865,0.48192,1.81519,0.54075,1.48406,-1.15681,0.58322,0.44201,0.73840,0.41662,-0.29294,3.27918,-1.96444,-5.76245
-0.23891,1.67413,-0.26577,-0.32543,-0.17892,0.33416,0.42980,1.75315,0.45830,1.99178,-0.28719,0.18941,0.44519,0.73505,0.41278,-0.30187,-2.59253,-3.07777,-4.34991
-0.24180,1.67171,-0.26080,-0.30061,-0.17776,0.33908,0.32043,1.60268,0.44179,1.71012,0.31148,0.51264,0.44633,0.73428,0.40830,-0.30807,-7.16780,-8.64052,-1.80825
-0.24460,1.66979,-0.25546,-0.27984,-0.16922,0.34878,0.28018,1.47961,0.46524,1.30365,1.15661,0.88070,0.44604,0.73348,0.40463,-0.31516,-5.62096,-11.90986,2.15486
-0.24733,1.66826,-0.24973,-0.26230,-0.15678,0.36168,0.38413,1.47704,0.46695,1.33941,1.27307,1.25498,0.44612,0.72944,0.40298,-0.32636,4.80314,-2.65587,0.27571
-0.24940,1.66725,-0.24334,-0.23867,-0.13930,0.38186,0.56637,1.51427,0.44488,1.63642,1.14137,1.18953,0.44623,0.72306,0.40339,-0.33963,11.78291,2.92955,-2.64017
-0.25105,1.66652,-0.23709,-0.21335,-0.12109,0.39613,0.67729,1.52475,0.42133,2.04630,1.26430,0.94075,0.44645,0.71719,0.40322,-0.35175,8.54415,1.57892,-2.55409
-0.25236,1.66583,-0.23083,-0.18857,-0.10621,0.40704,0.70948,1.46441,0.41010,2.28036,1.01116,0.94341,0.44610,0.71285,0.40265,-0.36156,5.03339,-1.35886,-2.20910
-0.25280,1.66547,-0.22410,-0.15645,-0.08990,0.42260,0.71480,1.28758,0.39724,2.52992,1.21174,1.25851,0.44428,0.71026,0.40358,-0.36778,-0.14922,-10.48128,-0.99538
-0.25284,1.66525,-0.21698,-0.12528,-0.07470,0.44099,0.72721,1.08553,0.38163,2.18055,1.17722,1.29401,0.44164,0.70821,0.40578,-0.37247,1.02955,-15.26868,-2.57714
-0.25212,1.66543,-0.20947,-0.08871,-0.05681,0.46138,0.81742,0.95493,0.32604,2.11219,0.99872,1.30659,0.43945,0.70406,0.40980,-0.37847,4.23713,-9.56082,-3.40802
-0.25136,1.66532,-0.20193,-0.05858,-0.04654,0.47789,0.89795,0.85219,0.27264,2.31104,0.55232,0.96867,0.43737,0.69949,0.41409,-0.38465,7.44414,-5.33029,-4.93418
-0.25013,1.66528,-0.19461,-0.02790,-0.03748,0.48797,0.92866,0.71427,0.20791,2.06260,0.71579,0.58426,0.43540,0.69579,0.41868,-0.38861,2.12741,-10.24248,-4.53984
-0.24882,1.66535,-0.18734,-0.00243,-0.02846,0.49492,1.02605,0.66179,0.13500,1.42192,0.60854,0.40121,0.43375,0.68997,0.42438,-0.39460,5.29871,-5.35698,-6.53466
-0.24776,1.66534,-0.18034,0.01366,-0.02285,0.49641,1.11071,0.65810,0.08512,1.22629,0.37189,-0.13688,0.43226,0.68355,0.42960,-0.40169,7.61419,-0.42330,-4.91067
-0.24644,1.66545,-0.17382,0.03014,-0.01655,0.49053,1.14625,0.66338,0.04287,1.17441,0.28978,-0.64359,0.43133,0.67734,0.43396,-0.40846,3.64686,1.58778,-3.84316
-0.24519,1.66547,-0.16773,0.04220,-0.01307,0.48000,1.09622,0.58380,0.03634,0.75295,0.02769,-0.95167,0.42960,0.67381,0.43739,-0.41245,-1.85611,-4.28413,-1.49910
-0.24408,1.66541,-0.16206,0.04971,-0.01124,0.46505,1.01306,0.48378,0.06147,0.41773,0.07294,-1.14119,0.42718,0.67187,0.43994,-0.41540,-5.15972,-6.64528,0.56175
-0.24325,1.66531,-0.15660,0.05161,-0.01051,0.45032,0.91860,0.34779,0.10761,-0.09116,0.01850,-0.98808,0.42370,0.67158,0.44228,-0.41694,-7.43675,-10.19470,2.77596
-0.24265,1.66507,-0.15126,0.04977,-0.01186,0.43703,0.89774,0.30601,0.13893,-0.28538,0.01462,-0.81534,0.42052,0.66948,0.44492,-0.42072,-3.05337,-5.68632,2.62560
-0.24215,1.66474,-0.14589,0.04693,-0.01432,0.42654,0.94150,0.32050,0.13753,-0.20616,-0.20232,-0.73330,0.41779,0.66528,0.44860,-0.42615,2.68412,1.29784,0.15769
-0.24172,1.66436,-0.14081,0.04382,-0.01680,0.41397,0.96548,0.32740,0.14432,-0.13902,-0.22025,-1.11240,0.41494,0.66136,0.45199,-0.43143,2.78561,0.79176,0.13429
-0.24119,1.66399,-0.13615,0.04269,-0.01879,0.39810,0.92661,0.29348,0.16031,0.08166,-0.26841,-1.13425,0.41209,0.65907,0.45442,-0.43510,-1.97818,-1.15662,1.09538
-0.24057,1.66338,-0.13157,0.04302,-0.02389,0.38408,0.86667,0.21314,0.16033,0.08077,-0.49160,-0.89137,0.40915,0.65781,0.45715,-0.43692,-4.16202,-4.98090,-0.15328
-0.24011,1.66243,-0.12697,0.04086,-0.03305,0.37325,0.78683,0.01421,0.16251,-0.30022,-0.57067,-0.53146,0.40458,0.65900,0.46106,-0.43526,-5.11267,-12.61419,-0.51166
-0.23978,1.66146,-0.12220,0.03737,-0.04059,0.36715,0.78764,-0.04753,0.14583,-0.53596,-0.48878,-0.41423,0.40090,0.65758,0.46525,-0.43636,-2.65021,-9.39026,-0.86874
-0.23961,1.66029,-0.11758,0.03225,-0.04929,0.35987,0.83350,-0.02364,0.12225,-0.39869,-0.64744,-0.61926,0.39790,0.65412,0.46959,-0.43964,3.80121,1.96264,-1.78413
-0.23967,1.65910,-0.11340,0.02489,-0.05652,0.34754,0.86274,0.01182,0.09722,-0.51471,-0.35427,-0.94134,0.39539,0.65044,0.47362,-0.44303,2.05629,1.74343,-1.59528
-0.23981,1.65813,-0.10958,0.01753,-0.05925,0.33270,0.82801,-0.00691,0.11368,-0.36839,-0.29856,-1.19406,0.39222,0.64880,0.47645,-0.44522,-0.14032,2.05990,0.45165
-0.24013,1.65720,-0.10578,0.00930,-0.06077,0.32028,0.72522,-0.15024,0.13886,-0.70949,-0.12765,-0.99784,0.38784,0.65052,0.47917,-0.44363,-7.81809,-9.43994,1.71676
-0.24079,1.65625,-0.10228,-0.00202,-0.06224,0.30654,0.66050,-0.22759,0.16423,-1.06308,0.05692,-0.93863,0.38360,0.65159,0.48165,-0.44306,-6.23704,-9.06919,1.66917
-0.24175,1.65550,-0.09919,-0.01569,-0.06052,0.28946,0.62565,-0.19261,0.18490,-0.87029,0.26357,-1.12499,0.38067,0.65089,0.48319,-0.44494,-2.43582,1.03048,1.62064
-0.24254,1.65489,-0.09629,-0.02399,-0.05698,0.27256,0.62919,-0.06259,0.19121,-0.47282,0.26274,-1.24262,0.37910,0.64798,0.48423,-0.44936,-0.25549,7.63053,0.90331
-0.24309,1.65428,-0.09350,-0.02717,-0.05439,0.25795,0.61395,0.01615,0.18621,0.08595,0.06703,-1.26288,0.37771,0.64551,0.48531,-0.45291,0.17010,10.36661,0.18540
-0.24335,1.65363,-0.09100,-0.02524,-0.05274,0.24226,0.52950,-0.05422,0.16910,0.49502,0.17379,-0.72929,0.37554,0.64613,0.48673,-0.45231,-5.96072,-4.40505,-0.49407
-0.24300,1.65294,-0.08813,-0.01473,-0.05215,0.23483,0.51867,-0.07710,0.09203,0.87440,0.11483,-0.31406,0.37439,0.64453,0.48994,-0.45208,-2.54823,-3.59535,-4.57400
-0.24215,1.65225,-0.08511,0.00075,-0.05160,0.23129,0.56789,0.00763,-0.00777,1.45361,0.21172,-0.17418,0.37493,0.63983,0.49367,-0.45424,2.42976,4.16574,-7.19261
-0.24032,1.65170,-0.08210,0.02686,-0.04926,0.22840,0.64565,0.15368,-0.15703,2.19680,0.16595,-0.21534,0.37779,0.63218,0.49830,-0.45752,6.11806,11.32179,-9.74849
-0.23772,1.65119,-0.07901,0.05879,-0.04675,0.22702,0.66551,0.17228,-0.31535,2.71366,0.04859,-0.08039,0.38053,0.62615,0.50389,-0.45742,3.29778,6.46445,-11.32262
-0.23435,1.65061,-0.07553,0.09532,-0.04570,0.23167,0.63892,0.03146,-0.47883,2.89995,0.03815,0.60651,0.38206,0.62291,0.51113,-0.45250,-2.98565,-8.54957,-11.35654
-0.22950,1.64956,-0.07099,0.14713,-0.05201,0.25155,0.71198,-0.14719,-0.73671,2.97374,-0.34630,1.60717,0.38361,0.61739,0.52296,-0.44518,2.49104,-10.03277,-14.07659
-0.22473,1.64828,-0.06586,0.18820,-0.06049,0.27610,0.87657,-0.23714,-0.95493,2.86239,-0.51347,1.97546,0.38450,0.60893,0.53631,-0.44015,9.77042,-7.26447,-15.32129
-0.21950,1.64693,-0.06015,0.22758,-0.06807,0.30440,1.09075,-0.31818,-1.15674,2.80797,-0.49444,2.08501,0.38445,0.59853,0.55176,-0.43534,15.04750,-4.63342,-15.41974
-0.21428,1.64565,-0.05428,0.25823,-0.07315,0.32881,1.23951,-0.46312,-1.31038,2.52596,-0.41884,1.92327,0.38301,0.58948,0.56763,-0.42850,13.86421,-9.62016,-13.90450
-0.20807,1.64448,-0.04771,0.29697,-0.07514,0.35806,1.42865,-0.61670,-1.47573,2.29202,-0.04295,1.78254,0.38046,0.57885,0.58587,-0.42064,10.47167,-11.20794,-11.64353
-0.20182,1.64338,-0.04120,0.32869,-0.07597,0.38104,1.59968,-0.69815,-1.60112,2.18324,-0.06269,1.58866,0.37808,0.56703,0.60350,-0.41391,12.50280,-5.55553,-9.80032
-0.19570,1.64235,-0.03457,0.35180,-0.07566,0.40095,1.67118,-0.88679,-1.67957,2.02070,-0.14936,1.62016,0.37369,0.55814,0.62090,-0.40413,9.01903,-9.95294,-7.25152
-0.18934,1.64124,-0.02726,0.37277,-0.07641,0.42605,1.69447,-1.23395,-1.75562,1.27082,-0.11182,1.84567,0.36587,0.55220,0.64008,-0.38924,-1.10444,-23.51414,-8.90176
-0.18310,1.63995,-0.01963,0.38812,-0.07989,0.45079,1.76223,-1.52842,-1.81668,0.89704,-0.27403,1.77001,0.35659,0.54511,0.65996,-0.37437,1.56480,-21.76311,-6.93913
-0.17698,1.63848,-0.01205,0.39849,-0.08509,0.46972,1.83363,-1.73344,-1.85966,0.67521,-0.56399,1.44063,0.34714,0.53693,0.67931,-0.36019,4.07892,-19.24626,-5.76156
-0.17057,1.63650,-0.00422,0.41075,-0.09658,0.48792,1.97017,-1.88646,-1.91592,0.68364,-0.83157,0.92185,0.33683,0.52611,0.69985,-0.34637,6.39091,-11.50412,-4.52519
-0.16403,1.63406,0.00319,0.42264,-0.11263,0.49672,2.09952,-1.93977,-1.96979,0.96147,-1.49901,0.45080,0.32776,0.51337,0.71941,-0.33388,9.24536,-4.69186,-2.18915
-0.15733,1.63067,0.01027,0.43476,-0.13936,0.49932,2.23108,-1.96810,-2.06525,0.85113,-2.37230,-0.16856,0.31936,0.49870,0.73931,-0.32052,9.89898,-3.12930,-5.11232
-0.15034,1.62620,0.01685,0.44821,-0.17616,0.49355,2.36237,-1.95887,-2.20250,1.01108,-2.94781,-0.58646,0.31215,0.48172,0.75942,-0.30625,10.44809,-0.05775,-7.55000
-0.14348,1.62067,0.02306,0.45706,-0.22108,0.48381,2.38294,-2.06066,-2.40715,0.57787,-3.74529,-0.98118,0.30482,0.46628,0.77949,-0.28648,7.22755,-1.95403,-11.80085
-0.13696,1.61367,0.02877,0.45954,-0.27897,0.46896,2.32256,-2.25475,-2.73434,-0.14784,-3.55204,-0.92061,0.29793,0.45164,0.80002,-0.25930,-4.59732,-9.62976,-23.72219
-0.13085,1.60634,0.03431,0.45478,-0.33041,0.45395,2.43119,-2.28119,-2.91175,-0.96803,-3.56566,-1.08013,0.29055,0.43218,0.81995,-0.23765,6.48628,-2.92499,-15.92178
-0.12571,1.59780,0.03929,0.43644,-0.38995,0.43353,2.64300,-2.27045,-2.99288,-1.51219,-3.81812,-1.41227,0.28135,0.40938,0.83978,-0.21914,14.50832,-0.65873,-2.87733
-0.12123,1.58894,0.04400,0.41207,-0.44296,0.41342,2.84414,-2.25466,-3.01240,-2.13396,-3.70122,-1.35761,0.27113,0.38576,0.85845,-0.20184,12.24657,-2.39308,-1.78497
-0.11749,1.57920,0.04848,0.38108,-0.49752,0.39361,3.18819,-2.22297,-2.91658,-2.46712,-3.94083,-1.39808,0.25782,0.35752,0.87747,-0.18911,21.51313,-3.10704,8.56100
-0.11417,1.56902,0.05271,0.35106,-0.54677,0.37474,3.49010,-2.22248,-2.82570,-2.52047,-4.32445,-1.77225,0.24310,0.32800,0.89562,-0.17661,24.49720,-6.90145,12.32774
-0.11193,1.55741,0.05615,0.31189,-0.60650,0.34841,3.70954,-2.29633,-2.81019,-2.83374,-4.56341,-2.25672,0.22694,0.29827,0.91300,-0.16114,16.80220,-8.54449,4.84974
-0.11033,1.54481,0.05895,0.27103,-0.66794,0.31774,3.86004,-2.37598,-2.91161,-2.77281,-4.40242,-2.09970,0.21146,0.26760,0.92934,-0.14144,9.60862,-7.00163,-6.20577
-0.10769,1.53362,0.06246,0.25514,-0.69449,0.30485,3.96674,-2.39056,-2.94234,-2.75204,-4.25953,-2.07289,0.19657,0.23684,0.94341,-0.12351,11.07042,-5.17775,-7.79501
-0.10801,1.51783,0.06326,0.20168,-0.77922,0.25726,4.47067,-2.38606,-2.85698,-2.91265,-3.97545,-2.51617,0.17729,0.19284,0.95852,-0.11233,23.02952,-6.35454,7.32846
-0.10832,1.50261,0.06386,0.15597,-0.84304,0.21352,4.96457,-2.41348,-2.59425,-3.13162,-3.90208,-2.93180,0.15460,0.14780,0.97099,-0.10689,26.25261,-12.10068,17.95856
-0.10886,1.48765,0.06423,0.11626,-0.88975,0.17539,5.30642,-2.50014,-2.34046,-3.55419,-3.95777,-3.41735,0.12979,0.10438,0.98079,-0.10155,23.77658,-17.62729,20.56736
-0.11094,1.47129,0.06312,0.06294,-0.94734,0.12420,5.67853,-2.68048,-2.06402,-4.08646,-4.43188,-4.05772,0.10008,0.05828,0.98840,-0.09824,20.51120,-23.57700,19.74034
-0.11845,1.45117,0.05668,-0.07030,-1.05525,-0.00590,6.03931,-3.09549,-2.17853,-5.91967,-3.97578,-6.21109,0.06419,0.00903,0.99443,-0.08317,11.17974,-13.19316,-12.47925
-0.12936,1.41703,0.04649,-0.20102,-1.12402,-0.15297,6.24373,-3.48073,-2.42111,-7.17937,-2.94850,-8.58470,0.00167,-0.07938,0.99566,-0.04848,11.01325,-14.23766,-16.81347
-0.14299,1.38305,0.03178,-0.30185,-1.15789,-0.28440,6.41290,-3.81791,-2.59883,-7.26417,-1.74613,-10.22743,-0.06671,-0.16885,0.98332,-0.01121,13.24999,-17.87970,-19.57816
-0.15502,1.36618,0.01575,-0.40001,-1.16734,-0.43610,6.53599,-4.15266,-2.79897,-6.78306,0.53030,-11.68512,-0.10946,-0.21495,0.97038,0.01316,12.07075,-16.64507,-21.68361
-0.16007,1.36720,0.00610,-0.47488,-1.15062,-0.57995,6.57858,-4.45244,-2.90018,-5.98513,2.58156,-12.58441,-0.11954,-0.21586,0.96894,0.01658,5.72283,-16.59283,-20.40617
-0.17225,1.35519,-0.01621,-0.55739,-1.08945,-0.79252,6.62061,-4.96589,-2.90943,-4.66449,5.60743,-14.08266,-0.16975,-0.25818,0.95044,0.03454,0.13567,-25.73514,-15.45936
-0.18261,1.34448,-0.03704,-0.59574,-1.02418,-0.93703,6.63322,-5.36403,-2.83863,-3.36789,7.80191,-14.76516,-0.21867,-0.29878,0.92763,0.04903,-3.25444,-34.28151,-13.98904
-0.19302,1.34163,-0.06805,-0.62540,-0.85518,-1.20038,6.56621,-6.21826,-2.66540,0.04380,11.36491,-14.45082,-0.28334,-0.33535,0.89670,0.05648,-9.48217,-45.39713,-15.30481
-0.20070,1.33949,-0.09586,-0.60976,-0.70947,-1.36547,6.39417,-6.77454,-2.55023,2.53537,13.38202,-13.38827,-0.34192,-0.36705,0.86273,0.06369,-17.29523,-42.20156,-18.64481
-0.20931,1.34305,-0.12033,-0.55397,-0.51078,-1.53867,6.03001,-7.39197,-2.45073,5.61591,15.64342,-11.74938,-0.40419,-0.38994,0.82468,0.06698,-25.29963,-37.96329,-23.86883
-0.22891,1.35715,-0.14042,-0.32020,-0.03221,-1.80136,5.00293,-8.13114,-2.43367,11.48692,18.79401,-7.09610,-0.47216,-0.39151,0.78718,0.06430,-31.01371,-20.51999,-1.30251
-0.24009,1.36941,-0.18644,-0.14940,0.23170,-1.87600,4.44858,-8.15159,-2.47138,13.54679,19.40740,-3.83532,-0.56817,-0.41776,0.70511,0.07400,-29.87321,6.82975,-24.82813
-0.24223,1.38338,-0.20684,0.01888,0.46142,-1.90426,3.92372,-8.16837,-2.46126,14.53559,19.50574,-0.86609,-0.61420,-0.41879,0.66488,0.07290,-32.95273,12.19816,-20.82445
-0.24122,1.40085,-0.22331,0.23064,0.72980,-1.89370,3.15280,-8.35526,-2.47238,15.32801,19.66771,2.54072,-0.66337,-0.40829,0.62381,0.06401,-42.32183,3.51200,-30.03333
-0.23783,1.42134,-0.23252,0.51187,1.07250,-1.81015,1.84548,-8.76777,-2.70258,15.87077,19.54802,6.86694,-0.71964,-0.37545,0.58233,0.04512,-53.14529,-8.09875,-52.79062
-0.23171,1.44072,-0.24358,0.69954,1.30514,-1.71429,0.81143,-9.00528,-3.01189,15.46090,20.18712,9.17503,-0.77052,-0.33979,0.53854,0.02853,-54.45385,-1.24098,-67.88703
-0.22525,1.46252,-0.24937,0.90954,1.58747,-1.57294,-0.51892,-9.41074,-3.72141,14.29553,21.35408,11.09158,-0.82573,-0.27997,0.48960,0.00823,-49.51988,-7.64074,-90.47937
-0.21704,1.48693,-0.25556,1.08154,1.84300,-1.43352,-1.74831,-9.88459,-4.68544,14.11467,22.27571,12.04949,-0.87876,-0.20411,0.43127,-0.01089,-37.63636,-23.27958,-121.88270
-0.21152,1.51478,-0.25558,1.30330,2.21660,-1.23461,-3.09682,-10.21684,-6.61363,15.57388,26.41700,14.10485,-0.92629,-0.08949,0.36568,-0.01595,7.43587,-49.86365,-136.51440
-0.20534,1.54907,-0.25441,1.49645,2.55484,-1.06297,-4.01946,-9.97141,-8.08691,17.74012,30.48511,15.50138,-0.95104,0.02134,0.30783,-0.01750,12.51298,-10.20844,-147.62270
-0.20168,1.58999,-0.24644,1.79318,3.06238,-0.82849,-4.52548,-8.97344,-10.59616,21.63154,33.17550,15.60388,-0.95088,0.16460,0.26180,0.01403,87.29488,-19.42836,-145.75200
-0.18884,1.63630,-0.24214,2.08079,3.46507,-0.64163,-4.35960,-8.03380,-12.33970,28.05254,34.85402,18.15315,-0.93163,0.28867,0.21465,0.05160,110.17240,-33.51913,-123.85830
-0.16911,1.69094,-0.23089,2.54478,3.97298,-0.36702,-3.54789,-6.13763,-14.44668,40.80672,37.47961,23.98760,-0.87748,0.42174,0.19582,0.11758,157.61050,-46.99441,-111.21300
-0.13540,1.75268,-0.20913,3.32613,4.55532,0.04961,-1.14830,-3.65414,-16.50432,58.12417,33.22733,31.30408,-0.78578,0.53737,0.20435,0.22810,218.02880,-91.52829,-93.80228
-0.08104,1.81536,-0.18068,4.26217,4.95682,0.53127,2.21526,-2.25691,-17.90156,77.91405,23.19663,41.59555,-0.67080,0.61558,0.19910,0.36257,193.03740,-182.11510,-65.40216
0.00094,1.87571,-0.14540,5.29411,5.13373,1.09477,5.75182,-1.85150,-19.22514,96.25668,4.10737,54.85244,-0.51854,0.66666,0.17231,0.50695,130.07710,-244.58060,-116.21350
0.12061,1.91258,-0.08926,6.74528,4.91590,1.97740,9.49428,-2.65404,-21.12312,111.18730,-39.73163,71.20330,-0.30834,0.68127,0.10642,0.65534,55.06538,-239.84150,-211.94540
0.26733,1.87978,0.00111,8.47909,3.67629,3.27702,12.25159,-4.40423,-23.09609,99.50559,-119.02990,88.46245,-0.06978,0.64992,0.00293,0.75678,5.69971,-111.56320,-240.04830
0.39683,1.82227,0.09636,9.33100,2.22752,4.18218,13.32621,-5.28280,-23.85829,69.29095,-171.04870,91.42299,0.13788,0.59661,-0.08361,0.78617,-12.86717,-46.52105,-182.76260
0.46756,1.58144,0.22574,9.75888,-1.63396,5.65121,15.88976,-3.74561,-25.70244,-27.28963,-259.31590,61.23838,0.41388,0.52821,-0.12517,0.73077,98.43114,-95.06882,-108.03790
0.41118,1.29217,0.29269,8.09563,-5.89347,6.04610,22.66146,4.29012,-23.46220,-170.29400,-259.41230,-23.08906,0.69953,0.49739,0.04338,0.51124,328.06120,-383.78380,-175.79570
0.25844,1.05436,0.28631,5.06682,-9.03459,5.32520,36.90035,10.45928,-11.41282,-236.31150,-193.62090,-85.80500,0.84286,0.26142,0.45739,0.10975,628.49460,-436.71100,-1005.79000
0.13347,0.87518,0.25986,2.70300,-10.75782,4.23646,47.61126,6.53494,-2.50089,-243.93750,-155.40690,-128.16920,0.72964,-0.19346,0.60268,-0.25882,1067.31700,682.73120,-994.37690
-0.06819,0.73991,0.11164,-0.37856,-12.00492,1.42164,47.86125,-6.40250,-3.92925,-206.57570,-8.88842,-225.82390,0.53274,-0.58890,0.53279,-0.29243,725.57820,872.67980,173.01680
-0.21005,0.75078,-0.07344,-2.41528,-10.70582,-1.46460,36.05357,-7.85493,-11.66554,-91.68000,153.25480,-142.82870,0.56245,-0.69431,0.43692,-0.10337,-128.77460,694.99840,824.41740
-0.26849,0.86107,-0.17805,-3.08095,-8.21136,-2.55887,24.54967,-3.81037,-11.15277,6.36933,143.28030,-2.83891,0.65437,-0.62731,0.42103,0.03204,-431.50700,347.14230,625.29240
-0.28382,0.91124,-0.20472,-2.99936,-6.79401,-2.34670,18.32788,-4.47017,-8.10532,15.91507,101.93210,35.41845,0.63234,-0.60419,0.48181,0.05446,-617.36540,122.39150,131.16420
-0.28074,0.96923,-0.19814,-2.78736,-5.70897,-1.73771,11.90931,-4.02972,-4.66791,9.70995,56.88314,47.95806,0.63785,-0.51903,0.56112,0.09433,-528.28910,-4.02158,99.50615
0.06942,0.83958,-0.10376,-2.72088,-5.03542,-0.96212,4.77809,-1.39237,-3.76620,-1.48946,30.31380,43.80854,0.66364,-0.40792,0.58159,0.23438,-420.77920,234.19400,120.14940
0.23713,0.72954,-0.04190,-2.78710,-4.65023,-0.44980,0.79276,1.16929,-3.79170,-2.68390,29.40985,30.92079,0.68159,-0.33976,0.54759,0.34660,-258.87420,294.16840,5.18649
0.28127,0.66547,-0.00543,-2.87965,-4.24534,-0.12500,-0.88315,2.04725,-3.78006,-4.93580,31.59693,19.48798,0.67994,-0.31137,0.52371,0.40798,-118.84710,140.62000,30.20644
0.27855,0.62354,0.01710,-2.96532,-3.83279,0.07271,-1.24045,1.00391,-4.66630,-4.67306,29.45951,13.18507,0.64088,-0.34381,0.52159,0.44612,-48.66082,-21.21906,-53.90416
0.25662,0.59376,0.03453,-3.02190,-3.42505,0.22719,-1.80813,-1.16371,-5.27716,-4.28072,30.09688,10.64852,0.56883,-0.38406,0.55285,0.47253,-86.53150,-144.10510,-38.40400
0.22507,0.56974,0.04965,-3.03228,-3.06579,0.35574,-2.59123,-1.84309,-5.25463,-1.97192,30.42563,8.74811,0.51734,-0.39299,0.56770,0.50560,-99.99834,-83.04589,-10.53675
0.19381,0.55733,0.06669,-2.98862,-2.65143,0.49134,-3.31118,-0.95065,-4.69929,1.62721,28.54701,7.62267,0.50191,-0.36863,0.55981,0.54664,-42.38731,63.47475,19.91133
0.16308,0.55313,0.08466,-2.91525,-2.21990,0.62078,-3.84510,1.01537,-4.28795,5.24762,25.39836,7.13543,0.51015,-0.32599,0.52308,0.59988,8.16397,129.94210,-7.03900
0.13208,0.54869,0.09994,-2.82582,-1.86902,0.69849,-4.36607,2.25775,-3.95544,7.83855,24.88191,4.15044,0.50602,-0.28417,0.49339,0.64789,-4.05585,111.63810,-9.68258
0.10702,0.55294,0.11272,-2.66873,-1.46101,0.72763,-4.78295,3.16416,-3.57268,10.19034,26.14642,-0.33323,0.49815,-0.24007,0.46667,0.69024,-7.35791,70.06821,3.90720
0.08306,0.55699,0.12121,-2.52126,-1.13311,0.69811,-4.84647,3.72399,-3.25915,11.33734,28.73579,-5.56762,0.49063,-0.20324,0.44095,0.72356,-0.50633,53.18710,11.98326
0.06332,0.57004,0.12303,-2.34956,-0.75012,0.58253,-3.99427,5.07658,-3.40883,9.52588,26.29153,-12.62294,0.51065,-0.17013,0.37956,0.75248,46.51709,60.36642,-28.60531
0.04455,0.58215,0.11864,-2.20019,-0.45391,0.40534,-2.02298,6.61288,-4.28950,9.78965,17.53790,-12.95848,0.55522,-0.16047,0.27748,0.76745,117.86190,70.86807,-135.80750
0.02977,0.59024,0.11286,-2.09102,-0.27546,0.25753,-0.65699,6.79849,-4.91967,10.56494,11.93886,-10.71404,0.57894,-0.16705,0.19905,0.77285,95.50786,9.46665,-129.91970
0.01281,0.59843,0.10534,-1.93998,-0.10925,0.10305,-0.00865,5.30294,-4.81933,12.08137,7.23277,-6.90560,0.58046,-0.19536,0.17463,0.77098,22.06919,-88.16555,-27.08246
0.00070,0.60448,0.09997,-1.75272,-0.00062,0.00735,-0.56638,2.85085,-3.62520,12.81778,4.79960,-4.45921,0.55508,-0.21989,0.21378,0.77319,-57.78145,-145.69620,77.22674
-0.01088,0.60754,0.09659,-1.58718,0.04585,-0.03983,-1.04542,1.42379,-2.42118,12.83756,3.23694,-3.58367,0.53572,-0.22578,0.24857,0.77475,-55.49549,-117.65050,120.52720
-0.01847,0.61004,0.09305,-1.39055,0.07204,-0.08067,-1.15368,0.61187,-1.46992,12.47787,1.85627,-2.58487,0.52579,-0.22691,0.27494,0.77231,-23.98950,-69.05804,88.73751
-0.02309,0.61136,0.09012,-1.19445,0.07708,-0.10414,-0.78501,0.66695,-1.08457,12.66256,0.11652,-0.99261,0.53205,-0.22211,0.27333,0.76999,20.05476,-9.72079,35.45271
-0.02576,0.61166,0.08838,-1.00743,0.06705,-0.10665,-0.26722,1.20203,-0.93120,12.31714,-1.03588,0.62395,0.54794,-0.20957,0.25582,0.76838,40.38759,29.29028,9.67519
-0.02788,0.61155,0.08757,-0.84042,0.05168,-0.09516,0.21607,1.88278,-0.89595,11.31151,-1.08443,1.04180,0.56678,-0.19214,0.23012,0.76739,39.11898,46.39855,0.16130
-0.02678,0.61171,0.08706,-0.65723,0.04283,-0.08063,0.57554,2.46886,-0.85030,9.47994,-0.07221,0.76088,0.58441,-0.17274,0.20406,0.76615,25.93413,36.19215,-0.63208
-0.02905,0.61316,0.08616,-0.55676,0.05536,-0.07667,0.58458,2.52559,-0.88209,8.16859,1.75410,-0.01851,0.59034,-0.16291,0.18673,0.76817,6.96452,11.78217,1.75784
-0.02961,0.61645,0.08439,-0.44745,0.08909,-0.08372,0.48728,2.41619,-1.07222,8.29132,2.46109,-0.62715,0.59098,-0.15948,0.16876,0.77255,-6.92434,-2.94195,-12.55792
-0.02757,0.62040,0.08227,-0.32006,0.12496,-0.09442,0.11074,2.03532,-1.02906,8.65281,1.27470,-0.62022,0.58337,-0.15774,0.16334,0.77982,-22.02851,-18.98354,0.02879
-0.02568,0.62306,0.08028,-0.22341,0.13598,-0.10287,-0.19026,1.66409,-0.80695,8.30133,0.46346,-0.88914,0.57637,-0.15425,0.16456,0.78544,-28.15577,-29.19497,20.51584
-0.02161,0.62516,0.07769,-0.10758,0.13140,-0.11662,-0.39589,1.38445,-0.59151,8.48094,-1.04021,-1.20090,0.57043,-0.14994,0.16648,0.79020,-16.67348,-21.42283,18.52451
-0.01623,0.62583,0.07450,0.00287,0.10727,-0.13682,-0.41894,1.17454,-0.42630,7.63846,-2.02636,-1.83234,0.56828,-0.14633,0.16708,0.79229,-4.68638,-15.39397,15.56981
-0.00976,0.62559,0.07031,0.10392,0.07635,-0.16812,-0.30515,0.95875,-0.45084,7.12268,-2.06286,-2.69763,0.56851,-0.14804,0.16367,0.79253,5.18210,-15.62830,2.94332
-0.00316,0.62540,0.06544,0.19031,0.04896,-0.20151,-0.09270,0.82109,-0.62030,7.92179,-2.52231,-2.61248,0.57140,-0.15273,0.15470,0.79135,12.43999,-14.41732,-11.49123
0.00869,0.62379,0.06245,0.33415,0.00610,-0.20013,0.19036,0.98221,-0.73690,13.17613,-3.35268,3.74945,0.57916,-0.15044,0.14002,0.78889,19.70084,-2.62715,-12.15701
0.02827,0.62199,0.06352,0.55187,-0.02579,-0.14447,0.47893,1.75405,-0.83100,17.27275,-2.06820,4.26672,0.59183,-0.13017,0.11133,0.78765,24.70868,48.50341,-14.55565
0.05324,0.62045,0.06485,0.81015,-0.05024,-0.09533,0.31007,2.29192,-0.08754,16.19906,-2.55510,1.97312,0.59713,-0.09315,0.10885,0.78925,2.23242,40.26052,39.23209
0.07549,0.61838,0.06396,0.97427,-0.07546,-0.08845,0.09376,2.36543,0.67348,12.84040,-2.43472,-0.87395,0.59839,-0.06207,0.11926,0.78984,-9.33420,11.96627,67.22363
0.09955,0.61516,0.06087,1.12821,-0.11020,-0.11344,-0.00177,2.38968,1.36120,9.98192,-1.96091,-2.82332,0.60102,-0.03049,0.13248,0.78759,-1.23031,-1.03573,57.33865
0.12376,0.61249,0.05581,1.26018,-0.13254,-0.16015,0.11661,2.62194,1.66906,8.84229,-0.46969,-3.78929,0.60827,0.00092,0.13347,0.78242,8.96554,10.17087,30.32176
0.15112,0.61128,0.04793,1.41380,-0.12945,-0.24020,0.44466,3.32364,1.52118,7.93990,1.28441,-4.79949,0.62183,0.03709,0.11194,0.77423,12.74329,40.95218,-9.08580
0.17741,0.61123,0.03981,1.51816,-0.10232,-0.30976,0.61724,3.94478,1.23731,7.17617,2.57436,-5.07166,0.63179,0.07127,0.08502,0.76716,5.16882,46.49187,-21.12189
0.20383,0.61293,0.03064,1.60596,-0.05434,-0.38114,0.62652,4.40112,1.08482,6.35137,3.93188,-5.20363,0.63739,0.10630,0.06074,0.76075,-3.45219,39.31454,-14.51385
