posX, posY, posZ, velX, velY, velZ, angVelX, angVelY, angVelZ, accX, accY, accZ, rotX, rotY, rotZ, rotW, angAccX, angAccY, angAccZ
0.39908,1.07611,-0.31823,-0.03943,0.24923,-0.17743,0.55416,0.21054,0.44692,-0.09396,1.10331,-1.05119,0.04995,0.68129,-0.23943,0.68994,5.32979,3.60223,2.66910
0.39846,1.08043,-0.32156,-0.04123,0.26477,-0.19229,0.63816,0.28185,0.47881,-0.14285,1.12572,-1.08592,0.05068,0.68540,-0.23256,0.68817,6.40773,5.14285,2.31288
0.39782,1.08488,-0.32499,-0.04281,0.27847,-0.20504,0.73436,0.34166,0.49493,-0.13383,1.14272,-1.04064,0.05219,0.68982,-0.22515,0.68610,7.03080,5.06287,2.07092
0.39717,1.08982,-0.32881,-0.04407,0.29739,-0.22136,0.89778,0.42824,0.50898,-0.01515,1.15774,-1.08956,0.05514,0.69560,-0.21593,0.68299,9.50069,5.22395,1.64808
0.39663,1.09490,-0.33277,-0.04344,0.31444,-0.23645,1.09374,0.52058,0.49299,0.08923,1.18476,-1.08537,0.05983,0.70217,-0.20586,0.67898,12.45427,6.85260,-0.37234
0.39618,1.10047,-0.33686,-0.04134,0.33639,-0.25020,1.34095,0.59960,0.42540,0.01891,1.59754,-0.66898,0.06742,0.70926,-0.19493,0.67409,15.21618,6.38880,-4.03348
0.39560,1.10650,-0.34078,-0.04187,0.36120,-0.25818,1.50850,0.61107,0.36646,-0.26485,2.10223,-0.48052,0.07506,0.71510,-0.18445,0.67006,12.95461,2.27052,-4.87595
0.39471,1.11337,-0.34479,-0.04812,0.39508,-0.26582,1.65504,0.60492,0.33722,-0.63629,2.83128,-0.64437,0.08288,0.72059,-0.17321,0.66624,10.36543,-0.25998,-3.49091
0.39339,1.12128,-0.34908,-0.06010,0.43891,-0.27638,1.74206,0.61192,0.31030,-1.11577,3.62335,-0.76626,0.09029,0.72603,-0.16241,0.66208,8.34285,0.64968,-1.35938
0.39175,1.12965,-0.35345,-0.07559,0.48034,-0.28543,1.73980,0.49491,0.15263,-1.21407,4.27844,-1.06465,0.09979,0.72844,-0.15531,0.65977,1.55139,-5.51254,-7.06085
0.38837,1.13978,-0.35794,-0.11786,0.54178,-0.29389,1.69655,0.20422,0.47992,-3.15738,3.54553,-1.07054,0.10006,0.72774,-0.13970,0.66397,-0.90177,-17.21214,33.36180
0.38583,1.15153,-0.36326,-0.13400,0.61702,-0.31465,1.65972,0.50378,0.45176,0.30039,6.74812,-1.28275,0.10417,0.73608,-0.13176,0.65572,-8.20651,26.75782,-33.05395
0.38312,1.16522,-0.36819,-0.14947,0.70573,-0.32381,1.80191,0.48513,0.57261,-2.43951,6.12405,-0.67587,0.10910,0.74065,-0.11622,0.65270,5.84955,1.96703,14.93739
0.37903,1.17976,-0.37302,-0.18410,0.78644,-0.32912,2.08402,0.49817,0.71344,-3.39087,7.11386,-0.30294,0.11636,0.74620,-0.09584,0.64843,21.51425,-0.20456,9.62655
0.37344,1.19696,-0.37767,-0.23481,0.89137,-0.33005,2.39001,0.46163,0.94469,-3.77986,7.97962,0.15653,0.12281,0.75104,-0.07064,0.64487,23.82155,-2.19232,14.67219
0.36654,1.21686,-0.38218,-0.29766,1.01925,-0.32870,2.62036,0.40870,1.21273,-4.24100,8.26940,0.10983,0.12716,0.75508,-0.04375,0.64170,17.27390,-4.99912,15.25054
0.35936,1.23659,-0.38694,-0.35001,1.11394,-0.33168,2.63975,0.37652,1.40265,-4.48855,7.92948,-0.42536,0.12866,0.75849,-0.02063,0.63853,7.51927,-5.32463,15.76646
0.35086,1.25826,-0.39227,-0.41130,1.21728,-0.34364,2.56609,0.43279,1.61300,-4.21474,7.18247,-1.07876,0.12657,0.76312,0.00149,0.63374,-4.31883,-1.10963,15.21938
0.34170,1.28081,-0.39793,-0.46966,1.31113,-0.35827,2.54030,0.58351,1.82235,-4.13712,6.22267,-1.15958,0.12370,0.76960,0.02481,0.62594,-3.95390,5.87192,16.17344
0.33172,1.30382,-0.40369,-0.52827,1.39080,-0.37089,2.64442,0.80444,2.00952,-4.29324,4.97072,-0.95663,0.12238,0.77760,0.05101,0.61463,2.97905,11.77449,16.10229
0.32072,1.32686,-0.40933,-0.58900,1.45148,-0.37852,2.87998,1.08530,2.14317,-4.44856,3.49320,-0.39811,0.12415,0.78679,0.08018,0.59926,13.29768,19.13310,13.79720
0.30824,1.34977,-0.41440,-0.66498,1.49881,-0.37509,3.27554,1.47710,2.19797,-4.34327,1.74869,0.71345,0.13080,0.79742,0.11246,0.57824,20.23682,23.79476,6.58894
0.29632,1.37136,-0.41905,-0.71323,1.51232,-0.36499,3.40927,1.65895,2.17110,-4.14191,0.67556,1.36123,0.13599,0.80505,0.13999,0.56018,14.77378,21.03003,2.12724
0.28343,1.39234,-0.42313,-0.76521,1.51197,-0.34774,3.35553,1.75217,2.06366,-3.73801,-0.47685,1.54408,0.14039,0.81142,0.16251,0.54358,-3.16646,9.67368,-4.41003
0.27035,1.41266,-0.42693,-0.80734,1.50109,-0.33021,3.31090,1.80689,1.95386,-3.50048,-1.31786,1.38749,0.14531,0.81674,0.18428,0.52712,-7.09061,4.94471,-7.21208
0.25639,1.43214,-0.43036,-0.85388,1.47887,-0.31059,3.32786,1.93159,1.83185,-3.22449,-1.99958,1.25457,0.15222,0.82233,0.20609,0.50807,-2.69768,8.81622,-7.10285
0.24197,1.45081,-0.43346,-0.89651,1.44781,-0.29046,3.45377,2.11537,1.70347,-2.92015,-2.53391,1.29900,0.16209,0.82765,0.22946,0.48587,4.12958,13.90960,-6.64360
0.22736,1.46868,-0.43618,-0.93422,1.41145,-0.26887,3.67589,2.38004,1.56304,-2.64763,-2.79976,1.52379,0.17545,0.83271,0.25439,0.45946,11.41558,21.23197,-7.26835
0.21263,1.48611,-0.43873,-0.96410,1.37639,-0.24949,3.83440,2.59987,1.44452,-2.50136,-3.02539,1.83183,0.18890,0.83674,0.27851,0.43199,11.91579,23.97779,-6.42620
0.19730,1.50252,-0.44065,-0.99553,1.33298,-0.22512,3.90343,2.78923,1.31392,-2.17426,-3.14416,2.03657,0.20255,0.84002,0.30024,0.40397,5.00806,18.33985,-6.97311
0.18176,1.51820,-0.44214,-1.02319,1.28687,-0.20006,3.79906,2.86647,1.18031,-1.93833,-3.46522,2.03729,0.21413,0.84252,0.31764,0.37869,-4.97603,9.42165,-5.97884
0.16626,1.53346,-0.44359,-1.04365,1.24504,-0.17999,3.56678,2.83533,1.05540,-1.64405,-3.53201,1.83451,0.22331,0.84448,0.33104,0.35694,-17.91046,0.94592,-6.52082
0.15009,1.54712,-0.44415,-1.06983,1.18754,-0.15061,3.34912,2.72183,0.92556,-1.47572,-3.62058,1.24390,0.23204,0.84486,0.34351,0.33818,-11.12777,-13.05253,-7.86300
0.13413,1.56032,-0.44471,-1.08747,1.13387,-0.12701,3.09061,2.97192,0.81491,-0.90984,-3.43278,1.46241,0.24255,0.84953,0.35085,0.31044,-24.50761,19.92856,0.95943
0.11850,1.57386,-0.44544,-1.09568,1.09839,-0.11130,2.98441,3.06013,0.74225,-0.82693,-3.74452,1.69875,0.25301,0.85109,0.36144,0.28458,-8.36701,10.01939,-2.22082
0.10248,1.58491,-0.44507,-1.10785,1.03169,-0.08119,2.74728,3.16568,0.61352,-0.51752,-3.68155,1.94546,0.26394,0.85362,0.36660,0.25936,-14.70164,6.94882,-3.67777
0.08665,1.59611,-0.44446,-1.11474,0.98076,-0.05269,2.52378,3.15905,0.53852,-0.43361,-3.72026,2.38798,0.27292,0.85524,0.37171,0.23646,-15.40485,1.84703,-1.85908
0.07057,1.60630,-0.44358,-1.12380,0.92472,-0.02646,2.13679,2.99193,0.47079,-0.21641,-3.53510,1.78487,0.27854,0.85757,0.37245,0.21972,-26.51032,-13.61311,-1.87040
0.05513,1.61640,-0.44174,-1.11962,0.87924,0.00849,1.99898,3.02389,0.42884,0.43934,-3.32126,2.75720,0.28685,0.85885,0.37577,0.19719,-13.95181,0.96331,0.05822
0.03978,1.62549,-0.43892,-1.11511,0.82700,0.05082,1.77966,2.89037,0.35777,0.46546,-4.26749,3.57132,0.29371,0.85969,0.37721,0.17997,-11.06774,-3.13328,-2.76745
0.02480,1.63363,-0.43507,-1.10557,0.77188,0.10074,1.57977,2.70960,0.28804,0.93814,-3.83910,3.59902,0.29979,0.86008,0.37817,0.16547,-19.04464,-14.35002,-3.57133
0.01022,1.64104,-0.43007,-1.09076,0.71604,0.15440,1.48685,2.58883,0.20978,1.13077,-4.00240,3.62963,0.30710,0.85934,0.38037,0.15012,-8.68036,-9.97019,-4.87034
-0.00397,1.64778,-0.42436,-1.07312,0.66188,0.20666,1.50985,2.54887,0.15390,1.42706,-3.68334,3.44863,0.31540,0.85743,0.38447,0.13240,-0.93117,-3.65795,-5.11687
-0.01766,1.65394,-0.41840,-1.05208,0.61144,0.25298,1.55636,2.53772,0.10126,1.62397,-3.55850,2.99098,0.32417,0.85478,0.38897,0.11391,2.84960,-1.06751,-4.35845
-0.03087,1.65958,-0.41233,-1.02807,0.56430,0.29189,1.59925,2.57104,0.04930,1.81317,-3.26923,2.50560,0.33356,0.85170,0.39299,0.09434,2.50707,1.95383,-4.25366
-0.04363,1.66468,-0.40614,-1.00244,0.51922,0.32383,1.61320,2.63312,0.00341,1.88140,-3.28120,2.08916,0.34324,0.84849,0.39595,0.07395,1.51082,4.80633,-2.80807
-0.05597,1.66923,-0.39995,-0.97590,0.47545,0.34961,1.58061,2.70296,-0.04454,1.93058,-3.10936,1.67344,0.35319,0.84530,0.39731,0.05352,-1.64431,5.07744,-3.27233
-0.06794,1.67338,-0.39367,-0.94971,0.43508,0.37197,1.49857,2.75011,-0.06181,1.96247,-2.75196,1.73829,0.36220,0.84259,0.39714,0.03362,-5.49968,4.89727,-0.72701
-0.07966,1.67725,-0.38692,-0.92525,0.39905,0.39705,1.35010,2.68275,-0.01737,1.84534,-2.59580,2.10016,0.36818,0.84108,0.39593,0.01661,-8.56663,-2.14228,3.31943
-0.09115,1.68065,-0.37970,-0.90269,0.36414,0.42535,1.17230,2.51111,0.05384,1.65599,-2.48290,2.08922,0.37156,0.84047,0.39441,0.00309,-12.20459,-12.60435,6.25644
-0.10190,1.68329,-0.37211,-0.87252,0.32450,0.45759,1.07070,2.39156,0.08185,1.94771,-2.54542,1.93924,0.37579,0.83893,0.39351,-0.01084,-7.24753,-9.18438,3.56972
-0.11228,1.68557,-0.36444,-0.84263,0.28741,0.48326,0.99141,2.33012,0.06943,2.20804,-2.83160,1.82963,0.38126,0.83679,0.39215,-0.02528,-4.72408,-4.30797,0.21808
-0.12231,1.68739,-0.35653,-0.81297,0.25150,0.50595,0.93244,2.31859,0.03740,1.90559,-2.24930,1.41350,0.38760,0.83417,0.39028,-0.04025,-6.64749,-3.79125,-1.46369
-0.13236,1.68910,-0.34857,-0.78937,0.22230,0.52556,1.04243,2.45270,0.03983,1.43408,-1.68438,1.20286,0.39479,0.82943,0.39050,-0.06085,4.31147,7.16046,-1.81743
-0.14219,1.69065,-0.34048,-0.76703,0.19658,0.54260,1.17513,2.64903,0.09945,1.61153,-1.56436,1.03902,0.40131,0.82409,0.39064,-0.08507,10.29883,13.43669,2.83524
-0.15183,1.69245,-0.33233,-0.74923,0.17960,0.55216,1.15037,2.68066,0.15614,1.69298,-1.71894,0.83158,0.40613,0.82027,0.38883,-0.10504,3.13049,6.58200,4.71162
-0.16099,1.69378,-0.32415,-0.72757,0.15828,0.55946,0.99262,2.59698,0.22928,1.63735,-1.63817,0.25244,0.40909,0.81853,0.38476,-0.12088,-7.35935,-7.78244,3.68191
-0.16941,1.69507,-0.31613,-0.69874,0.14141,0.56256,0.78387,2.57279,0.40626,2.50935,-1.09289,0.26915,0.40951,0.81900,0.37741,-0.13820,-15.47048,1.48854,17.96861
-0.17728,1.69587,-0.30788,-0.66832,0.12161,0.56856,0.54171,2.35686,0.56843,2.27492,-1.79157,0.68274,0.40734,0.82120,0.37045,-0.14988,-11.98449,-12.93871,12.46968
-0.18481,1.69614,-0.29922,-0.63904,0.09792,0.57997,0.32652,2.07438,0.71331,1.96741,-1.56422,0.86180,0.40342,0.82445,0.36396,-0.15832,-16.67203,-22.54887,13.56980
-0.19208,1.69603,-0.29026,-0.61252,0.07341,0.59385,0.28587,1.90629,0.82589,1.57456,-1.64392,0.80831,0.39961,0.82589,0.35989,-0.16943,-4.09677,-15.63286,8.42590
-0.19899,1.69548,-0.28128,-0.58615,0.04816,0.60451,0.35926,1.89026,0.88240,1.91906,-1.74916,0.57733,0.39732,0.82504,0.35703,-0.18431,4.92657,-3.30754,5.04361
-0.20537,1.69452,-0.27233,-0.55729,0.02196,0.61232,0.43083,1.87457,0.89644,2.13426,-2.07404,0.49854,0.39563,0.82347,0.35464,-0.19903,6.77052,1.00534,0.14572
-0.21136,1.69314,-0.26356,-0.52841,-0.00543,0.61585,0.43004,1.81494,0.91033,2.20029,-1.93657,0.04421,0.39349,0.82270,0.35136,-0.21182,1.65415,-4.29876,1.11035
-0.21673,1.69155,-0.25506,-0.49604,-0.02926,0.61401,0.38506,1.73840,0.92508,2.50151,-1.59245,-0.24641,0.39112,0.82252,0.34726,-0.22335,-1.95307,-4.39040,0.66667
-0.22097,1.68951,-0.24683,-0.45113,-0.05567,0.60808,0.28171,1.57340,0.96088,2.66055,-1.40481,-0.33828,0.38745,0.82389,0.34256,-0.23181,-4.97727,-8.87183,2.02248
-0.22501,1.68778,-0.23847,-0.41731,-0.07207,0.60473,0.23685,1.46445,0.95408,2.73472,-1.29712,-0.27886,0.38451,0.82436,0.33860,-0.24070,-4.59456,-11.51386,2.30657
-0.22610,1.68574,-0.22957,-0.36995,-0.09158,0.60369,0.30864,1.48125,0.82859,2.61140,-1.18550,-0.18204,0.38476,0.82166,0.33669,-0.25195,1.35736,-2.98275,-6.35441
-0.22723,1.68368,-0.22091,-0.32956,-0.10663,0.60178,0.46453,1.67157,0.63430,2.64348,-1.05832,-0.38776,0.38859,0.81521,0.33583,-0.26767,8.90684,11.26207,-14.94887
-0.22792,1.68136,-0.21275,-0.28068,-0.12199,0.59462,0.68592,2.01524,0.34829,2.90882,-0.94623,-0.54380,0.39695,0.80415,0.33597,-0.28794,11.61116,23.09739,-19.35546
-0.22952,1.67895,-0.20499,-0.24192,-0.13382,0.58578,0.76741,2.18774,0.15607,3.01345,-0.93281,-0.66601,0.40407,0.79472,0.33475,-0.30510,6.21666,17.51141,-15.48433
-0.23077,1.67648,-0.19744,-0.20631,-0.14413,0.57563,0.74205,2.18715,0.06246,2.66302,-0.78653,-0.72176,0.40913,0.78775,0.33260,-0.31848,-1.02792,3.11661,-8.41359
-0.23142,1.67396,-0.19010,-0.16826,-0.15273,0.56409,0.65434,2.04574,0.03890,2.42875,-0.38748,-0.69921,0.41218,0.78319,0.33011,-0.32824,-5.77902,-7.26222,-1.50054
-0.23220,1.67163,-0.18274,-0.14178,-0.15617,0.55570,0.59930,1.92062,0.03472,2.09298,-0.15561,-0.71521,0.41456,0.77878,0.32798,-0.33775,-5.31974,-11.27468,-0.59225
-0.23261,1.66941,-0.17550,-0.11594,-0.15686,0.54754,0.58802,1.85979,0.01796,2.10195,0.16195,-0.63392,0.41722,0.77349,0.32621,-0.34818,-3.10551,-7.26231,-0.18581
-0.23197,1.66736,-0.16837,-0.07822,-0.15469,0.53935,0.65018,1.78867,-0.02942,2.00439,0.25580,-0.38388,0.41979,0.76715,0.32665,-0.35854,2.46323,-3.79245,-3.56000
-0.23170,1.66544,-0.16114,-0.05507,-0.15055,0.53454,0.71096,1.73787,-0.04825,1.96127,0.51171,-0.42597,0.42175,0.76074,0.32714,-0.36929,4.79132,-3.87345,-2.36070
-0.23091,1.66384,-0.15398,-0.02899,-0.14229,0.53004,0.79024,1.61906,-0.02755,1.95455,0.58344,-0.26221,0.42173,0.75517,0.32903,-0.37895,5.98793,-6.34882,-0.29438
-0.22985,1.66241,-0.14683,-0.00468,-0.13297,0.52612,0.83834,1.39851,0.03544,1.77023,0.68659,-0.35134,0.41946,0.75170,0.33178,-0.38591,4.38350,-14.96566,2.64655
-0.22834,1.66127,-0.13984,0.02216,-0.12095,0.52033,0.89741,1.13165,0.09975,1.62387,0.84570,-0.37043,0.41564,0.74924,0.33598,-0.39115,3.97207,-16.61920,3.56052
-0.22692,1.66023,-0.13289,0.04124,-0.10977,0.51526,0.96629,0.89222,0.16259,1.13311,0.84243,-0.40736,0.41094,0.74704,0.34090,-0.39603,4.59861,-18.09591,2.84962
-0.22548,1.65937,-0.12605,0.05580,-0.09804,0.50814,1.05012,0.70628,0.20735,0.84536,0.88577,-0.62636,0.40582,0.74445,0.34656,-0.40124,6.70728,-14.11721,2.36879
-0.22411,1.65872,-0.11962,0.06595,-0.08576,0.49695,1.13905,0.57388,0.23772,0.49005,0.88773,-0.92338,0.40052,0.74146,0.35265,-0.40678,6.59822,-11.07089,1.38873
-0.22282,1.65819,-0.11364,0.07258,-0.07444,0.48204,1.22449,0.50525,0.25701,0.42892,0.79802,-1.16691,0.39540,0.73783,0.35865,-0.41308,6.00963,-5.54335,0.90137
-0.22154,1.65763,-0.10781,0.07695,-0.06657,0.46706,1.26550,0.40392,0.26877,0.38369,0.37608,-1.33846,0.39004,0.73485,0.36480,-0.41807,5.82300,-5.87537,-0.24075
-0.22032,1.65701,-0.10273,0.07942,-0.06141,0.44301,1.23344,0.19018,0.31186,0.13440,0.23359,-1.73660,0.38322,0.73456,0.37076,-0.41965,-0.80763,-13.84975,2.09106
-0.21903,1.65637,-0.09814,0.08273,-0.05770,0.41584,1.17467,0.08133,0.29818,0.12849,0.22485,-2.01871,0.37834,0.73344,0.37583,-0.42151,-3.80349,-10.48921,-0.78501
-0.21764,1.65568,-0.09387,0.08675,-0.05588,0.39021,1.13985,0.05956,0.23188,0.27566,0.19552,-2.21503,0.37521,0.73080,0.38105,-0.42420,-3.22490,-3.37702,-3.98778
-0.21601,1.65509,-0.09057,0.09381,-0.05274,0.35426,1.12370,0.16448,0.09163,0.36577,0.31231,-2.16082,0.37520,0.72554,0.38614,-0.42861,-2.16102,5.16379,-8.07163
-0.21426,1.65446,-0.08728,0.10139,-0.05102,0.32625,1.14659,0.28547,-0.05384,0.67342,-0.14766,-1.98518,0.37597,0.71883,0.39197,-0.43392,2.14364,11.21497,-9.66400
-0.21241,1.65370,-0.08433,0.10900,-0.05171,0.29910,1.11845,0.29903,-0.17639,0.65602,0.05891,-1.96318,0.37668,0.71342,0.39786,-0.43686,-1.77372,3.18671,-8.67160
-0.21050,1.65305,-0.08153,0.11557,-0.05058,0.27626,1.08914,0.27264,-0.26455,0.57601,0.06914,-1.90896,0.37696,0.70859,0.40394,-0.43890,-2.23676,-0.42603,-8.23425
-0.20837,1.65261,-0.07940,0.12435,-0.04596,0.24739,1.06007,0.21029,-0.36618,0.65119,0.56621,-1.70339,0.37753,0.70398,0.41077,-0.43948,-2.77523,-3.84489,-6.15141
-0.20612,1.65243,-0.07712,0.13305,-0.03818,0.22802,1.06857,0.15371,-0.44827,0.83909,0.77532,-1.61157,0.37767,0.69898,0.41838,-0.44017,0.17979,-2.35538,-7.66118
-0.20354,1.65281,-0.07541,0.14541,-0.02288,0.20341,1.06230,0.04442,-0.52193,0.89355,1.15776,-1.47742,0.37734,0.69485,0.42660,-0.43910,-1.20142,-7.19572,-4.53900
-0.20060,1.65337,-0.07372,0.16102,-0.00795,0.18415,1.07937,-0.00609,-0.60216,1.23416,0.96470,-1.28455,0.37757,0.68967,0.43512,-0.43871,1.23811,-3.56969,-6.15351
-0.19728,1.65400,-0.07214,0.17935,0.00463,0.16740,1.07586,-0.10096,-0.68682,1.57497,0.86841,-1.11595,0.37778,0.68506,0.44420,-0.43664,0.22142,-4.92784,-6.33689
-0.19355,1.65471,-0.07050,0.20005,0.01549,0.15602,1.07488,-0.22081,-0.78878,1.93210,0.98360,-0.83572,0.37806,0.68057,0.45428,-0.43303,-0.92876,-8.36360,-7.34245
-0.18911,1.65572,-0.06891,0.22718,0.02855,0.14642,1.10426,-0.31719,-0.92360,1.88475,1.09515,-0.55948,0.37901,0.67500,0.46575,-0.42873,0.51850,-8.11791,-10.56145
-0.18402,1.65716,-0.06745,0.25930,0.04599,0.13677,1.16734,-0.40771,-1.05952,2.20412,1.13529,-0.63064,0.37974,0.66853,0.47850,-0.42415,4.36143,-4.34904,-8.59640
-0.17908,1.65850,-0.06590,0.28120,0.05736,0.13109,1.19544,-0.49441,-1.13724,2.32815,1.07319,-0.57579,0.37987,0.66276,0.49066,-0.41918,2.74193,-7.01948,-8.65878
-0.17279,1.66016,-0.06461,0.31948,0.07102,0.12253,1.24711,-0.63134,-1.28248,2.56898,0.67756,-0.40557,0.38024,0.65625,0.50525,-0.41167,2.63952,-8.66965,-9.30949
-0.16594,1.66148,-0.06313,0.35896,0.07632,0.11875,1.31038,-0.74791,-1.46320,3.08024,0.11685,-0.16464,0.38135,0.64849,0.52105,-0.40315,4.24505,-7.35637,-11.83703
-0.15832,1.66247,-0.06155,0.40181,0.07507,0.11756,1.36258,-0.88051,-1.69118,3.09631,-0.16171,-0.06895,0.38337,0.63986,0.53830,-0.39223,3.65464,-9.25930,-16.60710
-0.15001,1.66337,-0.06000,0.44617,0.07280,0.11623,1.42399,-0.94189,-1.93213,3.14421,-0.13027,-0.03057,0.38680,0.62927,0.55600,-0.38114,4.45404,-4.50637,-17.30540
-0.14144,1.66425,-0.05840,0.48403,0.07064,0.11596,1.52788,-0.94111,-2.15054,3.00801,-0.07634,0.03757,0.39071,0.61636,0.57437,-0.37087,7.08981,-0.97551,-17.44765
-0.13187,1.66507,-0.05681,0.52913,0.06802,0.11556,1.68369,-0.92220,-2.38239,2.71022,-0.16987,-0.05058,0.39497,0.60067,0.59432,-0.36052,11.23345,2.31484,-14.54520
-0.12241,1.66595,-0.05518,0.56317,0.06682,0.11597,1.78702,-0.99849,-2.54150,2.35394,-0.19593,0.06430,0.39721,0.58623,0.61422,-0.34826,8.54746,-3.12933,-12.10911
-0.11290,1.66662,-0.05335,0.59012,0.06260,0.11945,1.85568,-1.18348,-2.65545,1.80579,-0.49274,0.37258,0.39690,0.57308,0.63479,-0.33330,3.78293,-11.14272,-9.62822
-0.10332,1.66676,-0.05120,0.61253,0.05025,0.12762,1.92741,-1.47901,-2.77537,1.20749,-1.12000,0.56181,0.39384,0.56025,0.65713,-0.31494,2.84503,-16.86800,-8.94320
-0.09418,1.66643,-0.04895,0.62261,0.03293,0.13560,1.90780,-1.85062,-2.86951,0.56838,-1.50658,0.56452,0.38855,0.54960,0.67910,-0.29290,-2.82370,-23.18464,-9.83896
-0.08542,1.66561,-0.04652,0.62400,0.01144,0.14467,1.81927,-2.29933,-2.98238,-0.20963,-1.68639,0.69982,0.38103,0.54071,0.70120,-0.26602,-10.17447,-28.64516,-12.57568
-0.07711,1.66432,-0.04386,0.61757,-0.01289,0.15549,1.77226,-2.68212,-3.09118,-0.75850,-1.63978,0.89820,0.37216,0.53073,0.72334,-0.23792,-8.98830,-27.26517,-12.35200
-0.06912,1.66267,-0.04103,0.60728,-0.03750,0.16655,1.85206,-2.93193,-3.19544,-1.12518,-1.62089,0.75117,0.36269,0.51698,0.74605,-0.21117,0.35547,-20.24510,-10.19851
-0.06158,1.66067,-0.03827,0.59185,-0.06220,0.17385,2.01580,-3.03181,-3.22315,-1.42442,-1.68505,0.38771,0.35287,0.50023,0.76806,-0.18799,8.91825,-10.92464,-3.13491
-0.05439,1.65836,-0.03570,0.57444,-0.08636,0.17627,2.23718,-3.05062,-3.20505,-1.30931,-1.66617,-0.00067,0.34246,0.48073,0.78966,-0.16748,13.68127,-5.75405,2.96653
-0.04740,1.65576,-0.03340,0.55764,-0.10948,0.17367,2.41469,-3.06088,-3.16214,-1.13489,-1.80927,-0.42350,0.33131,0.46059,0.81013,-0.14759,14.28320,-3.68991,5.88941
-0.04048,1.65299,-0.03131,0.54386,-0.12995,0.16817,2.46952,-3.11357,-3.16007,-1.00893,-1.96447,-0.59071,0.31980,0.44154,0.82891,-0.12525,5.92147,-4.75460,2.85594
-0.03400,1.64930,-0.02964,0.52591,-0.16091,0.15716,2.42325,-3.22634,-3.24076,-1.23296,-2.22233,-0.90046,0.30790,0.42336,0.84629,-0.09876,-2.37539,-5.43262,-6.22221
-0.02799,1.64481,-0.02840,0.50362,-0.19910,0.14096,2.34099,-3.31727,-3.38548,-1.47215,-2.69928,-1.17828,0.29675,0.40479,0.86210,-0.06981,-3.86618,-3.69924,-9.12267
-0.02185,1.64042,-0.02719,0.48908,-0.22598,0.12847,2.31736,-3.33174,-3.52614,-1.54570,-2.64505,-1.32537,0.28662,0.38415,0.87670,-0.04102,-3.21663,-1.92379,-14.46444
-0.01638,1.63464,-0.02683,0.46736,-0.26907,0.10495,2.47048,-3.20893,-3.65526,-1.48216,-2.31415,-1.50908,0.27900,0.35801,0.89094,-0.01491,8.97541,5.57477,-7.45550
-0.01087,1.62863,-0.02684,0.45068,-0.30697,0.08012,2.86226,-2.97149,-3.53462,-1.06201,-1.97969,-1.57640,0.27109,0.32644,0.90551,0.00153,23.47767,7.88680,10.63239
-0.00518,1.62287,-0.02688,0.44060,-0.33191,0.06066,3.22103,-2.77645,-3.29646,-0.88482,-1.90836,-1.61204,0.26162,0.29413,0.91916,0.01361,27.52514,6.26816,23.84261
0.00020,1.61637,-0.02759,0.42812,-0.36361,0.03445,3.68254,-2.58070,-2.87985,-0.76263,-2.07172,-1.71496,0.25046,0.25846,0.93283,0.01743,26.66554,1.42582,32.28214
0.00545,1.60964,-0.02851,0.41585,-0.39231,0.01056,3.99411,-2.47209,-2.53269,-1.00107,-2.28848,-1.83423,0.23811,0.22370,0.94488,0.02156,20.32705,-1.43406,30.64063
0.01033,1.60251,-0.02970,0.40057,-0.42029,-0.01198,4.19991,-2.41600,-2.33170,-1.37569,-2.79109,-2.02300,0.22559,0.18873,0.95536,0.02776,15.46183,-3.60276,23.77246
0.01424,1.59401,-0.03187,0.37237,-0.46491,-0.04566,4.48514,-2.34956,-2.27462,-1.95619,-3.09332,-2.15363,0.21422,0.14907,0.96470,0.03538,16.11042,0.13620,8.10293
0.01747,1.58508,-0.03430,0.33884,-0.50679,-0.07626,4.80982,-2.35830,-2.26241,-2.81798,-2.91719,-2.03418,0.20117,0.10587,0.97284,0.04371,21.69428,-1.94836,3.42599
0.01985,1.57606,-0.03694,0.29947,-0.53952,-0.10261,5.08988,-2.46772,-2.24174,-3.75967,-2.48985,-2.22658,0.18474,0.06130,0.97949,0.05206,23.49930,-10.32939,3.71420
0.01978,1.56678,-0.04070,0.22803,-0.56866,-0.14180,5.30035,-2.68740,-2.27529,-5.24886,-1.26469,-2.78727,0.16430,0.01617,0.98430,0.06239,12.94714,-14.90772,-3.36107
0.01808,1.55848,-0.04523,0.14487,-0.57490,-0.18554,5.47782,-3.03110,-2.18919,-6.87032,0.81096,-2.99603,0.13829,-0.02879,0.98748,0.07016,8.27554,-18.78670,-5.56969
0.01407,1.55147,-0.05083,0.04210,-0.55760,-0.23693,5.75365,-3.80513,-1.71087,-8.34427,2.63851,-3.37975,0.09625,-0.07614,0.99021,0.06642,8.58589,-52.69309,11.64776
0.00764,1.54635,-0.05769,-0.07719,-0.51204,-0.29742,5.93528,-4.96863,-1.11026,-8.75010,4.36209,-4.76050,0.03690,-0.12244,0.99022,0.05584,2.25349,-92.20895,16.64439
-0.00064,1.54362,-0.06574,-0.19926,-0.43698,-0.36380,5.84892,-6.15694,-0.77248,-8.56795,6.18169,-5.02236,-0.03113,-0.16303,0.98494,0.04847,-10.41808,-90.35593,-5.04121
-0.00953,1.54268,-0.07423,-0.30107,-0.35095,-0.42077,5.54623,-7.12909,-0.72096,-8.33399,8.03589,-5.09655,-0.10143,-0.19682,0.97407,0.04646,-16.63610,-79.15659,-27.00574
-0.02063,1.54565,-0.08444,-0.41407,-0.22171,-0.49235,4.92584,-8.12472,-0.93027,-7.66072,10.46222,-5.98225,-0.17995,-0.21864,0.95773,0.05065,-28.21157,-63.82452,-50.51398
-0.03262,1.55263,-0.09659,-0.51551,-0.05635,-0.57927,4.12028,-8.88186,-1.42691,-6.40204,13.26992,-7.27805,-0.25856,-0.22936,0.93625,0.06304,-29.50978,-41.93568,-69.08314
-0.04453,1.56417,-0.11100,-0.59231,0.14566,-0.68324,3.23533,-9.27964,-2.18444,-4.07008,15.72864,-8.35297,-0.33237,-0.22973,0.91080,0.08480,-24.57416,-14.54113,-83.37714
-0.05519,1.58212,-0.12883,-0.63096,0.41045,-0.82177,2.26787,-9.47575,-3.14011,-0.49935,17.86464,-9.49822,-0.40345,-0.21854,0.88113,0.11430,-17.41849,5.55866,-85.07803
-0.06312,1.60113,-0.14750,-0.61622,0.63131,-0.94186,1.63097,-9.56912,-3.83762,3.01424,19.54341,-10.74705,-0.47054,-0.20827,0.84579,0.14093,-11.44183,7.57951,-80.63883
-0.06612,1.62986,-0.17175,-0.52169,0.96259,-1.12690,0.90678,-9.73186,-4.75574,8.89451,22.51338,-12.39099,-0.53937,-0.18648,0.80262,0.17352,-4.55475,5.93871,-73.20893
-0.06472,1.66008,-0.19659,-0.37740,1.24125,-1.27854,0.29077,-9.88920,-5.38841,14.45813,24.34150,-12.72518,-0.60524,-0.16190,0.75327,0.20013,-8.11328,-2.06205,-67.24811
-0.05695,1.69517,-0.22410,-0.16713,1.52662,-1.43391,-0.02157,-10.12189,-6.00328,23.27680,25.66607,-12.71438,-0.66946,-0.13795,0.69300,0.22924,6.70947,-25.17994,-90.86266
-0.02904,1.74557,-0.25625,0.32811,2.00042,-1.63048,-0.50369,-9.63033,-6.68203,32.32178,25.16208,-8.79240,-0.71517,-0.10133,0.64059,0.26060,6.79325,36.10905,-45.26437
0.00020,1.79082,-0.28381,0.73609,2.28709,-1.70983,-0.62358,-9.21425,-7.11723,36.37078,22.97038,-4.46905,-0.75438,-0.07115,0.58414,0.29091,26.95408,26.23627,-33.78197
0.04340,1.84089,-0.30930,1.27178,2.58192,-1.73584,-1.04496,-8.88769,-7.76335,40.78192,20.64718,0.54896,-0.79043,-0.02656,0.52190,0.31959,19.92373,25.33705,-43.57511
0.10327,1.89400,-0.33003,1.96812,2.86328,-1.67732,-1.89812,-8.64941,-8.91103,46.53751,15.48618,6.54335,-0.82293,0.04227,0.44864,0.34601,0.27964,22.91323,-81.82143
0.17199,1.94437,-0.34485,2.66089,3.03761,-1.53250,-2.85215,-8.05243,-9.96612,53.64530,10.29694,14.23737,-0.84244,0.12261,0.37738,0.36447,1.25092,28.27813,-97.19566
0.23105,1.98342,-0.35316,3.29447,3.12176,-1.33565,-3.42115,-7.20363,-11.17723,53.63287,3.51153,19.04988,-0.84388,0.21130,0.30585,0.38688,36.26635,55.38649,-112.09490
0.28660,2.02027,-0.35915,4.15737,3.11419,-0.97838,-3.46022,-5.85862,-12.94296,55.70724,-5.56390,26.72310,-0.81642,0.31638,0.23591,0.42156,78.10357,25.64877,-109.92430
0.35144,2.05209,-0.35680,4.92685,2.98288,-0.56746,-2.55407,-4.67299,-14.38854,54.17225,-14.74190,32.77610,-0.76600,0.40811,0.16773,0.46750,116.34270,-7.73232,-87.20248
0.42519,2.07814,-0.34680,5.57370,2.75746,-0.14025,-1.13731,-3.97711,-15.23818,55.74277,-25.12910,41.41383,-0.70108,0.47923,0.09925,0.51863,99.49246,-70.60901,-62.36018
0.50920,2.09023,-0.31760,6.35106,2.33475,0.50104,1.51871,-3.26737,-16.12729,55.11784,-37.50302,50.64771,-0.59732,0.53521,0.04258,0.59577,162.73090,-126.03990,-20.26208
0.60263,2.07396,-0.25595,7.30164,1.44244,1.52709,4.79645,-2.85072,-17.96568,51.87866,-64.47957,64.59617,-0.43885,0.58836,-0.02424,0.67872,126.94390,-142.22150,-84.66369
0.70217,2.04434,-0.19001,7.84633,0.51392,2.34950,7.08109,-1.91376,-19.96506,43.42125,-93.75111,72.42424,-0.25247,0.64441,-0.08893,0.71630,136.43070,-126.00110,-138.82740
0.79521,1.96199,-0.10139,8.19365,-1.07964,3.38083,10.19989,0.52879,-22.66478,6.77773,-138.31310,75.27805,0.00566,0.70152,-0.12592,0.70141,234.38710,-80.72462,-206.57950
0.85211,1.82191,-0.00771,7.88106,-3.26580,4.34176,15.75433,2.84727,-23.13004,-55.88802,-176.47440,58.22958,0.29594,0.68991,-0.07897,0.65590,272.66030,-242.70850,-191.56890
0.88727,1.62874,0.07810,6.60823,-5.83604,4.84155,22.02441,2.92014,-20.93834,-126.70170,-186.58750,9.11155,0.55354,0.58539,0.03126,0.59156,117.18380,-349.69380,-294.10150
1.00327,1.37957,0.16532,4.33482,-8.22120,4.53633,29.65691,2.28987,-16.61450,-179.85200,-150.13040,-57.90039,0.76532,0.40439,0.22287,0.44842,116.00720,-307.35770,-435.01720
0.94532,1.15646,0.17170,1.53056,-9.78227,3.33748,39.65644,-0.60994,-8.79279,-194.52820,-67.91527,-114.00370,0.84336,0.10355,0.49796,0.17337,452.06720,-224.64870,-695.10510
0.82497,0.99936,0.11585,-0.90856,-10.08101,1.52346,39.77980,-9.46025,-4.51418,-153.90010,21.10132,-118.15630,0.74098,-0.20791,0.63617,0.05490,398.29490,63.51865,-790.50600
0.72588,0.91344,0.03518,-2.33828,-9.18090,-0.19131,27.93828,-11.22358,-9.61804,-66.72389,89.70609,-95.42637,0.73074,-0.33057,0.56121,0.20443,-205.58240,869.34940,-261.67400
0.67403,0.88106,-0.01502,-2.75307,-7.89284,-1.03361,18.73722,-4.51945,-12.02580,0.47167,91.67182,-30.86263,0.80530,-0.30657,0.41053,0.29830,-181.80870,805.74690,481.46040
0.63691,0.83825,-0.03543,-2.72592,-6.78713,-1.12960,13.61046,-1.71200,-7.97929,17.39027,72.83491,10.08377,0.83341,-0.23992,0.39782,0.29934,-262.62460,254.27460,464.06460
0.59871,0.79692,-0.03615,-2.72542,-5.91176,-0.89041,10.23474,-6.19569,-3.81521,-3.75982,57.56615,20.00388,0.75532,-0.25169,0.53580,0.28119,-423.69630,-298.66200,-4.94336
0.55244,0.75100,-0.03268,-2.85534,-5.31863,-0.63940,7.43595,-8.99968,-2.31076,-23.82686,44.96887,19.74557,0.66907,-0.28314,0.63042,0.27341,-296.92070,-316.85770,-96.17039
0.48912,0.72096,-0.02520,-3.24164,-4.60900,-0.38328,3.52196,-7.17529,-4.04155,-34.00124,42.91824,10.27533,0.63202,-0.30163,0.61585,0.36097,-165.55960,127.57030,-178.56770
0.42056,0.69157,-0.02232,-3.62882,-4.03976,-0.25997,1.22651,-1.89572,-6.37685,-27.27572,42.12911,5.95742,0.66292,-0.30370,0.50414,0.46276,-16.73625,403.53210,-147.95750
0.35050,0.67519,-0.01973,-3.95178,-3.37491,-0.16605,0.43046,3.09097,-8.46246,-9.23779,43.77703,6.93340,0.69629,-0.30821,0.35213,0.54424,101.57380,357.21220,-141.09860
0.29117,0.65855,-0.01644,-4.03553,-2.87481,-0.08500,0.45182,4.40605,-9.27660,1.88400,40.85651,7.83887,0.69359,-0.33497,0.25935,0.58264,71.64193,153.42060,-91.97189
0.24300,0.65457,-0.00892,-3.92112,-2.28064,0.04376,0.50914,3.99029,-9.07512,15.73907,32.92155,8.99292,0.67944,-0.36519,0.20959,0.60089,10.43514,-10.42743,-2.37787
0.20431,0.64633,0.00007,-3.66479,-1.88454,0.17825,-0.13858,2.56329,-7.82378,22.35502,22.76881,10.37334,0.65581,-0.38401,0.20838,0.61565,-60.65431,-69.01384,73.95872
0.17125,0.63492,0.01046,-3.38247,-1.63988,0.30310,-1.22743,1.43667,-6.57424,24.27191,17.27897,10.12747,0.62496,-0.39173,0.21960,0.63855,-105.95390,-59.57530,122.20740
0.14975,0.62521,0.02392,-2.97897,-1.42074,0.44865,-2.38971,0.93420,-4.25004,23.77951,12.53367,7.29338,0.60694,-0.36453,0.25159,0.65989,-77.76861,1.82582,157.01800
0.12842,0.61457,0.03530,-2.65180,-1.26377,0.53071,-2.63776,1.38911,-2.51466,21.23975,12.46390,3.85061,0.60567,-0.33054,0.25951,0.67569,-19.10929,43.12183,128.12980
0.10731,0.60533,0.04474,-2.40516,-1.12151,0.55938,-2.30495,2.19589,-1.35831,18.04781,13.40851,0.22084,0.61558,-0.29531,0.25041,0.68641,32.56279,73.42723,95.98174
0.08853,0.60103,0.05158,-2.18296,-0.93227,0.53833,-1.54464,3.02097,-0.68252,13.40508,14.80746,-3.38694,0.63423,-0.26353,0.22830,0.69006,65.11254,69.62435,44.53437
0.06917,0.60311,0.05500,-2.01467,-0.67898,0.46783,-0.82566,3.30878,-0.63908,8.48828,16.93450,-5.41523,0.64734,-0.24847,0.20283,0.69143,50.76563,24.82920,-0.55627
0.04762,0.60778,0.05692,-1.91955,-0.43808,0.38896,-0.39886,3.05783,-1.04549,5.97350,17.55899,-6.08642,0.65015,-0.25012,0.17939,0.69466,26.81164,-12.08425,-30.62416
0.02522,0.61436,0.05804,-1.85910,-0.22556,0.31771,-0.11712,2.50924,-1.52827,4.66231,18.09482,-5.94853,0.64825,-0.26218,0.15993,0.69675,15.77247,-39.13485,-38.06868
0.00372,0.62602,0.05802,-1.79560,0.01584,0.24570,0.14024,1.77486,-2.23011,4.77055,16.21642,-4.22520,0.64198,-0.28777,0.13929,0.69688,7.13922,-53.64795,-52.76651
-0.01494,0.64059,0.05886,-1.70255,0.25263,0.20298,0.07172,0.90525,-2.80924,6.85997,13.09929,-1.01229,0.62801,-0.31824,0.12573,0.69894,-10.89819,-55.28055,-39.68514
-0.03198,0.65301,0.06153,-1.60080,0.40028,0.20042,-0.15494,0.42817,-3.13691,9.42992,11.34027,0.79878,0.61213,-0.34096,0.11242,0.70456,-28.94362,-41.38379,-24.18951
-0.04260,0.66664,0.06652,-1.41267,0.53069,0.23750,-0.53365,0.45127,-3.24492,12.93934,5.59058,3.58132,0.59492,-0.35181,0.09633,0.71625,-24.24471,3.95598,-5.89764
-0.05048,0.67690,0.07286,-1.22129,0.57599,0.28892,-0.85965,0.71453,-3.16141,13.97318,0.86959,3.44092,0.57928,-0.35434,0.07922,0.72980,-24.02884,18.29415,-8.06539
-0.05602,0.68406,0.07968,-1.03573,0.56011,0.33591,-1.07575,0.83953,-2.73303,13.02048,-3.05834,2.94529,0.56803,-0.35182,0.07111,0.74062,-7.11696,16.62117,28.64507
-0.05980,0.68896,0.08627,-0.86238,0.51002,0.36744,-1.31398,0.75522,-2.13697,12.69485,-3.91769,1.10088,0.55731,-0.34802,0.07294,0.75032,-14.31704,6.99921,45.66826
-0.06090,0.69272,0.09173,-0.68656,0.45221,0.37297,-1.50317,0.42546,-1.53952,13.00268,-4.38384,-0.30193,0.54689,-0.34784,0.08270,0.75702,-14.14219,-15.75201,41.96632
-0.05796,0.69498,0.09653,-0.48035,0.38207,0.36646,-1.77181,0.00691,-0.77788,12.62105,-4.35861,-0.47394,0.53623,-0.34589,0.10299,0.76303,-17.49221,-21.52137,51.36381
-0.05545,0.69753,0.10112,-0.32585,0.33330,0.35733,-2.05986,-0.30790,-0.26607,12.80558,-4.63619,-0.56027,0.52264,-0.34474,0.12238,0.77008,-21.93682,-18.33975,44.41927
-0.04819,0.69808,0.10575,-0.12818,0.26110,0.35088,-2.37515,-0.51878,0.47332,11.90077,-4.00077,-0.44706,0.50992,-0.33675,0.15026,0.77718,-26.62068,-11.73019,52.08130
-0.04029,0.69821,0.11030,0.03678,0.19914,0.34494,-2.17944,-0.33598,0.76443,10.87236,-3.68791,-0.55071,0.50538,-0.32742,0.16210,0.78173,3.43609,10.56464,27.44416
-0.03065,0.69790,0.11473,0.18796,0.13903,0.33843,-1.67380,0.03477,0.80043,10.26054,-4.15324,-0.47774,0.50818,-0.31748,0.16252,0.78393,32.85092,26.65216,1.77223
-0.01947,0.69707,0.11904,0.32902,0.08337,0.33179,-1.17522,0.45792,0.81545,9.71375,-3.88526,-0.54104,0.51412,-0.30506,0.15937,0.78563,38.17202,31.41058,-1.61148
-0.00802,0.69610,0.12315,0.44128,0.04200,0.32355,-0.82422,0.79846,0.82784,9.07287,-3.29906,-0.85014,0.51956,-0.29185,0.15619,0.78771,27.65054,30.97353,-1.76693
0.00670,0.69451,0.12674,0.58152,-0.00397,0.30657,-0.46626,1.25052,0.82946,8.52949,-2.77372,-1.36017,0.52770,-0.27460,0.14895,0.78990,22.56615,29.86130,-2.80668
0.02174,0.69304,0.12974,0.69653,-0.03775,0.28350,-0.22782,1.58986,0.80899,7.91433,-2.41627,-1.94877,0.53454,-0.25768,0.14183,0.79231,17.32526,26.61598,-2.66510
0.03759,0.69089,0.13196,0.79956,-0.07056,0.25347,-0.04258,1.86603,0.79280,7.07230,-2.49959,-2.47695,0.54134,-0.24024,0.13438,0.79446,12.21318,21.98261,-3.57623
0.05509,0.68839,0.13306,0.90538,-0.11018,0.20980,0.17669,2.09718,0.78748,6.36575,-2.60936,-3.15090,0.54974,-0.22250,0.12619,0.79521,12.08611,16.06716,-1.73189
0.07206,0.68568,0.13380,0.97813,-0.14037,0.17134,0.34574,2.22329,0.83037,5.91766,-2.63535,-3.33488,0.55820,-0.20508,0.11983,0.79498,14.49144,12.64893,-0.22282
0.09028,0.68224,0.13350,1.05434,-0.17261,0.12489,0.45264,2.30570,0.92326,5.18899,-2.29589,-3.33639,0.56644,-0.18679,0.11519,0.79435,10.13460,7.62091,4.70902
0.10903,0.67875,0.13264,1.12145,-0.19953,0.07916,0.50055,2.33946,1.04330,4.60263,-1.84500,-3.31298,0.57389,-0.16818,0.11247,0.79355,5.01952,2.64451,7.88465
0.12849,0.67523,0.13109,1.18494,-0.22031,0.03257,0.55147,2.39344,1.15828,4.46866,-1.18007,-3.43411,0.58161,-0.14850,0.10972,0.79224,4.54259,2.66187,8.17120
0.14865,0.67182,0.12877,1.24581,-0.23198,-0.01476,0.59880,2.51450,1.21824,4.06651,-0.63028,-3.26907,0.58928,-0.12731,0.10489,0.79091,4.06697,8.35399,4.86428
0.16925,0.66863,0.12585,1.29974,-0.23768,-0.06074,0.60419,2.63816,1.29361,3.69089,-0.39727,-3.27980,0.59614,-0.10470,0.10028,0.78968,1.36225,9.06318,4.18940
0.18988,0.66553,0.12262,1.34111,-0.23947,-0.10035,0.60148,2.72859,1.41065,3.32897,-0.03604,-3.45488,0.60274,-0.08102,0.09715,0.78785,0.31567,7.18144,8.53861
0.21146,0.66283,0.11780,1.38859,-0.23230,-0.15719,0.61667,2.86195,1.59002,2.53243,0.93757,-3.60695,0.60979,-0.05421,0.09492,0.78499,2.48245,7.36268,12.34534
0.23273,0.66122,0.11222,1.42081,-0.21015,-0.21501,0.63131,3.01340,1.67217,1.41331,1.81185,-3.65286,0.61630,-0.02731,0.09041,0.78183,1.24949,9.53611,6.33496
0.25317,0.65972,0.10709,1.43129,-0.18952,-0.25081,0.60632,3.08322,1.69215,0.74732,2.28636,-3.55629,0.62134,-0.00203,0.08572,0.77884,-0.86625,8.56810,3.37903
0.27337,0.65998,0.10012,1.43538,-0.14455,-0.30767,0.52340,3.15945,1.71153,-0.20633,3.36770,-3.64065,0.62450,0.02404,0.08078,0.77647,-4.51905,4.10681,2.35371
0.29284,0.66130,0.09266,1.42626,-0.09199,-0.35950,0.43176,3.25732,1.64522,-1.33061,4.14386,-3.63175,0.62657,0.04963,0.07323,0.77433,-7.21075,5.67250,-0.58148
0.31125,0.66366,0.08472,1.40144,-0.03429,-0.40734,0.33537,3.35031,1.49558,-2.29016,4.24524,-3.21170,0.62766,0.07388,0.06291,0.77242,-9.07795,6.90280,-8.00898
0.32820,0.66750,0.07620,1.35713,0.03558,-0.45459,0.18872,3.40772,1.33225,-3.17187,4.54495,-2.69329,0.62680,0.09699,0.05165,0.77139,-10.84470,3.66893,-8.61528
0.34427,0.67205,0.06786,1.30758,0.10223,-0.48812,-0.00627,3.39848,1.23711,-3.82546,4.83848,-2.06046,0.62371,0.11954,0.04193,0.77132,-13.60022,-0.58982,-5.04478
0.35921,0.67756,0.05963,1.25035,0.17103,-0.51204,-0.24940,3.35862,1.15549,-4.36533,4.97129,-1.29690,0.61814,0.14130,0.03236,0.77258,-17.74587,-4.21866,-1.88884
0.37303,0.68410,0.05156,1.18814,0.24000,-0.52680,-0.53848,3.32561,1.07356,-4.63572,4.92098,-0.72875,0.60992,0.16261,0.02207,0.77528,-20.34422,-4.05439,-1.19503
0.38586,0.69150,0.04360,1.12341,0.30728,-0.53624,-0.84735,3.30608,0.96894,-4.77856,4.75824,-0.53733,0.59943,0.18328,0.01033,0.77909,-22.75599,-3.48384,-2.30836
0.39770,0.69953,0.03553,1.05755,0.37018,-0.54567,-1.13923,3.34288,0.80966,-4.89244,4.42744,-0.72576,0.58753,0.20358,-0.00445,0.78317,-22.58488,-0.46852,-5.31053
0.40906,0.70767,0.02720,1.00013,0.41875,-0.55635,-1.37232,3.41987,0.60462,-4.96828,3.88741,-0.89730,0.57519,0.22330,-0.02231,0.78664,-23.07483,3.63274,-10.45531
0.41842,0.71684,0.01837,0.92288,0.47237,-0.57272,-1.66416,3.53610,0.30042,-4.81027,2.93148,-1.15714,0.56037,0.24150,-0.04524,0.79096,-22.52065,5.35048,-15.89723
0.42742,0.72557,0.00940,0.85663,0.50844,-0.58912,-1.87955,3.57833,0.10663,-4.61228,2.16970,-1.39328,0.54522,0.25908,-0.06644,0.79448,-19.88972,2.35607,-12.04086
0.43608,0.73404,0.00022,0.80150,0.53135,-0.60524,-2.01476,3.57086,0.02663,-4.50159,1.54588,-1.51230,0.52995,0.27666,-0.08534,0.79707,-14.78372,-0.08360,-6.45612
0.44343,0.74257,-0.00941,0.73835,0.54957,-0.62469,-2.10590,3.49420,0.03802,-4.45539,0.93709,-1.51899,0.51424,0.29357,-0.10125,0.79945,-7.48852,-4.62125,1.67175
0.44944,0.75085,-0.01954,0.66643,0.55995,-0.64840,-2.13108,3.37459,0.12049,-4.52182,0.31650,-1.53007,0.49892,0.31016,-0.11412,0.80116,-1.15496,-6.40092,6.10464
0.45547,0.75869,-0.02967,0.61183,0.56064,-0.66545,-2.09220,3.27029,0.20165,-4.58972,-0.18812,-1.40029,0.48455,0.32666,-0.12593,0.80165,2.70901,-7.19635,6.43610
0.46056,0.76623,-0.03988,0.55649,0.55667,-0.67994,-2.02975,3.14666,0.29198,-4.67462,-0.48194,-1.12909,0.47067,0.34238,-0.13588,0.80173,6.38948,-8.56465,7.46688
0.46320,0.77324,-0.05044,0.47281,0.54423,-0.69683,-1.93001,2.97544,0.37789,-4.69684,-0.85055,-0.71471,0.45799,0.35654,-0.14371,0.80154,6.97209,-8.92073,5.01096
0.46604,0.78003,-0.06084,0.40918,0.52958,-0.70670,-1.88054,2.87595,0.38247,-4.55872,-1.13109,-0.59067,0.44476,0.37030,-0.15385,0.80087,4.81617,-7.93444,1.17767
0.46808,0.78637,-0.07131,0.34698,0.51103,-0.71566,-1.84827,2.80639,0.34094,-4.42864,-1.48593,-0.52989,0.43158,0.38337,-0.16511,0.79969,2.16704,-5.87690,-2.05818
0.46942,0.79214,-0.08179,0.28784,0.48687,-0.72259,-1.83836,2.77550,0.26555,-4.08232,-1.95442,-0.31348,0.41818,0.39607,-0.17777,0.79790,0.07343,-3.47229,-4.55408
0.47016,0.79731,-0.09224,0.23307,0.45743,-0.72624,-1.79808,2.75227,0.20244,-3.81273,-2.28112,-0.16929,0.40542,0.40867,-0.19018,0.79527,0.75360,-2.29458,-5.23639
0.47062,0.80215,-0.10260,0.18731,0.43031,-0.72788,-1.76134,2.74415,0.15018,-3.82835,-2.29959,0.02368,0.39267,0.42129,-0.20265,0.79199,3.35164,-1.34550,-4.47446
0.46966,0.80601,-0.11277,0.12841,0.39161,-0.72575,-1.74604,2.73948,0.03895,-3.60552,-2.56693,0.37420,0.38022,0.43279,-0.21683,0.78810,-0.05080,-0.78601,-6.40433
0.46849,0.80959,-0.12274,0.07975,0.35494,-0.71911,-1.69616,2.71192,-0.03325,-3.37526,-2.83690,0.58742,0.36844,0.44396,-0.22994,0.78376,0.14990,-1.74073,-6.78358
0.46668,0.81264,-0.13233,0.03159,0.31841,-0.70813,-1.57862,2.65116,-0.03940,-3.49173,-2.65450,0.97289,0.35812,0.45514,-0.24039,0.77898,7.83441,-3.67631,-2.18120
0.46496,0.81566,-0.14163,-0.00308,0.29270,-0.69716,-1.50249,2.59119,-0.04067,-3.47700,-2.58346,1.29411,0.34747,0.46580,-0.25056,0.77428,8.08361,-5.42506,-0.54199
0.46145,0.81754,-0.15025,-0.05651,0.25091,-0.67487,-1.41502,2.48336,-0.06826,-3.21538,-2.67047,1.60988,0.33822,0.47474,-0.26019,0.76976,5.19440,-7.20909,-1.99054
0.45754,0.81891,-0.15822,-0.10629,0.21033,-0.64738,-1.29757,2.36144,-0.07833,-3.04711,-2.46693,1.91493,0.33016,0.48322,-0.26847,0.76513,7.38254,-7.59046,-1.68847
0.45343,0.82024,-0.16586,-0.14809,0.17735,-0.62033,-1.23870,2.25187,-0.10119,-2.88340,-2.28730,2.13718,0.32157,0.49090,-0.27725,0.76075,5.51131,-7.97359,-0.99999
0.44922,0.82137,-0.17319,-0.18114,0.14945,-0.59526,-1.21887,2.15495,-0.14300,-2.63221,-2.39355,2.22730,0.31277,0.49768,-0.28672,0.75649,1.41577,-8.06403,-2.36194
0.44419,0.82151,-0.17950,-0.22007,0.11193,-0.55929,-1.12232,2.01087,-0.17275,-2.24302,-2.45212,2.29226,0.30633,0.50346,-0.29434,0.75236,4.09571,-8.94723,-2.47477
0.43875,0.82319,-0.18603,-0.24723,0.08652,-0.53241,-1.00913,1.89315,-0.16705,-1.99332,-2.28435,2.35830,0.30044,0.50968,-0.30059,0.74807,8.83792,-9.51378,-0.34613
0.43242,0.82461,-0.19176,-0.27898,0.05424,-0.49656,-0.83947,1.74299,-0.15666,-1.65412,-2.12609,2.35594,0.29686,0.51528,-0.30487,0.74392,10.68222,-9.69518,0.22627
0.42677,0.82472,-0.19701,-0.30145,0.02690,-0.46520,-0.67126,1.61821,-0.14991,-1.38851,-2.00039,2.26985,0.29417,0.52096,-0.30854,0.73951,11.80440,-9.13420,0.00710
0.42100,0.82444,-0.20186,-0.32031,0.00109,-0.43499,-0.51604,1.51166,-0.14784,-1.11815,-1.85545,2.21103,0.29218,0.52658,-0.31174,0.73496,11.37670,-8.15799,-0.58840
0.41521,0.82387,-0.20633,-0.33527,-0.02338,-0.40559,-0.38703,1.42354,-0.16712,-0.84627,-1.74533,2.17584,0.29077,0.53193,-0.31515,0.73020,9.68486,-7.10589,-1.70087
0.40963,0.82273,-0.21033,-0.34593,-0.04622,-0.37656,-0.27001,1.34443,-0.20286,-0.59533,-1.58344,2.12711,0.29017,0.53696,-0.31862,0.72523,8.31209,-5.64199,-2.86470
0.40396,0.82159,-0.21394,-0.35375,-0.06609,-0.34783,-0.17897,1.28560,-0.24112,-0.35854,-1.33785,2.13806,0.28973,0.54195,-0.32225,0.72007,7.13167,-4.89227,-3.00578
0.39839,0.82036,-0.21713,-0.35838,-0.08277,-0.31913,-0.13098,1.22524,-0.29341,-0.18993,-1.09300,2.08628,0.28930,0.54618,-0.32657,0.71508,3.93254,-4.30655,-4.03091
0.39300,0.81884,-0.21993,-0.36071,-0.09652,-0.29144,-0.12522,1.17820,-0.35031,-0.01838,-0.87391,1.98373,0.28845,0.54992,-0.33173,0.71017,0.55779,-3.59657,-4.51149
0.38775,0.81734,-0.22235,-0.36027,-0.10662,-0.26453,-0.12991,1.13340,-0.39282,0.18142,-0.63600,1.90077,0.28746,0.55335,-0.33691,0.70545,-0.25529,-3.29552,-3.67421
0.38264,0.81587,-0.22488,-0.35877,-0.11145,-0.24606,-0.14129,1.10501,-0.41669,0.24271,-0.40494,1.85923,0.28611,0.55686,-0.34207,0.70075,-0.85218,-3.11278,-2.35388
0.37767,0.81460,-0.22626,-0.35386,-0.11558,-0.21337,-0.20994,1.05820,-0.44370,0.41254,-0.11244,1.83724,0.28384,0.55911,-0.34817,0.69685,-4.01854,-2.62297,-1.37277
0.37282,0.81368,-0.22766,-0.34744,-0.11500,-0.18760,-0.27308,1.00594,-0.44322,0.60358,0.04307,1.83271,0.28114,0.56113,-0.35383,0.69347,-5.11142,-3.08333,-0.57497
0.36814,0.81269,-0.22910,-0.34133,-0.11259,-0.16899,-0.29619,0.95447,-0.42046,0.67982,0.20530,1.84763,0.27873,0.56329,-0.35845,0.69031,-3.08753,-4.18929,1.59122
0.36402,0.81179,-0.22941,-0.32864,-0.10706,-0.13680,-0.30889,0.84408,-0.37024,0.78029,0.28207,1.72163,0.27664,0.56427,-0.36167,0.68867,-0.77992,-6.21114,2.94806
0.35997,0.81083,-0.22984,-0.31744,-0.10349,-0.11345,-0.31265,0.76519,-0.33988,0.91976,0.18150,1.61032,0.27472,0.56541,-0.36503,0.68672,-0.22655,-5.99785,2.86276
0.35633,0.80979,-0.22992,-0.30191,-0.10162,-0.08917,-0.30915,0.68302,-0.31759,1.04434,0.02604,1.44150,0.27318,0.56616,-0.36816,0.68505,-0.05577,-5.29920,1.44123
0.35289,0.80867,-0.23001,-0.28702,-0.10164,-0.07024,-0.31158,0.62376,-0.32570,1.11578,-0.07003,1.30236,0.27191,0.56675,-0.37191,0.68304,-0.07106,-4.34014,-0.16988
