posX, posY, posZ, velX, velY, velZ, angVelX, angVelY, angVelZ, accX, accY, accZ, rotX, rotY, rotZ, rotW, angAccX, angAccY, angAccZ
-0.13881,1.52850,-0.54353,-0.18212,0.09750,0.05977,0.13547,0.15578,0.32976,-0.24127,-0.86415,-0.85758,0.40844,0.86186,0.29904,0.03089,-8.16122,-2.40310,2.68605
-0.14134,1.52874,-0.54337,-0.18352,0.08234,0.04760,0.08697,0.19221,0.32903,-0.07900,-0.87526,-0.77356,0.40710,0.86307,0.29761,0.02856,-3.83235,1.82305,0.47211
-0.14385,1.52895,-0.54315,-0.18388,0.06923,0.03904,0.09097,0.22193,0.31000,-0.05341,-0.93007,-0.61613,0.40634,0.86360,0.29735,0.02578,-0.31515,2.36833,-1.26306
-0.14634,1.52906,-0.54300,-0.18363,0.05728,0.03203,0.10561,0.25913,0.27666,0.02763,-1.03130,-0.62194,0.40626,0.86377,0.29722,0.02262,1.68799,2.86710,-2.26157
-0.14878,1.52856,-0.54318,-0.18307,0.03971,0.02059,0.06274,0.27113,0.23955,0.06497,-1.20692,-0.86219,0.40630,0.86428,0.29583,0.02074,-1.46497,0.98740,-2.88849
-0.15119,1.52804,-0.54365,-0.18179,0.02489,0.00778,-0.02706,0.27209,0.20986,0.16944,-1.28724,-1.23673,0.40618,0.86533,0.29296,0.01989,-6.01318,-0.02250,-2.01362
-0.15345,1.52717,-0.54474,-0.17791,0.00762,-0.01098,-0.16585,0.28042,0.15711,0.22675,-1.24933,-1.40527,0.40692,0.86666,0.28795,0.02005,-9.61655,-0.00160,-3.19306
-0.15565,1.52603,-0.54605,-0.17436,-0.00918,-0.02985,-0.28383,0.31668,0.08596,0.18709,-0.97027,-1.40455,0.40876,0.86768,0.28223,0.01980,-9.98327,1.43942,-4.07974
-0.15778,1.52503,-0.54729,-0.17026,-0.02053,-0.04312,-0.30332,0.38829,-0.00894,0.28662,-0.68124,-1.05115,0.41222,0.86747,0.27796,0.01766,-5.04876,4.74903,-6.30141
-0.15976,1.52391,-0.54843,-0.16482,-0.03137,-0.05214,-0.22361,0.51162,-0.17484,0.25767,-0.35117,-0.12573,0.41897,0.86511,0.27545,0.01317,4.55900,7.08072,-9.70768
-0.16187,1.52317,-0.54899,-0.16234,-0.03430,-0.05082,-0.17021,0.55223,-0.26927,0.25662,-0.04106,0.31724,0.42406,0.86329,0.27349,0.01006,4.76107,5.10357,-8.33172
-0.16403,1.52266,-0.54917,-0.16115,-0.03329,-0.04413,-0.10976,0.56539,-0.34886,-0.00197,0.29511,0.74572,0.42920,0.86114,0.27235,0.00727,4.65091,1.73554,-7.67969
-0.16664,1.52280,-0.54864,-0.16738,-0.02216,-0.02852,-0.11407,0.51658,-0.33747,-0.40827,0.97157,1.05272,0.43173,0.86043,0.27063,0.00614,1.30833,-1.81277,-0.91671
-0.16969,1.52364,-0.54801,-0.17937,-0.00286,-0.01409,-0.26603,0.37613,-0.18180,-1.03778,1.80919,1.20802,0.42916,0.86307,0.26619,0.00855,-8.51055,-8.39469,8.85682
-0.17309,1.52490,-0.54730,-0.19335,0.01763,-0.00157,-0.36119,0.28603,-0.03609,-1.75985,2.50255,1.18274,0.42585,0.86595,0.26205,0.01005,-12.50846,-11.50511,15.44152
-0.17771,1.52806,-0.54552,-0.22229,0.06203,0.02428,-0.23925,0.33114,0.14923,-2.16112,3.30098,1.69511,0.42156,0.86815,0.26188,0.00491,4.00201,0.48492,12.02313
-0.18289,1.53200,-0.54268,-0.25450,0.11053,0.06072,0.07307,0.47607,0.26180,-1.98487,2.98924,2.54108,0.41942,0.86782,0.26636,-0.00613,20.09675,9.76756,6.65084
-0.18789,1.53569,-0.53972,-0.27699,0.14428,0.09181,0.23750,0.50987,0.35721,-1.59504,2.59463,2.83110,0.41633,0.86820,0.26965,-0.01385,17.76266,6.71238,6.39711
-0.19327,1.53999,-0.53592,-0.30018,0.17984,0.12884,0.25861,0.43144,0.51780,-1.54672,2.26721,2.80560,0.40979,0.87070,0.27135,-0.01785,5.56230,-3.21397,9.90327
-0.19892,1.54440,-0.53165,-0.32242,0.20979,0.16475,0.19746,0.32103,0.67835,-1.63586,2.04015,2.43425,0.40173,0.87441,0.27138,-0.01958,-4.20051,-9.20819,12.60162
-0.20466,1.54901,-0.52696,-0.34145,0.23625,0.19980,0.22962,0.32067,0.70885,-1.54977,1.98032,2.41707,0.39719,0.87603,0.27246,-0.02400,-0.55945,-2.88222,5.09578
-0.21060,1.55380,-0.52153,-0.35895,0.26034,0.23847,0.42322,0.43085,0.62331,-1.39319,1.79175,2.79214,0.39678,0.87451,0.27695,-0.03298,10.42184,6.64004,-4.81231
-0.21655,1.55857,-0.51570,-0.37285,0.27877,0.27458,0.63895,0.55798,0.51095,-1.09427,1.49710,3.08208,0.39807,0.87157,0.28284,-0.04372,17.32148,11.62802,-9.14650
-0.22284,1.56384,-0.50853,-0.38944,0.30117,0.32330,0.86944,0.66694,0.38006,-0.97024,1.29375,3.04614,0.40057,0.86728,0.29039,-0.05512,15.25914,8.70003,-9.05393
-0.22938,1.56915,-0.50109,-0.40615,0.32113,0.36710,1.00117,0.75622,0.30603,-0.98333,1.25927,2.56698,0.40205,0.86384,0.29629,-0.06598,8.46091,6.03780,-5.11338
-0.23603,1.57454,-0.49374,-0.42095,0.33748,0.40064,1.09362,0.85558,0.23391,-1.20193,1.25444,2.21779,0.40405,0.86019,0.30140,-0.07729,5.18969,5.91988,-4.27412
-0.24283,1.58016,-0.48608,-0.43532,0.35336,0.43195,1.25579,1.03607,0.13044,-1.05725,1.15503,2.14964,0.40804,0.85461,0.30765,-0.09222,10.24624,12.71502,-6.52985
-0.24970,1.58573,-0.47804,-0.44822,0.36629,0.46147,1.39056,1.20745,0.03869,-0.72656,0.78028,2.03942,0.41246,0.84843,0.31367,-0.10796,10.23462,13.81759,-6.53329
-0.25643,1.59128,-0.46974,-0.45590,0.37557,0.48839,1.50752,1.37432,-0.06897,-0.32447,0.58018,1.82387,0.41798,0.84125,0.31956,-0.12438,7.67592,12.58204,-6.46897
-0.26289,1.59682,-0.46149,-0.45770,0.38094,0.50972,1.56562,1.47719,-0.15459,0.05862,0.25354,1.84572,0.42331,0.83417,0.32483,-0.13952,6.51154,11.50592,-7.46535
-0.26920,1.60227,-0.45248,-0.45770,0.38415,0.53701,1.55374,1.52006,-0.21038,0.13723,0.03722,1.67304,0.42806,0.82777,0.32893,-0.15286,0.24847,4.43915,-4.42836
-0.27554,1.60766,-0.44371,-0.45760,0.38524,0.55503,1.49921,1.49875,-0.20762,0.03328,0.13468,1.35268,0.43102,0.82263,0.33235,-0.16448,-4.23242,-0.92385,-0.18875
-0.28181,1.61311,-0.43463,-0.45803,0.38720,0.57305,1.45936,1.53304,-0.18036,-0.17189,0.29547,1.20259,0.43367,0.81742,0.33491,-0.17772,-3.64771,0.86493,1.94722
-0.28791,1.61863,-0.42496,-0.45816,0.39052,0.59487,1.45657,1.60241,-0.11532,0.06810,0.20896,1.45555,0.43531,0.81206,0.33740,-0.19295,0.22845,4.13301,4.79158
-0.29402,1.62408,-0.41542,-0.45637,0.39116,0.61093,1.47932,1.63688,-0.07972,0.16921,0.04675,1.63052,0.43694,0.80605,0.34084,-0.20783,1.01081,3.06043,3.90275
-0.30001,1.62926,-0.40542,-0.45125,0.38920,0.63409,1.51673,1.68746,-0.03848,0.58307,-0.19589,1.76677,0.43821,0.79961,0.34429,-0.22376,3.49125,3.81119,2.75117
-0.30568,1.63402,-0.39529,-0.44066,0.38382,0.65861,1.56569,1.71780,-0.01790,0.84305,-0.50254,1.98661,0.43944,0.79259,0.34837,-0.23944,3.66884,2.30203,1.72482
-0.31120,1.63843,-0.38463,-0.42956,0.37378,0.68480,1.58148,1.68496,0.04168,1.08631,-0.91779,1.94865,0.43893,0.78664,0.35235,-0.25374,3.59100,-0.13648,2.01354
-0.31629,1.64237,-0.37358,-0.41506,0.35923,0.70935,1.44261,1.48504,0.21224,1.01087,-1.02312,1.36562,0.43411,0.78577,0.35393,-0.26239,-6.80117,-13.51292,10.21576
-0.32124,1.64573,-0.36281,-0.40058,0.34021,0.72643,1.30795,1.32145,0.35839,0.70994,-1.16971,0.85436,0.42918,0.78530,0.35475,-0.27066,-8.54633,-13.43733,9.33338
-0.32600,1.64898,-0.35226,-0.38647,0.32039,0.73478,1.25323,1.33313,0.40910,1.03334,-1.37962,0.44758,0.42713,0.78191,0.35530,-0.28274,-3.85742,-2.98763,5.67831
-0.33112,1.65177,-0.34188,-0.36913,0.29851,0.74111,1.25488,1.41073,0.37666,1.58817,-1.68303,0.46222,0.42741,0.77615,0.35651,-0.29634,-0.94987,6.15107,-0.73666
-0.33620,1.65386,-0.33162,-0.35005,0.27199,0.74600,1.19667,1.42152,0.34919,1.85232,-2.06116,0.28745,0.42770,0.77135,0.35692,-0.30774,-2.39401,3.20355,-2.29603
-0.34071,1.65562,-0.32133,-0.32995,0.24477,0.74795,1.10460,1.36543,0.34000,1.52150,-1.91431,-0.02558,0.42729,0.76784,0.35695,-0.31692,-6.61351,-4.23776,-0.87847
-0.34388,1.65712,-0.31102,-0.30943,0.21827,0.74417,1.01728,1.37558,0.34696,1.33107,-1.80762,-0.57885,0.42715,0.76412,0.35558,-0.32744,-6.04436,-0.51518,0.89329
-0.34699,1.65837,-0.30132,-0.29241,0.19360,0.73275,0.90570,1.40202,0.37724,1.05652,-1.71039,-1.09887,0.42697,0.76099,0.35259,-0.33806,-7.27683,1.26984,2.25831
-0.35008,1.65950,-0.29216,-0.27827,0.17110,0.71547,0.79437,1.48813,0.41721,0.87727,-1.48021,-1.35503,0.42729,0.75752,0.34781,-0.35016,-8.50065,4.12596,3.86088
-0.35292,1.66052,-0.28317,-0.26412,0.15100,0.69847,0.73576,1.61554,0.43994,1.08404,-1.34944,-1.15596,0.42814,0.75276,0.34290,-0.36397,-5.54018,8.38100,3.47641
-0.35528,1.66125,-0.27397,-0.24565,0.13071,0.68885,0.72249,1.68600,0.45254,1.67580,-1.51683,-0.41917,0.42840,0.74764,0.33923,-0.37741,-1.24054,8.26323,1.69370
-0.35715,1.66166,-0.26434,-0.22283,0.10950,0.68834,0.72148,1.60600,0.46733,1.82625,-1.49242,0.09212,0.42687,0.74397,0.33772,-0.38761,-0.04360,-4.10190,0.78182
-0.35853,1.66191,-0.25460,-0.19712,0.09032,0.69012,0.75578,1.53879,0.44474,1.74062,-1.20928,0.08535,0.42567,0.73944,0.33750,-0.39766,1.15113,-6.49848,-0.88860
-0.35980,1.66217,-0.24495,-0.17570,0.07559,0.69053,0.81344,1.52589,0.41711,1.77893,-1.22675,-0.09515,0.42473,0.73374,0.33757,-0.40900,4.81225,-0.86749,-3.43019
-0.36039,1.66208,-0.23560,-0.14858,0.05830,0.68520,0.83769,1.46388,0.41991,1.74966,-1.03057,-0.51034,0.42277,0.72921,0.33755,-0.41902,2.23983,-4.32609,-0.86333
-0.36058,1.66192,-0.22638,-0.12101,0.04247,0.67899,0.84579,1.31972,0.44329,1.81757,-1.13263,-0.37047,0.41944,0.72627,0.33823,-0.42686,1.22573,-6.61732,0.26754
-0.36109,1.66182,-0.21712,-0.10398,0.03168,0.67521,0.84332,1.19914,0.46565,1.70913,-1.05654,-0.49620,0.41593,0.72363,0.33874,-0.43430,0.31695,-12.83854,1.73440
-0.36038,1.66115,-0.20819,-0.07142,0.01379,0.66683,0.87858,1.05856,0.44961,1.82867,-0.97715,-0.44867,0.41220,0.72075,0.34118,-0.44069,1.65382,-7.56403,-1.68813
-0.35989,1.66057,-0.19904,-0.04747,0.00009,0.66151,0.92345,0.97689,0.40607,1.50743,-0.88659,-0.48658,0.40929,0.71672,0.34395,-0.44776,2.78124,-7.29038,-2.99415
-0.35939,1.65998,-0.19013,-0.02900,-0.01012,0.65468,0.99394,1.00885,0.35138,1.40124,-0.86838,-0.69985,0.40736,0.71057,0.34648,-0.45728,4.90059,-0.34775,-4.24636
-0.35820,1.65890,-0.18193,-0.00486,-0.02467,0.64080,1.05169,1.04059,0.28186,1.57499,-1.14952,-1.07210,0.40608,0.70378,0.34929,-0.46669,4.08621,4.00974,-4.77300
-0.35700,1.65750,-0.17417,0.01462,-0.04086,0.62263,1.03674,1.00407,0.24596,1.39295,-1.33559,-1.57826,0.40447,0.69879,0.35126,-0.47404,-0.02665,-1.28219,-3.42815
-0.35562,1.65578,-0.16716,0.03255,-0.05859,0.59700,0.96372,0.93185,0.21106,1.25430,-1.35057,-2.06598,0.40341,0.69508,0.35248,-0.47946,-4.16651,-4.47643,-2.45328
-0.35423,1.65383,-0.16086,0.04691,-0.07597,0.56652,0.83870,0.80779,0.21182,0.90075,-1.28366,-2.32201,0.40198,0.69356,0.35263,-0.48274,-8.33661,-8.00851,-0.63692
-0.35293,1.65182,-0.15498,0.05669,-0.09049,0.53550,0.70312,0.71460,0.22785,0.44049,-0.78495,-2.00219,0.40074,0.69269,0.35162,-0.48574,-10.38331,-9.88560,2.01461
-0.35165,1.64989,-0.14899,0.06401,-0.10052,0.51347,0.66550,0.77115,0.19099,0.39272,-0.66766,-1.58572,0.40107,0.68827,0.35115,-0.49205,-5.51905,0.96563,-1.31655
-0.35030,1.64778,-0.14337,0.07091,-0.11117,0.49079,0.68320,0.89077,0.13021,0.34390,-0.53114,-1.33695,0.40225,0.68158,0.35122,-0.50029,0.06731,8.05208,-3.90554
-0.34906,1.64577,-0.13767,0.07483,-0.11821,0.47336,0.70297,0.98741,0.09178,0.33145,-0.44766,-1.21375,0.40308,0.67481,0.35121,-0.50874,0.98537,8.28997,-2.82682
-0.34785,1.64383,-0.13196,0.07733,-0.12260,0.46005,0.71193,1.00778,0.07566,0.27055,-0.34453,-1.15180,0.40303,0.66914,0.35157,-0.51596,1.10824,3.84316,-1.72643
-0.34666,1.64186,-0.12681,0.07895,-0.12662,0.44136,0.71336,0.98363,0.08034,0.10239,-0.14993,-1.24286,0.40217,0.66445,0.35206,-0.52233,-0.20702,-1.41759,0.66525
-0.34548,1.63997,-0.12161,0.08022,-0.12838,0.42696,0.70276,0.94905,0.08737,0.16073,-0.25910,-1.23960,0.40124,0.66012,0.35240,-0.52826,-0.34640,-1.53363,0.06221
-0.34427,1.63788,-0.11708,0.08164,-0.13302,0.40553,0.67120,0.79948,0.10810,0.17566,-0.22723,-1.22801,0.39898,0.65832,0.35361,-0.53140,-1.65650,-7.95662,1.05829
-0.34308,1.63593,-0.11232,0.08253,-0.13465,0.39197,0.64666,0.64328,0.12361,0.08104,-0.04613,-1.12517,0.39631,0.65716,0.35534,-0.53368,-2.19271,-12.10229,0.44892
-0.34183,1.63400,-0.10781,0.08412,-0.13535,0.37736,0.64661,0.46887,0.13637,0.12366,0.02852,-0.64082,0.39267,0.65670,0.35812,-0.53508,-0.47323,-12.53341,1.84645
-0.34039,1.63196,-0.10308,0.08834,-0.13797,0.36921,0.70610,0.42672,0.08127,0.26065,-0.20887,-0.49106,0.39048,0.65308,0.36198,-0.53850,2.89734,-4.85598,-3.59817
-0.33889,1.62978,-0.09840,0.09260,-0.14206,0.36219,0.76285,0.42300,0.01352,0.37139,-0.41856,-0.67667,0.38899,0.64842,0.36613,-0.54239,5.23637,0.63817,-6.16940
-0.33740,1.62731,-0.09410,0.09546,-0.14944,0.35069,0.79991,0.37197,-0.05661,0.09192,-0.71181,-1.05185,0.38741,0.64437,0.37110,-0.54496,3.71903,-2.42588,-5.79331
-0.33618,1.62467,-0.09033,0.09376,-0.15788,0.33388,0.77808,0.27651,-0.08104,-0.26630,-0.68261,-1.36550,0.38538,0.64235,0.37512,-0.54603,-0.45777,-5.95881,-2.40089
-0.33535,1.62191,-0.08704,0.08655,-0.16649,0.31342,0.74107,0.18451,-0.06788,-0.71323,-0.62113,-1.53956,0.38279,0.64132,0.37836,-0.54683,-2.75131,-7.01853,-0.34010
-0.33496,1.61911,-0.08402,0.07409,-0.17361,0.29294,0.69259,0.05977,-0.01428,-1.02886,-0.46891,-1.39658,0.37900,0.64198,0.38106,-0.54682,-3.89254,-7.54133,2.46177
-0.33502,1.61632,-0.08105,0.05756,-0.17932,0.27635,0.67611,-0.05167,0.05545,-1.30744,-0.30211,-0.98728,0.37403,0.64300,0.38387,-0.54708,-2.33073,-9.77745,4.94275
-0.33542,1.61345,-0.07814,0.03907,-0.18498,0.26190,0.70601,-0.07403,0.09919,-1.20325,-0.28574,-0.74630,0.36928,0.64217,0.38695,-0.54911,1.25209,-3.07849,3.34961
-0.33560,1.61061,-0.07507,0.02827,-0.18895,0.25329,0.74233,-0.02970,0.10302,-1.15567,-0.44315,-0.97019,0.36574,0.63958,0.39005,-0.55230,3.66032,2.59327,1.13695
-0.33641,1.60751,-0.07288,0.01037,-0.19598,0.23321,0.72627,0.01891,0.13749,-0.99678,-0.35475,-1.54816,0.36250,0.63763,0.39147,-0.55567,0.64518,3.65277,2.14887
-0.33694,1.60463,-0.07086,0.00040,-0.19834,0.21517,0.71160,0.07941,0.14164,-0.81877,-0.39244,-1.55396,0.36008,0.63506,0.39295,-0.55914,-2.17485,3.25866,1.72355
-0.33754,1.60161,-0.06951,-0.00841,-0.20199,0.19095,0.63489,0.13549,0.13458,-0.48620,-0.07054,-1.83854,0.35922,0.63304,0.39312,-0.56185,-4.53810,3.60196,-0.28362
-0.33786,1.59881,-0.06877,-0.01116,-0.20164,0.16255,0.56522,0.28152,0.09142,0.12389,0.19233,-1.69398,0.36064,0.62879,0.39251,-0.56613,-5.15369,8.99805,-1.48877
-0.33765,1.59626,-0.06809,-0.00554,-0.19776,0.13873,0.50230,0.33205,0.03065,0.72969,0.31157,-1.36977,0.36190,0.62543,0.39307,-0.56865,-3.59684,6.22567,-4.07611
-0.33713,1.59392,-0.06700,0.00374,-0.19130,0.12581,0.47284,0.22867,-0.02097,0.81366,0.66182,-0.67058,0.36102,0.62445,0.39585,-0.56836,-3.27483,-5.76237,-3.86623
-0.33646,1.59178,-0.06561,0.01316,-0.18328,0.12034,0.50331,0.15336,-0.06826,0.77336,0.86317,-0.29988,0.35932,0.62261,0.39982,-0.56867,0.94928,-7.44072,-4.12340
-0.33527,1.59031,-0.06414,0.02864,-0.16677,0.11726,0.57405,0.07286,-0.11474,1.17540,1.29914,-0.11794,0.35664,0.62044,0.40514,-0.56896,4.16079,-4.55419,-3.02223
-0.33368,1.58932,-0.06266,0.04715,-0.14633,0.11545,0.63640,0.02711,-0.17166,1.48942,1.59078,-0.12973,0.35446,0.61760,0.41073,-0.56941,4.47198,-4.21642,-4.09354
-0.33171,1.58869,-0.06145,0.06786,-0.12696,0.11245,0.68295,0.02448,-0.24188,1.95427,1.59971,-0.25239,0.35326,0.61382,0.41634,-0.57017,3.98536,-0.82530,-4.58053
-0.32847,1.58883,-0.06050,0.10375,-0.10067,0.10691,0.71525,-0.03654,-0.37107,2.69512,1.63655,-0.33981,0.35285,0.61025,0.42388,-0.56870,2.42592,-2.35090,-7.58159
-0.32464,1.58887,-0.05925,0.14193,-0.07978,0.10570,0.75233,-0.20803,-0.51472,3.04542,1.33689,0.08716,0.35140,0.60827,0.43378,-0.56423,1.27736,-9.67368,-10.18017
-0.32048,1.58874,-0.05777,0.17816,-0.06601,0.10896,0.80488,-0.36692,-0.66741,3.16256,1.10882,0.51933,0.34989,0.60590,0.44520,-0.55880,3.13557,-13.95019,-12.63376
-0.31521,1.58869,-0.05604,0.22326,-0.05452,0.11578,0.93161,-0.46115,-0.88280,3.28617,0.70846,0.55730,0.34904,0.60044,0.45971,-0.55345,7.95758,-7.23206,-15.00641
-0.30909,1.58865,-0.05424,0.26942,-0.04423,0.11977,1.02751,-0.54771,-1.09348,3.34174,0.83026,0.02416,0.34877,0.59455,0.47495,-0.54708,9.08196,-5.76422,-15.65666
-0.30219,1.58912,-0.05273,0.31623,-0.02807,0.11741,1.07619,-0.56269,-1.30906,3.20398,1.33997,-0.22728,0.35066,0.58738,0.48976,-0.54052,3.74731,-2.91029,-15.09539
-0.29509,1.58984,-0.05149,0.35602,-0.01183,0.11157,1.11896,-0.45416,-1.47707,3.14356,1.36929,-0.56516,0.35422,0.57773,0.50306,-0.53636,4.53074,5.59878,-14.31340
-0.28634,1.59104,-0.05079,0.41135,0.00818,0.09891,1.22100,-0.10020,-1.71926,3.47810,1.08312,-0.79126,0.36275,0.56043,0.51634,-0.53640,7.95564,20.45861,-12.90629
-0.27689,1.59184,-0.05037,0.46740,0.01822,0.08450,1.35878,0.21592,-1.95278,3.74807,0.32984,-1.04918,0.37132,0.54087,0.53057,-0.53673,11.64882,22.41123,-12.92444
-0.26803,1.59225,-0.04976,0.50259,0.02061,0.07613,1.43050,0.27083,-2.10921,3.91982,0.06628,-0.94695,0.37682,0.52556,0.54567,-0.53295,9.72909,14.25050,-13.34414
-0.25712,1.59241,-0.04904,0.56006,0.01856,0.07150,1.40395,-0.24581,-2.40349,3.22903,-0.26702,-0.06665,0.37759,0.51903,0.56869,-0.51442,-4.16022,-23.46304,-19.08006
-0.24699,1.59259,-0.04755,0.59551,0.01746,0.07914,1.37316,-0.81424,-2.61033,2.02753,0.16976,1.11297,0.37466,0.51560,0.59238,-0.49282,-11.70236,-41.49960,-20.45431
-0.23735,1.59287,-0.04570,0.61574,0.01789,0.09038,1.45938,-1.06757,-2.71884,1.46862,0.19042,1.56008,0.37156,0.50711,0.61450,-0.47662,-2.82503,-32.03427,-16.82445
-0.22710,1.59304,-0.04253,0.63998,0.01667,0.11880,1.73995,-1.33239,-2.79113,0.92720,-0.19668,1.93182,0.36283,0.49526,0.64042,-0.46146,12.23224,-17.38615,-5.35681
-0.21735,1.59281,-0.03886,0.65269,0.00947,0.14956,2.03783,-1.49351,-2.80221,0.86692,-0.81954,2.58600,0.35276,0.48111,0.66531,-0.44883,17.73763,-14.16568,-0.25080
-0.20772,1.59191,-0.03465,0.66102,-0.00619,0.18155,2.28620,-1.72169,-2.83398,0.80326,-1.83202,2.61561,0.34031,0.46724,0.69121,-0.43370,19.48832,-19.57685,-1.51467
-0.19784,1.58939,-0.02926,0.67095,-0.04278,0.22433,2.49984,-2.11783,-2.99431,0.69530,-2.73510,2.65027,0.32468,0.45367,0.72077,-0.41141,9.98375,-25.73528,-10.89045
-0.18804,1.58640,-0.02414,0.67776,-0.07868,0.25413,2.65614,-2.37402,-3.16631,0.33261,-3.30365,2.35370,0.31061,0.43807,0.74888,-0.38831,10.11043,-23.08890,-17.13493
-0.17838,1.58183,-0.01869,0.68092,-0.12999,0.28211,2.81566,-2.60302,-3.37087,-0.02497,-4.07659,1.72949,0.29569,0.42024,0.77740,-0.36278,10.48736,-18.10530,-15.30926
-0.16898,1.57535,-0.01321,0.67998,-0.19998,0.30526,3.04890,-2.70522,-3.57380,-0.45427,-4.66351,1.32010,0.28110,0.39753,0.80542,-0.33802,13.52289,-8.84815,-13.54547
-0.15975,1.56859,-0.00813,0.67602,-0.25937,0.31750,3.31089,-2.65925,-3.65633,-0.59651,-5.16263,0.93900,0.26680,0.37125,0.83086,-0.31729,20.57831,-2.81176,-5.17868
-0.15086,1.55899,-0.00313,0.66817,-0.34872,0.32587,3.77235,-2.48694,-3.68291,-0.74397,-6.03583,0.22224,0.25145,0.33640,0.85605,-0.30130,29.13249,1.81425,3.92964
-0.14253,1.54729,0.00114,0.65341,-0.45439,0.32174,4.32338,-2.27414,-3.67685,-1.21005,-7.13293,-0.71537,0.23520,0.29558,0.88007,-0.28773,34.89682,3.44907,8.79571
-0.13473,1.53429,0.00457,0.63283,-0.55816,0.30497,4.84147,-2.10449,-3.68248,-1.73964,-7.70968,-1.61088,0.21789,0.25141,0.90255,-0.27337,38.34985,2.30306,7.82447
-0.12760,1.52046,0.00734,0.60685,-0.65099,0.28223,5.28039,-2.01483,-3.67668,-2.54364,-7.90001,-2.19263,0.19864,0.20584,0.92280,-0.25808,37.97508,-1.33920,6.65086
-0.12242,1.50321,0.00863,0.55678,-0.77667,0.24182,5.87415,-2.03392,-3.64812,-3.72083,-7.87613,-2.97359,0.17352,0.15353,0.94190,-0.24320,34.88639,-9.77875,4.00956
-0.11852,1.48533,0.00875,0.49641,-0.88593,0.19090,6.43043,-2.16119,-3.54876,-5.05306,-7.79372,-4.29794,0.14331,0.09948,0.95773,-0.22872,35.29834,-18.27608,5.05860
-0.11587,1.46697,0.00747,0.43106,-0.97754,0.13047,6.88669,-2.37689,-3.46121,-5.67734,-7.60442,-5.80218,0.10895,0.04509,0.96996,-0.21277,34.01264,-27.44971,4.59445
-0.11646,1.44615,0.00216,0.33038,-1.08765,0.02100,7.26281,-2.75266,-3.51370,-6.71507,-6.42645,-8.40947,0.06876,-0.00926,0.97913,-0.19105,22.36773,-27.21799,-8.37956
-0.11738,1.42653,-0.00456,0.24599,-1.15552,-0.08610,7.39169,-3.02984,-3.64894,-7.13078,-5.16311,-9.88648,0.03091,-0.05935,0.98402,-0.16502,10.64440,-19.08739,-18.71264
-0.12054,1.40648,-0.01571,0.14736,-1.21523,-0.23610,7.49286,-3.28822,-3.85459,-7.14481,-3.33504,-11.93206,-0.00816,-0.10922,0.98477,-0.13506,7.47280,-12.91878,-22.56237
-0.12599,1.38736,-0.03276,0.03301,-1.24733,-0.44642,7.65215,-3.58383,-3.99040,-7.37280,-0.45997,-14.50219,-0.05091,-0.16045,0.98008,-0.10541,7.99652,-13.12066,-16.42972
-0.13112,1.37049,-0.05103,-0.05202,-1.23870,-0.62976,7.80626,-3.84076,-4.02815,-7.15032,2.05633,-16.10297,-0.09448,-0.21152,0.96968,-0.07782,8.61512,-18.03743,-11.95861
-0.13801,1.35661,-0.07544,-0.14413,-1.18805,-0.86456,7.99626,-4.14536,-4.02913,-6.24776,5.41203,-17.48959,-0.14113,-0.26290,0.95308,-0.05110,8.04559,-22.20560,-11.77492
-0.14513,1.34669,-0.10372,-0.22037,-1.08873,-1.10807,8.17627,-4.51570,-3.98691,-4.75053,9.05831,-17.32820,-0.19093,-0.31330,0.92990,-0.02603,8.53872,-26.10284,-7.86926
-0.15133,1.33998,-0.13262,-0.26611,-0.96339,-1.30555,8.19114,-4.81797,-4.00757,-2.56190,11.84365,-16.00730,-0.23987,-0.35824,0.90229,0.00044,0.79627,-27.05968,-13.55428
-0.15669,1.34158,-0.16638,-0.28948,-0.74109,-1.53395,7.94151,-5.02331,-4.14302,-0.14833,16.31420,-12.97383,-0.28616,-0.39317,0.87329,0.02986,-9.93892,0.58977,-17.37396
-0.15928,1.34712,-0.19829,-0.26740,-0.50429,-1.69160,7.51800,-5.26191,-4.14478,3.02464,18.34381,-9.86502,-0.33254,-0.41982,0.84280,0.05352,-27.07559,-3.71179,-19.38410
-0.15951,1.35534,-0.22886,-0.21556,-0.27991,-1.79366,7.03755,-5.57811,-4.06157,5.26498,19.97746,-7.24589,-0.38094,-0.44086,0.80956,0.07171,-36.39207,-4.11679,-18.09968
-0.15302,1.37488,-0.26072,-0.07215,0.06873,-1.89487,6.29490,-5.87326,-3.65814,10.82167,20.53586,-4.43616,-0.42697,-0.45300,0.77894,0.07577,-50.63389,-15.24192,-11.40730
-0.14541,1.39285,-0.28933,0.05834,0.32615,-1.92901,5.63142,-6.10880,-3.42523,11.11941,22.38804,-1.00010,-0.47146,-0.46237,0.74663,0.08049,-51.76756,-0.21809,3.45624
-0.13353,1.41766,-0.31569,0.22306,0.62724,-1.91998,4.56381,-6.56911,-3.32139,11.76544,21.64667,2.64168,-0.52394,-0.45474,0.71602,0.07756,-70.12569,-8.36798,-26.86030
-0.11930,1.44515,-0.33869,0.38845,0.90591,-1.86486,3.16019,-7.27021,-3.50936,11.20427,19.09144,5.25417,-0.58697,-0.42707,0.68429,0.06944,-85.55801,-14.53675,-62.09016
-0.10327,1.47499,-0.35900,0.54576,1.16095,-1.77943,1.61419,-7.99298,-4.01310,11.44627,18.68675,7.20827,-0.65576,-0.38092,0.64902,0.06039,-81.80769,-19.41101,-91.44062
-0.08492,1.50891,-0.37608,0.70539,1.42476,-1.66470,-0.05591,-8.43863,-4.81891,12.13296,19.88000,9.30853,-0.72162,-0.31447,0.61439,0.05375,-76.26337,-7.06106,-111.72860
-0.06348,1.54817,-0.39010,0.87855,1.71400,-1.52957,-1.81618,-8.60714,-5.88978,13.66803,22.50556,10.30464,-0.78090,-0.22668,0.57998,0.04943,-61.04958,13.84018,-130.51140
-0.03717,1.59456,-0.40157,1.08728,2.04780,-1.38324,-3.51775,-8.43203,-7.16568,17.02227,26.00768,10.77971,-0.82832,-0.12010,0.54502,0.04910,-44.25713,18.59476,-144.37860
-0.00448,1.64945,-0.41114,1.34808,2.43920,-1.24015,-4.99197,-7.94343,-8.78065,21.59082,30.87300,9.85220,-0.85989,0.00442,0.50706,0.05886,-13.74541,22.91731,-153.98160
0.03417,1.71013,-0.42101,1.63961,2.83057,-1.13331,-5.86815,-7.38187,-10.52098,26.37728,32.49865,6.92028,-0.87430,0.13424,0.45919,0.08206,19.29086,1.78357,-167.46310
0.09522,1.78895,-0.42899,2.20185,3.40584,-1.01739,-6.06138,-6.85226,-13.09500,48.95664,41.67846,10.86494,-0.86649,0.28063,0.38968,0.13634,41.33610,-94.35979,-130.65070
0.15221,1.85601,-0.42217,2.95995,3.95678,-0.86327,-5.49659,-5.36669,-15.61972,62.47885,34.67559,13.12644,-0.81361,0.42319,0.33813,0.21124,112.98200,-59.29824,-170.66460
0.21692,1.92662,-0.41792,3.79594,4.34472,-0.68718,-3.58940,-4.25836,-17.35467,78.67445,26.76283,18.93528,-0.74048,0.52536,0.28296,0.30923,136.09130,-131.47010,-104.27690
0.31627,1.99679,-0.39985,5.24161,4.65262,-0.31369,0.59962,-3.33294,-19.57506,102.63600,7.16182,29.92126,-0.61354,0.59097,0.22510,0.47292,139.78920,-246.40690,-85.41774
0.45335,2.04402,-0.36403,7.04432,4.46913,0.29073,4.50766,-4.50511,-21.74732,121.27140,-34.07621,47.42337,-0.45496,0.61971,0.10898,0.63016,18.27457,-256.41430,-143.32880
0.61495,2.04953,-0.30648,8.73936,3.62095,1.10865,7.44053,-6.59049,-23.84301,118.98940,-91.76808,69.12865,-0.26237,0.60992,-0.04239,0.74657,-64.82094,-204.31330,-214.76550
0.77689,2.00183,-0.23015,9.97292,2.13892,2.03368,8.36186,-7.41966,-25.60281,87.12260,-155.47990,81.96545,-0.06028,0.59569,-0.18527,0.77923,-37.86662,-97.18681,-218.39310
0.89737,1.83036,-0.11900,10.60698,-0.92819,3.37661,9.84659,-5.01100,-27.00954,-9.92040,-224.83940,77.70569,0.17528,0.59891,-0.25373,0.73906,118.47240,-83.43654,-51.13824
0.91752,1.61714,-0.03479,9.69619,-4.13992,4.24788,13.72966,-0.15036,-25.21789,-112.52040,-233.71570,46.06777,0.40214,0.60983,-0.18111,0.65847,222.26780,-331.78520,64.02255
0.90920,1.42626,0.02621,8.31350,-6.39435,4.54093,18.52415,2.41809,-22.76038,-162.91600,-224.64830,10.07536,0.62199,0.55036,-0.07411,0.55203,92.26479,-542.91050,-122.63430
0.70932,1.15227,0.01858,4.69014,-10.09117,4.00392,32.67413,4.19154,-17.55400,-238.23480,-182.77450,-75.65561,0.88483,0.29453,0.24955,0.26086,310.58330,-340.45290,-681.84610
0.50569,0.95692,-0.06736,1.05491,-12.05748,2.22197,41.79873,-2.90972,-16.65026,-284.60400,-71.59556,-173.09150,0.91266,-0.16348,0.37424,-0.01639,516.81220,288.45530,-738.60550
0.37142,0.82980,-0.15042,-1.08421,-12.14926,0.64081,41.50709,-7.76178,-16.56243,-242.28030,47.46446,-192.46210,0.80162,-0.44026,0.36380,-0.17671,626.35100,440.92050,-153.99290
0.32283,0.80769,-0.31721,-4.05372,-9.64538,-2.24234,31.15801,-10.75519,-18.20578,-77.83208,176.68850,-88.91230,0.74315,-0.58861,0.31046,-0.06984,-34.75079,632.40890,172.36320
0.39777,0.75955,-0.35194,-4.37048,-7.32155,-2.78958,22.25230,-6.22044,-17.23950,31.84133,146.82650,-2.66531,0.78023,-0.58720,0.21516,0.01184,-121.10410,386.06560,746.19730
0.48815,0.78962,-0.27977,-3.21912,-4.86332,-1.66387,11.51887,-14.26542,-9.00568,29.59082,42.38182,58.40165,0.65976,-0.53323,0.51967,0.10163,-517.86650,-70.29617,-462.88670
0.44192,0.67913,-0.25296,-2.77498,-4.46856,-0.73702,4.10193,-8.96078,-5.09550,8.02874,15.63830,53.23783,0.63190,-0.49984,0.56736,0.17016,-487.33790,376.97460,29.39395
0.41464,0.62398,-0.22037,-2.67718,-4.35588,-0.16872,-0.12040,-2.67998,-2.66074,5.87537,9.10511,43.49195,0.71194,-0.38130,0.51296,0.29089,-299.79140,635.23650,126.53090
0.37793,0.57576,-0.18510,-2.71008,-4.16740,0.33145,-3.40192,1.19394,-1.00714,-2.51722,21.57397,32.80653,0.74565,-0.26317,0.46735,0.39539,-227.65070,399.11590,93.76821
0.33904,0.55354,-0.15399,-2.84211,-3.76497,0.68872,-4.97859,3.29680,-1.93868,-8.21517,36.66969,21.01563,0.73547,-0.22512,0.40849,0.49147,-138.59990,177.45310,-44.25014
0.29452,0.52111,-0.13447,-2.90926,-3.48458,0.82619,-5.26384,3.68560,-2.58777,-4.18288,36.67296,15.82260,0.71635,-0.21636,0.37420,0.54773,-82.71992,92.59252,-138.97790
0.25560,0.52451,-0.10613,-2.94312,-2.78433,1.04344,-5.80250,2.40322,-3.51300,2.14483,36.13674,7.76878,0.66251,-0.23488,0.37895,0.60192,-54.57063,-84.08466,-19.87084
0.22695,0.52143,-0.08502,-2.84837,-2.29060,1.12593,-6.16896,2.00983,-3.07305,5.19664,34.81394,2.75410,0.63047,-0.21469,0.38270,0.64028,-35.45648,-32.72288,46.23024
0.20111,0.52221,-0.06823,-2.71571,-1.83247,1.13810,-6.08450,3.32408,-2.53673,6.95333,31.58674,-2.42223,0.62677,-0.16846,0.34468,0.67822,13.08110,71.77134,12.54059
0.17297,0.52073,-0.05570,-2.59928,-1.49178,1.08822,-5.60675,5.15828,-2.30500,9.63717,26.57760,-6.26743,0.63546,-0.11612,0.27817,0.71086,51.33393,135.40430,-50.17311
0.14978,0.52574,-0.05025,-2.44431,-1.12511,0.94709,-4.79202,6.68742,-2.18020,10.53435,21.60137,-12.03112,0.64864,-0.06656,0.20473,0.73002,54.84849,95.54151,-56.98740
0.12724,0.53167,-0.05298,-2.30245,-0.80754,0.71310,-3.50337,6.73704,-2.36996,9.00019,19.51520,-17.57486,0.66080,-0.05409,0.15317,0.73278,57.33904,-0.36053,-45.85068
0.10420,0.53696,-0.05974,-2.19941,-0.55962,0.46413,-2.19700,5.41428,-2.46041,8.06749,15.97005,-18.14127,0.67095,-0.07160,0.13540,0.72551,75.13904,-83.94559,-33.82175
0.07986,0.54059,-0.06826,-2.12985,-0.38901,0.24768,-1.15025,3.52486,-2.44973,4.50548,12.41293,-17.79053,0.67699,-0.10644,0.14063,0.71455,62.14062,-158.47070,-5.18331
0.05588,0.54493,-0.08016,-2.06488,-0.24604,0.02904,-0.13583,1.19715,-2.52052,5.73342,8.43835,-13.33230,0.68064,-0.16473,0.16301,0.69500,49.77827,-179.76310,-15.41340
0.03631,0.54936,-0.09062,-1.95372,-0.12904,-0.12601,0.22542,-0.76726,-2.20965,8.71984,6.92754,-7.95890,0.67347,-0.21256,0.19804,0.67973,11.43519,-158.80070,19.57823
0.02035,0.55256,-0.09740,-1.80998,-0.05409,-0.19588,0.15396,-1.74449,-1.79268,12.37400,4.60165,-2.83629,0.66251,-0.23972,0.22473,0.67314,-15.86175,-109.25670,23.42427
0.01322,0.55533,-0.10178,-1.56746,-0.00143,-0.21693,0.05871,-1.63293,-1.26433,14.13498,2.69429,0.50180,0.65963,-0.24085,0.23581,0.67177,-19.20837,-10.85244,40.17164
0.01027,0.55609,-0.10392,-1.30759,0.01372,-0.20063,0.53314,-0.19217,-1.38997,15.78165,0.29602,1.89400,0.67692,-0.22820,0.19870,0.67099,29.11920,78.67570,-5.90867
0.00426,0.55565,-0.10526,-1.14192,0.00759,-0.17824,0.96574,0.87438,-1.41704,16.76755,-1.09940,2.59026,0.69465,-0.21516,0.16332,0.66671,58.16847,105.39050,-1.57833
0.00747,0.55481,-0.10478,-0.87639,-0.00459,-0.13469,1.33136,2.12239,-1.33388,17.28881,-1.05113,2.81659,0.71486,-0.18955,0.11966,0.66236,35.47747,79.92771,5.92971
0.01526,0.55223,-0.10409,-0.58971,-0.04171,-0.09536,1.63023,3.27944,-0.98280,26.91176,-7.49300,3.51346,0.73501,-0.15371,0.07905,0.65565,17.61590,63.91705,19.02381
0.02891,0.54615,-0.10487,-0.28701,-0.11817,-0.08600,1.91616,4.35736,-0.31360,30.64280,-8.35440,0.32476,0.75722,-0.10293,0.04232,0.64361,55.95573,105.08440,46.55645
0.05493,0.53736,-0.10590,0.12403,-0.21647,-0.08231,1.88213,5.25086,0.75546,16.75639,-3.51094,0.38182,0.77299,-0.03580,0.01853,0.63314,20.84138,42.50131,62.24041
0.06815,0.53314,-0.10690,0.28419,-0.23330,-0.07964,1.55520,5.37166,0.99443,11.20486,0.51111,-0.18373,0.77544,0.00171,-0.00286,0.63141,-7.69573,15.95751,42.28418
0.08161,0.53262,-0.10832,0.41557,-0.19464,-0.08322,1.01193,5.24298,1.03839,6.04622,4.05549,-0.52946,0.77003,0.03087,-0.02072,0.63693,-27.37690,-9.39635,18.09759
0.09143,0.53402,-0.11016,0.47499,-0.14591,-0.09248,0.65234,5.11624,0.87777,4.22004,4.20581,-1.13115,0.76485,0.05348,-0.04309,0.64053,-33.72186,-14.36006,4.17214
0.10151,0.53662,-0.11301,0.52728,-0.09714,-0.11418,0.36105,5.01932,0.59931,3.34508,2.88631,-1.99865,0.75850,0.07195,-0.06947,0.64395,-28.85006,-7.68571,-9.67488
0.11147,0.53852,-0.11683,0.56805,-0.06652,-0.14606,0.20235,4.82708,0.39507,2.84004,1.42939,-2.75630,0.75371,0.08787,-0.09258,0.64470,-18.40995,-11.24719,-10.79572
0.12211,0.53853,-0.12205,0.60707,-0.05420,-0.19159,0.17354,4.55368,0.23523,2.46436,0.74502,-3.54805,0.75127,0.10101,-0.11231,0.64247,-7.75320,-17.80445,-9.92298
0.13299,0.53796,-0.12813,0.64186,-0.05239,-0.24059,0.24734,4.40857,0.06200,2.17607,0.32422,-3.49817,0.75045,0.11490,-0.13495,0.63672,2.82726,-13.87673,-10.28772
0.14404,0.53741,-0.13507,0.67205,-0.05029,-0.29193,0.28455,4.14985,-0.02793,2.39534,-0.19099,-4.16450,0.74931,0.12684,-0.15301,0.63169,-1.13392,-9.09762,-13.00179
0.15525,0.53702,-0.14295,0.70179,-0.04858,-0.34747,0.34568,3.68965,0.02649,1.63387,0.30836,-3.11406,0.74985,0.13652,-0.16109,0.62701,5.37844,-32.62950,2.82104
0.16647,0.53696,-0.15099,0.72533,-0.04196,-0.39490,0.39031,3.48354,-0.03759,1.68734,0.80342,-3.36388,0.74935,0.14712,-0.17587,0.62121,2.35816,-18.62449,-4.70778
0.17819,0.53746,-0.15987,0.75016,-0.02799,-0.44494,0.40624,3.30382,-0.05369,1.96446,0.86513,-3.80017,0.74816,0.15817,-0.18960,0.61587,0.49456,-10.32555,-4.80134
0.19068,0.53813,-0.16979,0.77990,-0.01447,-0.50101,0.47385,2.99182,0.08683,1.82003,0.57494,-3.34096,0.74848,0.16975,-0.19548,0.61053,5.35049,-20.71928,6.58012
0.20301,0.53857,-0.17945,0.80049,-0.00636,-0.54084,0.52708,2.86477,0.14992,1.62342,0.76213,-3.07928,0.74793,0.18273,-0.20535,0.60418,6.38109,-15.12631,6.08389
0.21570,0.53942,-0.18988,0.82356,0.00641,-0.58340,0.58840,2.69778,0.28190,1.62223,1.31327,-3.41485,0.74760,0.19643,-0.21172,0.59807,1.97797,-9.39628,4.77260
0.22813,0.54115,-0.20060,0.83990,0.02794,-0.62201,0.61717,2.59135,0.33760,1.38088,2.04376,-3.07282,0.74673,0.20925,-0.21962,0.59192,7.93626,-11.87940,6.18591
0.24081,0.54405,-0.21224,0.85568,0.06117,-0.66494,0.66925,2.51208,0.42325,1.08081,2.44035,-2.93238,0.74597,0.22356,-0.22660,0.58499,4.81449,-4.49093,4.78258
0.25366,0.54777,-0.22423,0.87034,0.10047,-0.70473,0.71892,2.37429,0.57318,0.82370,2.47532,-2.13400,0.74522,0.23839,-0.22986,0.57877,5.44969,-8.53589,7.53545
0.26627,0.55154,-0.23545,0.87860,0.13285,-0.72592,0.72026,2.26569,0.69203,0.70050,2.81471,-1.51404,0.74343,0.25288,-0.23332,0.57352,3.21977,-9.41253,8.97381
0.27903,0.55661,-0.24659,0.88651,0.17638,-0.74096,0.67495,2.07069,0.89426,0.49080,3.33205,-0.82431,0.74059,0.26767,-0.23194,0.57103,0.32693,-13.29671,12.89546
0.29176,0.56317,-0.25745,0.89207,0.23491,-0.74880,0.58218,1.88037,1.12657,0.16435,4.05381,-0.09840,0.73613,0.28306,-0.22863,0.57072,-2.11689,-14.66991,15.51456
