posX, posY, posZ, velX, velY, velZ, angVelX, angVelY, angVelZ, accX, accY, accZ, rotX, rotY, rotZ, rotW, angAccX, angAccY, angAccZ
0.30203,1.23948,-0.49297,-0.45558,0.63399,-0.50845,1.79480,0.96412,0.18808,-1.70745,1.72426,0.09988,0.11438,0.82491,0.01545,0.55336,1.82755,0.60502,-0.27476
0.29489,1.24944,-0.49993,-0.47369,0.65506,-0.50536,1.90803,0.98635,0.15885,-1.53720,1.70768,0.19166,0.12292,0.82867,0.02787,0.54536,5.90143,0.89397,-1.97774
0.28722,1.26013,-0.50663,-0.49397,0.68211,-0.49911,2.14893,1.04489,0.11229,-1.50672,2.02187,0.50431,0.13467,0.83261,0.04361,0.53547,15.43065,4.61571,-3.57599
0.27934,1.27142,-0.51306,-0.51407,0.71275,-0.48985,2.39634,1.06996,0.06675,-1.61185,2.43978,0.88739,0.14770,0.83567,0.06088,0.52548,19.37642,4.15739,-3.94783
0.27111,1.28339,-0.51937,-0.53510,0.74758,-0.48072,2.48051,0.96937,0.04738,-1.74227,2.80281,0.78134,0.15841,0.83662,0.07616,0.51881,9.19785,-4.43559,-3.18092
0.26225,1.29619,-0.52577,-0.56100,0.78768,-0.47529,2.50792,0.86185,0.04381,-2.11448,3.02765,0.03179,0.16805,0.83687,0.09072,0.51302,0.72846,-9.67904,-2.34954
0.25252,1.30985,-0.53242,-0.59577,0.83280,-0.47512,2.67984,0.91415,0.08922,-2.78680,3.31382,-0.32756,0.17895,0.83865,0.10924,0.50270,8.93465,-0.09396,0.89787
0.24223,1.32328,-0.53899,-0.62961,0.86248,-0.47374,2.89349,0.89061,0.10802,-4.47819,2.15080,0.34162,0.19137,0.83865,0.13005,0.49309,17.41917,6.88701,7.17522
0.23027,1.33869,-0.54597,-0.68051,0.91668,-0.47919,3.01524,1.26833,0.21764,-2.12454,4.39177,-0.23425,0.20161,0.84486,0.14911,0.47257,6.90779,22.28845,2.02602
0.21890,1.35484,-0.55274,-0.71345,0.97093,-0.48005,3.10756,1.54069,0.36296,-2.88473,3.47825,0.10297,0.20976,0.85031,0.16911,0.45207,8.89369,16.02204,17.14248
0.20650,1.37123,-0.55920,-0.75494,1.01686,-0.47560,3.11548,1.81382,0.47688,-3.13141,3.25298,0.94604,0.21714,0.85626,0.18687,0.42983,5.20663,19.01192,11.12454
0.19354,1.38798,-0.56492,-0.79523,1.05838,-0.46078,2.86394,1.90502,0.59871,-2.85231,2.86695,1.86542,0.21931,0.86167,0.19880,0.41220,-12.34835,8.83156,12.31865
0.18005,1.40517,-0.56950,-0.83695,1.09830,-0.43077,2.44681,1.86331,0.72795,-2.64911,2.16888,2.26732,0.21697,0.86679,0.20593,0.39898,-25.57466,-5.20935,10.87203
0.16644,1.42198,-0.57328,-0.87099,1.12358,-0.39401,2.20729,1.84756,0.80757,-2.39808,1.41644,2.63079,0.21650,0.87122,0.21477,0.38469,-20.11677,-4.86816,8.87913
0.15260,1.43866,-0.57597,-0.90010,1.14089,-0.34856,2.23587,1.96338,0.83950,-1.95109,0.94966,3.26353,0.22022,0.87526,0.22780,0.36542,-3.21283,4.69131,4.54354
0.13875,1.45504,-0.57755,-0.92387,1.14986,-0.29537,2.37580,2.10059,0.84886,-1.66385,0.30610,4.11864,0.22609,0.87835,0.24337,0.34375,10.14550,11.26887,0.97340
0.12482,1.47095,-0.57798,-0.94312,1.14909,-0.23536,2.46485,2.17152,0.81678,-1.26978,-0.36500,4.74708,0.23244,0.88031,0.25805,0.32316,7.38812,7.75339,-1.09668
0.11086,1.48613,-0.57683,-0.95960,1.13840,-0.16107,2.49126,2.15922,0.76305,-0.97445,-0.92931,4.78342,0.23848,0.88118,0.27157,0.30479,1.51010,-0.09935,-3.61024
0.09703,1.50100,-0.57572,-0.96946,1.12456,-0.10436,2.53715,2.16885,0.72134,-0.78612,-1.30717,4.69465,0.24477,0.88150,0.28546,0.28559,1.66180,0.45298,-3.90276
0.08313,1.51524,-0.57324,-0.97757,1.10316,-0.03959,2.59056,2.19854,0.67300,-0.46207,-1.78274,4.69863,0.25172,0.88119,0.29939,0.26554,4.64213,3.26365,-3.37973
0.06934,1.52873,-0.57009,-0.98171,1.07511,0.02183,2.53587,2.15919,0.62133,-0.20297,-2.27797,4.48196,0.25749,0.88064,0.31096,0.24793,-1.92149,-0.51165,-3.10620
0.05575,1.54137,-0.56638,-0.98181,1.03996,0.07873,2.43769,2.06777,0.56255,0.10819,-2.77170,3.83495,0.26265,0.87964,0.32117,0.23258,-7.89334,-6.20561,-3.96820
0.04243,1.55319,-0.56230,-0.97705,0.99873,0.12828,2.44238,2.07331,0.45750,0.36259,-3.08641,2.95301,0.27064,0.87758,0.33225,0.21496,-2.97983,-2.10553,-6.77644
0.02955,1.56385,-0.55799,-0.96609,0.94770,0.17089,2.53048,2.28395,0.29697,0.87100,-3.16554,2.21072,0.28299,0.87491,0.34311,0.19162,4.06407,12.72070,-8.48055
0.01691,1.57473,-0.55413,-0.95336,0.91146,0.19645,2.57153,2.48176,0.18679,1.19281,-2.92632,2.24027,0.29497,0.87209,0.35284,0.16718,3.73308,19.54177,-8.14444
0.00454,1.58493,-0.54961,-0.93916,0.87201,0.22522,2.47940,2.57212,0.11754,1.06954,-2.78587,2.41263,0.30501,0.86976,0.35972,0.14519,-4.30845,11.18614,-3.61499
-0.00770,1.59423,-0.54397,-0.92517,0.82510,0.26507,2.19207,2.44950,0.12345,0.79840,-2.51382,2.36681,0.31025,0.86900,0.36301,0.12965,-16.22079,-6.59542,1.83491
-0.02005,1.60396,-0.53856,-0.91628,0.79567,0.29283,2.01150,2.32849,0.14438,0.73854,-2.38557,2.22076,0.31495,0.86752,0.36761,0.11434,-16.16809,-11.02184,2.89986
-0.03209,1.61293,-0.53260,-0.90432,0.76161,0.32401,1.94100,2.27772,0.13203,0.77193,-2.36240,1.85000,0.32099,0.86493,0.37324,0.09773,-8.74266,-7.48610,0.29394
-0.04359,1.62114,-0.52621,-0.88622,0.72343,0.35600,2.05003,2.41756,0.05744,1.28716,-2.19114,1.88573,0.33106,0.86002,0.38087,0.07554,5.12123,8.17683,-4.08606
-0.05493,1.62959,-0.51983,-0.86978,0.69757,0.38035,2.14021,2.53345,0.01090,1.42994,-2.17782,2.28961,0.34082,0.85450,0.38845,0.05275,8.63348,12.39215,-4.48517
-0.06613,1.63742,-0.51262,-0.85495,0.66733,0.41208,2.14062,2.53026,0.01515,1.03695,-2.25148,2.61309,0.34824,0.84943,0.39515,0.03250,2.13692,3.22450,-1.32561
-0.07741,1.64475,-0.50482,-0.84498,0.63642,0.44634,2.01488,2.37916,0.09374,0.80776,-2.26619,2.65297,0.35160,0.84612,0.40024,0.01658,-5.37355,-9.00300,4.55479
-0.08854,1.65169,-0.49659,-0.83483,0.60628,0.47990,1.80667,2.14008,0.21786,0.88023,-2.16593,2.39320,0.35161,0.84457,0.40380,0.00432,-12.43939,-17.26228,7.97248
-0.09928,1.65821,-0.48819,-0.82031,0.57596,0.51047,1.61635,1.90711,0.31526,1.11798,-2.21563,2.06053,0.35091,0.84331,0.40700,-0.00638,-13.01847,-18.45458,7.70318
-0.10958,1.66417,-0.47973,-0.80193,0.54387,0.53676,1.46835,1.74919,0.37131,1.31628,-2.37993,1.74489,0.35090,0.84180,0.40980,-0.01739,-10.66738,-14.11662,4.98200
-0.11941,1.66961,-0.47106,-0.77988,0.51043,0.56020,1.37813,1.66234,0.37453,1.58271,-2.32015,1.61910,0.35231,0.83947,0.41269,-0.02911,-7.12445,-7.48579,1.52438
-0.12889,1.67469,-0.46197,-0.75714,0.47789,0.58214,1.34142,1.63849,0.36656,1.55601,-2.28862,1.43290,0.35448,0.83643,0.41587,-0.04214,-3.42517,-3.14248,-0.51450
-0.13800,1.67936,-0.45276,-0.73333,0.44617,0.60129,1.33055,1.67681,0.34510,1.78354,-2.25615,1.27718,0.35768,0.83275,0.41878,-0.05664,-0.77998,1.90021,-1.34717
-0.14664,1.68364,-0.44335,-0.70746,0.41514,0.61891,1.33815,1.73707,0.32194,1.89824,-2.20899,1.27521,0.36133,0.82853,0.42165,-0.07201,-0.02716,4.31200,-1.63466
-0.15508,1.68772,-0.43376,-0.68484,0.38824,0.63422,1.32742,1.76097,0.30405,1.99294,-2.28771,1.33509,0.36464,0.82434,0.42425,-0.08662,-0.50689,3.56144,-1.19085
-0.16239,1.69061,-0.42357,-0.64891,0.34805,0.65595,1.27860,1.71483,0.28413,2.12458,-2.22350,1.12532,0.36730,0.82059,0.42651,-0.09908,-2.58428,-2.15011,-1.21756
-0.16963,1.69365,-0.41357,-0.61890,0.31804,0.67013,1.21307,1.66889,0.26590,2.17247,-2.15834,0.93581,0.36989,0.81706,0.42812,-0.11092,-4.75134,-3.63199,-1.19514
-0.17637,1.69626,-0.40351,-0.58837,0.28812,0.68171,1.13781,1.62668,0.24440,2.17644,-2.04797,0.73621,0.37257,0.81368,0.42917,-0.12220,-5.61016,-3.22001,-0.83300
-0.18265,1.69851,-0.39345,-0.55747,0.25903,0.69044,1.08025,1.59379,0.22978,2.22333,-2.12971,0.47004,0.37515,0.81018,0.43017,-0.13347,-4.10779,-2.41610,-0.79914
-0.18849,1.70031,-0.38352,-0.52597,0.22899,0.69494,1.00701,1.56643,0.21185,2.29942,-2.14920,0.19893,0.37791,0.80689,0.43047,-0.14427,-5.08720,-2.58259,-0.61954
-0.19372,1.70170,-0.37356,-0.49231,0.19934,0.69796,0.97501,1.57369,0.16158,2.28963,-2.04487,0.13469,0.38178,0.80267,0.43103,-0.15550,-4.49177,0.12927,-2.54660
-0.19884,1.70288,-0.36362,-0.46500,0.17350,0.70029,0.98775,1.61848,0.11402,2.20430,-2.14543,0.11183,0.38620,0.79749,0.43203,-0.16796,0.11359,2.43659,-3.90211
-0.20306,1.70329,-0.35378,-0.42891,0.14104,0.70078,0.97573,1.63599,0.05068,2.27518,-1.85912,-0.00509,0.39107,0.79221,0.43275,-0.17942,-1.03757,1.51138,-3.83688
-0.20723,1.70375,-0.34396,-0.40023,0.11666,0.70104,0.99964,1.65765,0.01667,1.80257,-1.53844,-0.02242,0.39547,0.78647,0.43403,-0.19154,-0.00731,1.03010,-3.77767
-0.21146,1.70426,-0.33420,-0.37916,0.09874,0.70019,1.03660,1.70809,0.01329,1.72672,-1.39904,-0.17621,0.39957,0.78036,0.43516,-0.20499,2.76880,3.97375,-0.74729
-0.21500,1.70437,-0.32473,-0.35142,0.07853,0.69498,1.03681,1.73268,0.02796,1.83782,-1.25380,-0.44175,0.40313,0.77472,0.43563,-0.21800,0.83861,2.14052,0.65095
-0.21853,1.70459,-0.31540,-0.33004,0.06464,0.68850,0.97440,1.68626,0.05102,1.90931,-1.26101,-0.56817,0.40585,0.77038,0.43526,-0.22881,-2.76090,-1.61465,2.26404
-0.22151,1.70444,-0.30628,-0.30485,0.04833,0.68029,0.86658,1.58978,0.07710,1.74523,-1.10467,-0.57539,0.40789,0.76734,0.43409,-0.23745,-8.30756,-7.25962,1.96166
-0.22487,1.70415,-0.29731,-0.28162,0.03271,0.67458,0.82507,1.55222,0.09807,1.71515,-1.06372,-0.31812,0.41008,0.76342,0.43337,-0.24743,-4.81289,-3.98795,2.73971
-0.22884,1.70358,-0.28835,-0.26110,0.01579,0.67233,0.83911,1.52293,0.07853,1.76812,-1.26493,-0.15352,0.41279,0.75827,0.43396,-0.25749,0.99964,-1.56357,-1.41413
-0.23254,1.70283,-0.27933,-0.24162,-0.00006,0.67054,0.85190,1.46700,0.06065,1.62113,-1.05804,-0.19009,0.41507,0.75323,0.43500,-0.26671,0.42719,-3.74930,-1.76825
-0.23457,1.70184,-0.27028,-0.21797,-0.01625,0.66625,0.86976,1.42403,0.05049,1.43802,-0.97441,-0.36908,0.41713,0.74805,0.43615,-0.27606,1.26904,-3.39960,-1.10435
-0.23648,1.70087,-0.26135,-0.19922,-0.02845,0.66053,0.89659,1.39271,0.05089,1.24317,-0.76046,-0.47541,0.41889,0.74266,0.43743,-0.28574,1.58729,-1.94849,-0.65929
-0.23836,1.69993,-0.25256,-0.18457,-0.03756,0.65374,0.92458,1.35517,0.09245,0.87261,-0.59655,-0.48460,0.41943,0.73769,0.43868,-0.29572,2.36989,-2.56708,1.22766
-0.24034,1.69891,-0.24387,-0.17493,-0.04564,0.64710,0.94013,1.28311,0.17704,0.67770,-0.62897,-0.45363,0.41821,0.73374,0.43986,-0.30536,1.94349,-4.09336,5.26579
-0.24230,1.69776,-0.23524,-0.16709,-0.05426,0.64081,0.93339,1.16752,0.27326,0.53599,-0.74624,-0.47685,0.41561,0.73092,0.44108,-0.31379,0.76765,-8.31912,6.27530
-0.24417,1.69640,-0.22678,-0.15949,-0.06431,0.63308,0.91404,1.01610,0.36636,0.60085,-0.84893,-0.67560,0.41185,0.72908,0.44256,-0.32088,-0.66592,-10.64500,6.36476
-0.24597,1.69475,-0.21861,-0.15250,-0.07669,0.62243,0.83787,0.78476,0.46442,0.60336,-1.03412,-0.85945,0.40656,0.72941,0.44387,-0.32504,-3.21484,-14.63788,6.08485
-0.24778,1.69286,-0.21069,-0.14756,-0.09038,0.61012,0.72193,0.51152,0.58093,0.21263,-0.89902,-0.84467,0.39959,0.73197,0.44468,-0.32683,-8.22798,-21.03327,7.39582
-0.24955,1.69078,-0.20275,-0.14281,-0.10392,0.60113,0.72580,0.36636,0.66121,0.14085,-0.87071,-0.43451,0.39276,0.73255,0.44670,-0.33102,-2.33107,-13.65809,6.34542
-0.25141,1.68828,-0.19463,-0.14084,-0.12128,0.59698,0.82782,0.27069,0.70276,0.01560,-1.33148,-0.31543,0.38563,0.73123,0.45089,-0.33657,7.16996,-6.30470,2.89555
-0.25346,1.68560,-0.18666,-0.14232,-0.13744,0.59151,0.88352,0.15403,0.75153,-0.13524,-1.49787,-0.66205,0.37770,0.73077,0.45494,-0.34109,7.11688,-7.24598,2.42519
-0.25584,1.68241,-0.17937,-0.14875,-0.15799,0.57598,0.85827,-0.08372,0.84682,-0.50009,-1.25028,-1.26308,0.36704,0.73339,0.45862,-0.34219,-0.37153,-15.28252,5.27185
-0.25833,1.67928,-0.17262,-0.15574,-0.17324,0.55498,0.83225,-0.21831,0.92563,-0.66379,-0.93435,-1.73751,0.35699,0.73559,0.46140,-0.34435,-1.68721,-12.35003,5.18748
-0.26087,1.67627,-0.16635,-0.16168,-0.18285,0.53152,0.81130,-0.24884,0.98628,-0.59835,-0.72249,-2.15550,0.34791,0.73701,0.46321,-0.34814,-1.14046,-5.30314,5.17259
-0.26368,1.67302,-0.16152,-0.17081,-0.19421,0.48915,0.70472,-0.27295,1.07977,-0.46328,-0.66973,-2.52786,0.33871,0.74010,0.46252,-0.35157,-5.63707,-1.49541,5.39557
-0.26636,1.66990,-0.15657,-0.17590,-0.20114,0.45817,0.60311,-0.27937,1.12364,-0.44343,-0.56864,-2.64916,0.33050,0.74298,0.46153,-0.35462,-7.96849,-3.00049,4.01198
-0.26898,1.66664,-0.15247,-0.17862,-0.20877,0.42107,0.49971,-0.20299,1.12676,-0.16972,-0.49577,-2.62820,0.32436,0.74505,0.45930,-0.35880,-8.18825,3.40583,1.72682
-0.27145,1.66330,-0.14878,-0.17825,-0.21574,0.38548,0.41465,-0.06163,1.09823,0.06973,-0.41312,-2.43219,0.32014,0.74595,0.45641,-0.36437,-6.77958,8.49117,-1.38995
-0.27365,1.65993,-0.14556,-0.17353,-0.22184,0.35006,0.36148,0.10871,1.03049,0.46402,-0.29404,-2.04951,0.31764,0.74550,0.45368,-0.37082,-4.64678,10.75981,-3.42831
-0.27567,1.65666,-0.14207,-0.16697,-0.22476,0.32714,0.33194,0.19876,0.96560,0.77177,-0.14771,-1.83125,0.31473,0.74516,0.45177,-0.37628,-3.04271,8.92933,-5.06643
-0.27739,1.65346,-0.13881,-0.15710,-0.22600,0.30641,0.28700,0.23330,0.91130,1.11107,-0.12906,-1.68949,0.31175,0.74540,0.44975,-0.38068,-3.44654,4.95817,-4.75489
-0.27814,1.65025,-0.13617,-0.13386,-0.22697,0.28039,0.21431,0.22136,0.78772,1.93843,-0.02155,-1.60913,0.31050,0.74585,0.44817,-0.38267,-4.98069,-0.63821,-6.05976
-0.27839,1.64695,-0.13352,-0.10794,-0.22916,0.26036,0.17275,0.23830,0.62278,2.18989,-0.23550,-1.77416,0.31108,0.74511,0.44750,-0.38442,-3.81070,-0.31820,-11.43006
-0.27770,1.64374,-0.13170,-0.07294,-0.22927,0.23138,0.11833,0.33470,0.40133,2.03424,0.25098,-1.83716,0.31534,0.74275,0.44659,-0.38658,-3.58237,7.03158,-14.57882
-0.27732,1.64099,-0.13002,-0.05044,-0.22197,0.20651,0.04473,0.34464,0.28355,1.30687,0.75123,-1.68675,0.31773,0.74210,0.44499,-0.38771,-5.34391,1.49695,-10.43633
-0.27717,1.63863,-0.12844,-0.03678,-0.21009,0.18561,0.03033,0.41034,0.21636,0.54787,1.04102,-1.31224,0.31985,0.74046,0.44347,-0.39082,-3.42871,2.58536,-5.53230
-0.27734,1.63653,-0.12682,-0.03142,-0.19682,0.17008,0.06597,0.49402,0.20681,0.23049,0.96143,-0.91595,0.32090,0.73813,0.44221,-0.39578,1.89197,6.45421,-1.67119
-0.27761,1.63456,-0.12511,-0.02863,-0.18418,0.15942,0.15570,0.58192,0.19416,0.13872,0.67452,-0.48307,0.32161,0.73463,0.44213,-0.40176,4.80026,5.88730,-0.65608
-0.27801,1.63252,-0.12320,-0.02883,-0.17542,0.15415,0.23512,0.56987,0.20224,0.11457,0.62005,-0.37338,0.32076,0.73206,0.44285,-0.40631,5.89514,2.22186,-0.78170
-0.27850,1.63066,-0.12138,-0.03034,-0.16579,0.14868,0.27144,0.41358,0.25320,0.05627,0.61744,-0.48872,0.31725,0.73200,0.44391,-0.40801,3.70541,-8.28557,2.65285
-0.27914,1.62896,-0.11982,-0.03405,-0.15544,0.14011,0.24180,0.04151,0.34942,-0.18607,0.66662,-0.59892,0.30989,0.73619,0.44541,-0.40448,-1.00423,-22.29889,5.91928
-0.27982,1.62739,-0.11835,-0.03746,-0.14518,0.13183,0.21674,-0.27881,0.44019,-0.39368,0.83041,-0.59005,0.30169,0.74094,0.44690,-0.40033,-1.46447,-25.46033,6.63461
-0.28039,1.62595,-0.11702,-0.03834,-0.13532,0.12314,0.22861,-0.40074,0.48477,-0.23635,0.90212,-0.76705,0.29518,0.74365,0.44821,-0.39870,0.33626,-15.32430,4.60427
-0.28084,1.62475,-0.11607,-0.03689,-0.12396,0.11036,0.24406,-0.43688,0.49691,0.13816,0.79269,-0.96520,0.28981,0.74536,0.44939,-0.39812,1.56794,-3.47430,1.72480
-0.28103,1.62377,-0.11565,-0.03171,-0.11228,0.09346,0.25265,-0.39197,0.46942,0.34482,0.65648,-1.09019,0.28621,0.74597,0.45029,-0.39856,0.23134,1.28266,-1.05089
-0.28096,1.62278,-0.11538,-0.02383,-0.10465,0.07987,0.25689,-0.28808,0.42212,0.76855,0.58120,-1.04694,0.28421,0.74554,0.45080,-0.40022,-0.04103,7.73360,-2.98845
-0.28059,1.62180,-0.11527,-0.01323,-0.09853,0.06712,0.24539,-0.20635,0.34933,1.01726,0.36022,-1.02124,0.28334,0.74489,0.45142,-0.40136,-0.14400,8.48402,-5.22403
-0.27952,1.62099,-0.11561,0.00726,-0.09106,0.04942,0.21168,-0.10532,0.22266,1.31037,0.49910,-0.80331,0.28477,0.74357,0.45201,-0.40212,-2.25725,4.54165,-6.68615
-0.28050,1.62516,-0.11706,0.00052,-0.00502,0.00005,0.23211,0.02503,0.10296,1.78934,0.46368,-0.49388,0.28700,0.74083,0.45334,-0.40409,0.04421,10.19508,-8.58190
-0.28077,1.62480,-0.11560,0.00265,-0.00585,-0.00026,0.24417,0.11322,-0.05840,2.09519,0.59812,-0.25236,0.29052,0.73747,0.45574,-0.40502,1.71793,8.06815,-11.23533
-0.28027,1.62437,-0.11403,0.00459,-0.00732,-0.00056,0.28308,0.19451,-0.21924,2.19647,0.96269,0.17248,0.29479,0.73316,0.45915,-0.40591,2.34124,5.91158,-11.85950
-0.27915,1.62389,-0.11243,0.00528,-0.00918,-0.00069,0.33864,0.22308,-0.37854,2.35005,1.31192,0.40603,0.29904,0.72863,0.46375,-0.40572,3.80795,3.54043,-10.65757
-0.27717,1.62332,-0.11070,0.00500,-0.01138,-0.00070,0.40988,0.21238,-0.52345,2.20286,1.46762,0.64875,0.30296,0.72389,0.46952,-0.40466,4.34658,-0.42824,-11.12122
-0.27469,1.62280,-0.10858,0.00448,-0.01463,-0.00073,0.52818,0.19436,-0.65448,2.36950,1.46897,1.10179,0.30634,0.71811,0.47698,-0.40368,7.42360,-0.11181,-9.06400
-0.27113,1.62255,-0.10535,0.00101,-0.01879,-0.00040,0.68358,0.05407,-0.80084,2.22369,1.31615,1.30658,0.30810,0.71239,0.48752,-0.39988,9.64975,-8.00635,-10.00355
-0.26748,1.62237,-0.10225,-0.00338,-0.02223,-0.00002,0.81396,-0.12317,-0.92002,2.08614,1.62778,1.33621,0.30880,0.70731,0.49875,-0.39446,8.69761,-12.64973,-8.73985
-0.26287,1.62228,-0.09818,-0.00918,-0.02519,0.00044,0.92920,-0.35683,-1.02517,2.04106,1.78927,0.99662,0.30814,0.70286,0.51127,-0.38684,8.62112,-14.90005,-8.24671
-0.25714,1.62231,-0.09306,-0.01574,-0.02696,0.00086,0.99739,-0.61842,-1.13251,1.76212,2.17674,0.64304,0.30697,0.69927,0.52427,-0.37674,3.81651,-19.64473,-9.28188
-0.25122,1.62237,-0.08806,-0.01851,-0.02871,0.00059,1.06818,-0.71407,-1.23584,1.62215,2.40953,0.44063,0.30745,0.69371,0.53698,-0.36863,3.78314,-13.15189,-8.71989
-0.24234,1.62253,-0.08056,-0.01867,-0.03192,-0.00051,1.20678,-0.68418,-1.35909,1.82206,2.10564,0.14108,0.30938,0.68510,0.55078,-0.36271,9.26693,1.04000,-7.38817
-0.23387,1.62267,-0.07288,-0.01945,-0.03451,-0.00156,1.32152,-0.67837,-1.47621,2.06147,1.43992,0.12492,0.31135,0.67612,0.56489,-0.35612,8.88065,2.10275,-7.50204
-0.22493,1.62282,-0.06440,-0.02334,-0.03649,-0.00241,1.41346,-0.79725,-1.61484,1.99507,0.72618,0.03772,0.31219,0.66758,0.58058,-0.34612,7.00473,-5.87082,-9.71710
-0.21557,1.62274,-0.05585,-0.02867,-0.03787,-0.00334,1.48708,-0.96895,-1.77518,1.80760,0.25029,-0.16558,0.31261,0.65914,0.59729,-0.33326,4.91680,-11.78483,-12.24215
-0.20573,1.62233,-0.04744,-0.03283,-0.03949,-0.00477,1.58400,-1.08435,-1.92476,1.57094,-0.01472,-0.28385,0.31319,0.64918,0.61467,-0.32040,4.90983,-9.24367,-12.01811
-0.19686,1.62156,-0.03933,-0.03495,-0.04169,-0.00652,1.71261,-1.11714,-2.03560,1.47628,-0.42530,-0.43240,0.31388,0.63734,0.63223,-0.30913,9.79482,-4.36188,-9.27389
-0.18611,1.62030,-0.02891,-0.03846,-0.04386,-0.00881,1.85752,-1.19925,-2.14013,1.30405,-0.76138,-0.52943,0.31323,0.62443,0.65114,-0.29663,10.51105,-5.05639,-7.58453
-0.17300,1.61838,-0.01511,-0.04458,-0.04514,-0.01168,1.98931,-1.38523,-2.23894,0.93492,-1.11057,-0.63505,0.31028,0.61188,0.67096,-0.28131,7.80502,-10.82885,-6.98222
-0.16302,1.61607,-0.00330,-0.05097,-0.04547,-0.01421,2.07585,-1.60647,-2.30481,0.65070,-1.58558,-0.41877,0.30550,0.59989,0.69064,-0.26423,5.10730,-15.58602,-6.43143
-0.15138,1.61278,0.01153,-0.06062,-0.04415,-0.01755,2.12441,-1.95515,-2.41809,0.27823,-1.92921,-0.25583,0.29814,0.58855,0.71151,-0.24184,2.14229,-22.97573,-10.11037
-0.13778,1.60778,0.02987,-0.07037,-0.04255,-0.02257,2.21297,-2.30113,-2.56155,-0.22975,-1.85642,-0.12090,0.28935,0.57538,0.73352,-0.21718,2.53571,-22.78517,-11.93222
-0.12600,1.60227,0.04759,-0.07637,-0.04086,-0.02768,2.30512,-2.51320,-2.65026,-0.57698,-1.59994,-0.25487,0.28074,0.56081,0.75432,-0.19410,5.74423,-16.28902,-9.34044
-0.11449,1.59553,0.06640,-0.07918,-0.03945,-0.03321,2.42358,-2.61986,-2.66615,-0.61582,-1.11661,-0.26336,0.27166,0.54467,0.77426,-0.17337,5.88101,-10.90799,-3.50867
-0.10335,1.58776,0.08666,-0.07942,-0.03808,-0.03867,2.54104,-2.65198,-2.60745,-0.41098,-1.05848,-0.35293,0.26196,0.52767,0.79299,-0.15526,7.66709,-4.93338,4.28259
-0.09240,1.57768,0.10977,-0.07897,-0.03584,-0.04475,2.65546,-2.67003,-2.54751,-0.30653,-1.37487,-0.22407,0.25184,0.50953,0.81116,-0.13772,5.62320,-2.75817,5.00296
-0.08531,1.56926,0.12766,-0.07965,-0.03275,-0.04921,2.69993,-2.72209,-2.55858,-0.25608,-1.81752,-0.08209,0.24184,0.49155,0.82827,-0.11775,6.00444,-3.26604,2.63457
-0.07763,1.55867,0.14894,-0.08228,-0.02590,-0.05384,2.65878,-2.82748,-2.70332,-0.21848,-1.83560,0.20735,0.23260,0.47387,0.84425,-0.09268,-1.75710,-6.37566,-9.33316
-0.07043,1.54672,0.17045,-0.08200,-0.01980,-0.05790,2.68001,-2.80371,-2.83664,-0.29029,-1.50661,0.61933,0.22565,0.45361,0.85940,-0.06899,0.66464,0.32244,-12.19148
-0.06376,1.53322,0.19203,-0.07648,-0.01880,-0.06199,2.90550,-2.60128,-2.79583,-0.27586,-1.52134,0.65237,0.21985,0.42833,0.87486,-0.05314,14.14941,8.44295,2.97449
-0.05769,1.51823,0.21389,-0.06813,-0.02109,-0.06576,3.22963,-2.32106,-2.60158,-0.58349,-1.76894,0.79745,0.21419,0.39963,0.89020,-0.04428,22.03204,13.37457,17.35063
-0.05241,1.49935,0.23898,-0.05777,-0.02735,-0.07142,3.69842,-2.05148,-2.20584,-1.52387,-2.39550,0.73613,0.20580,0.36653,0.90631,-0.04368,27.33623,8.04632,30.20274
-0.05016,1.48387,0.25783,-0.05128,-0.03253,-0.07738,4.06156,-1.96240,-1.86695,-2.06017,-2.97046,0.54316,0.19395,0.33297,0.92180,-0.04233,27.65759,-0.78520,33.52354
-0.04944,1.46752,0.27673,-0.04668,-0.03577,-0.08433,4.37333,-1.97245,-1.58423,-2.40673,-3.24386,0.36591,0.17945,0.29812,0.93661,-0.04100,23.64987,-7.82242,29.09281
-0.05082,1.44438,0.30245,-0.04313,-0.03553,-0.09406,4.68625,-2.08036,-1.36312,-2.30443,-2.82773,0.09045,0.16183,0.26079,0.95094,-0.03897,18.03569,-13.11863,14.75280
-0.05414,1.42250,0.32425,-0.04018,-0.03304,-0.10251,4.91045,-2.20086,-1.21546,-2.55422,-2.35689,-0.22153,0.14355,0.22337,0.96345,-0.03555,14.10227,-12.56954,9.28141
-0.05932,1.39914,0.34475,-0.03651,-0.02990,-0.11181,5.12322,-2.38151,-1.03617,-2.78542,-1.99044,-0.36271,0.12192,0.18461,0.97465,-0.03330,12.77121,-16.08674,9.66698
-0.07056,1.37069,0.36221,-0.03198,-0.02403,-0.12275,5.28849,-2.67834,-0.85369,-3.08064,-1.65323,-1.51691,0.09525,0.14587,0.98422,-0.03110,11.38361,-23.69802,10.63758
-0.07737,1.34860,0.38078,-0.02984,-0.01527,-0.12843,5.23735,-2.92590,-0.86894,-3.52270,-0.95424,-1.52470,0.06958,0.11124,0.99108,-0.02343,-1.99156,-18.46627,-5.76397
-0.08370,1.32248,0.40800,-0.02704,-0.00353,-0.13397,5.10474,-3.25309,-0.94486,-4.04836,-0.33935,-2.29422,0.04022,0.07904,0.99598,-0.01263,-7.34245,-19.88806,-12.16350
-0.09242,1.29637,0.43243,-0.02592,0.01206,-0.13734,4.91175,-3.55576,-1.23907,-4.10162,0.25545,-3.19925,0.01055,0.04878,0.99874,0.00543,-10.21229,-16.37576,-24.58869
-0.10896,1.27023,0.44487,-0.02672,0.03159,-0.13709,4.71494,-3.71245,-1.77427,-4.42254,1.00406,-3.72254,-0.01549,0.01911,0.99918,0.03225,-7.49723,-1.05688,-39.87569
-0.13166,1.24406,0.44630,-0.02613,0.05109,-0.13693,4.60544,-3.86099,-2.31931,-5.22396,2.16408,-3.96968,-0.04215,-0.01197,0.99705,0.06296,1.58618,5.10256,-43.41337
-0.15289,1.22166,0.44459,-0.02157,0.06502,-0.13864,4.54201,-4.10830,-2.63338,-5.70218,3.27095,-4.58256,-0.07364,-0.04353,0.99220,0.09072,2.16925,-5.32967,-35.57662
-0.18447,1.19270,0.43957,-0.00985,0.08030,-0.14267,4.42501,-4.61474,-2.90275,-5.57505,4.73089,-5.61305,-0.11487,-0.07281,0.98349,0.11938,-4.23882,-22.31475,-27.19678
-0.21039,1.17245,0.43347,0.00268,0.08967,-0.14537,4.29591,-5.05533,-3.03919,-4.91655,5.95121,-6.62593,-0.15766,-0.10085,0.97158,0.14494,-9.55865,-27.79470,-26.25511
-0.24853,1.14733,0.42233,0.02507,0.09792,-0.14862,4.08751,-5.73117,-3.08672,-3.14871,7.82452,-8.22700,-0.21044,-0.12603,0.95483,0.16774,-14.76239,-33.90212,-21.41663
-0.27973,1.13088,0.41016,0.04732,0.09895,-0.15108,3.88313,-6.35326,-2.94479,-1.31588,9.12768,-9.19145,-0.26544,-0.15083,0.93439,0.18361,-22.21299,-42.16799,-14.41970
-0.31758,1.11401,0.39547,0.07982,0.09354,-0.15391,3.49911,-7.28650,-2.61355,1.23727,10.49788,-10.18191,-0.33350,-0.17048,0.90767,0.18936,-37.43668,-57.93050,-8.52956
-0.35775,1.09933,0.39122,0.12233,0.08112,-0.15214,2.78626,-8.47838,-2.28039,5.41908,12.23977,-11.20890,-0.41410,-0.17989,0.87238,0.18737,-53.47748,-68.46886,-17.59128
-0.40021,1.09148,0.37959,0.15972,0.06751,-0.13705,1.91815,-9.31747,-2.35425,10.73723,13.96340,-11.56028,-0.49093,-0.17832,0.83115,0.19075,-54.04312,-50.73747,-38.10603
-0.43083,1.09102,0.36612,0.17655,0.06137,-0.11660,1.46481,-9.44804,-2.75460,14.50595,15.31056,-10.77771,-0.55094,-0.17706,0.78922,0.20552,-23.75034,-15.17846,-51.27332
-0.46882,1.09617,0.34420,0.18809,0.05384,-0.08521,1.11110,-9.26040,-3.39907,18.71829,17.18195,-8.72760,-0.60223,-0.16975,0.74568,0.22907,6.81304,16.68202,-44.76232
-0.49690,1.10628,0.32080,0.19649,0.04127,-0.05849,0.75241,-9.18573,-3.95377,22.51509,18.10769,-6.13936,-0.65293,-0.15870,0.69704,0.25026,6.66549,12.96358,-43.47528
-0.51996,1.12130,0.29383,0.20697,0.02077,-0.03214,0.23512,-9.36308,-4.53542,25.53191,17.55134,-2.98313,-0.70675,-0.13966,0.63954,0.26831,-5.72373,2.84261,-53.86915
-0.53532,1.13962,0.26726,0.21269,-0.00241,-0.00776,-0.30836,-9.56835,-5.48120,31.19690,18.20323,1.57582,-0.75961,-0.10766,0.57116,0.29186,-0.08650,-23.49310,-75.63794
-0.56005,1.16682,0.21599,0.20144,-0.04042,0.02128,-1.19207,-9.28325,-6.34883,33.87445,16.82112,5.55753,-0.80168,-0.05793,0.50867,0.30856,-19.03066,31.31776,-70.66649
-0.57690,1.20127,0.16416,0.17755,-0.07379,0.04606,-1.69710,-8.81857,-7.58548,37.20762,13.69398,10.45905,-0.83219,0.00156,0.44009,0.33732,28.24914,23.14280,-98.05997
-0.58656,1.24217,0.11048,0.13963,-0.10090,0.06267,-1.83098,-8.06160,-8.89921,39.49641,10.05815,15.18346,-0.84641,0.06664,0.37252,0.37467,55.81750,26.37811,-85.12824
-0.58606,1.28892,0.05888,0.09312,-0.11479,0.06860,-1.45417,-7.13925,-9.97243,44.01857,5.71490,22.35189,-0.84482,0.12848,0.30754,0.41855,72.77109,-0.53027,-66.51092
-0.57512,1.34001,0.01343,0.03393,-0.11608,0.05786,-0.55173,-5.79277,-11.29854,45.13520,0.00183,27.71294,-0.81798,0.19875,0.24951,0.47870,135.33530,18.24752,-55.16245
-0.55251,1.39425,-0.02339,-0.02239,-0.10934,0.03916,0.34711,-4.52429,-12.43544,46.28111,-8.42311,33.20554,-0.77569,0.27154,0.19299,0.53602,131.35700,3.87291,-44.56319
-0.51768,1.44835,-0.04938,-0.07807,-0.10672,0.02275,0.68654,-3.47900,-13.96121,46.02126,-19.23587,38.12242,-0.71908,0.36224,0.12481,0.57977,115.83080,10.72476,-78.62726
-0.46975,1.50050,-0.06701,-0.15132,-0.07925,-0.00650,1.49432,-1.58147,-15.50419,47.18044,-33.92915,48.78899,-0.62772,0.46592,0.07530,0.61904,136.41330,47.06170,-83.89359
-0.39746,1.55501,-0.07167,-0.20255,0.01030,-0.04840,3.99658,-0.19152,-16.76446,40.47766,-50.29583,54.88821,-0.49211,0.54343,0.03143,0.67935,166.59710,-48.89246,-71.86740
-0.31925,1.59164,-0.05745,-0.20208,0.12489,-0.08055,7.11968,0.00011,-17.86167,37.20558,-74.94634,59.86599,-0.32414,0.58471,-0.02231,0.74334,127.33280,-168.23020,-109.27280
-0.21307,1.60749,-0.01978,-0.18160,0.26412,-0.08309,10.37641,0.99278,-19.52316,14.14745,-118.43880,56.45768,-0.10556,0.62570,-0.06723,0.76996,141.41380,-123.07730,-152.63220
-0.11546,1.58745,0.02653,-0.14088,0.39501,-0.03595,13.57094,2.99499,-20.27693,-28.92443,-153.56580,39.85411,0.12787,0.65478,-0.07173,0.74146,216.68030,-89.93631,-100.46210
0.58482,1.36781,0.28610,6.75889,-4.92677,4.47483,17.51696,5.05519,-19.49617,-77.87437,-165.71160,1.89026,0.37163,0.63047,-0.02812,0.68089,206.04960,-169.55530,-154.07410
0.86527,1.28592,0.29904,5.21466,-7.17339,4.19808,21.75060,4.33918,-16.90840,-143.46880,-150.05770,-41.63567,0.57771,0.54237,0.05947,0.60709,116.48630,-259.63040,-185.08790
0.93676,1.13400,0.28877,3.01025,-8.97438,3.33761,26.56392,1.83006,-13.08611,-166.08870,-107.96260,-82.78662,0.74502,0.38469,0.20317,0.50564,10.54027,-306.34510,-343.70940
0.90223,0.96481,0.25556,0.71073,-10.14416,2.14753,32.35219,-2.06831,-10.15196,-174.25490,-53.32906,-128.49950,0.86142,0.14891,0.35704,0.32910,187.68580,-197.25820,-458.90420
0.80266,0.83291,0.16291,-1.58163,-10.20249,0.17703,34.82846,-7.65326,-7.96392,-147.81220,45.37987,-136.74580,0.85952,-0.12190,0.47280,0.15109,254.54560,-35.03115,-449.66050
0.69076,0.78514,0.04535,-3.29988,-8.75962,-1.75895,29.46018,-12.36626,-8.62575,-69.04459,117.36740,-81.44615,0.78976,-0.32091,0.50596,0.13152,-52.81116,275.44930,-345.79460
0.62225,0.75428,-0.02444,-3.75030,-7.31837,-2.48187,23.78559,-9.83540,-9.88204,-15.23414,117.94220,-32.11654,0.78901,-0.40176,0.44771,0.12495,-256.96870,500.43370,59.06361
0.57227,0.74447,-0.06299,-3.75835,-5.87830,-2.52595,18.14505,-6.97789,-8.39325,13.81182,88.74626,19.14536,0.79815,-0.40740,0.42224,0.13676,-319.56710,295.85260,235.09410
0.52913,0.72101,-0.07444,-3.64224,-4.98730,-2.14314,13.54573,-7.20323,-6.32152,12.90495,60.66442,41.70163,0.76679,-0.41851,0.46478,0.14441,-406.04000,117.38330,88.40094
0.48959,0.71223,-0.05417,-3.59665,-4.18715,-1.39966,7.37370,-8.17563,-5.31271,-6.28890,42.33344,49.47392,0.69946,-0.41656,0.53755,0.21973,-384.87760,49.65008,-138.01350
0.43313,0.68544,-0.03344,-3.70387,-3.67153,-0.73994,2.40076,-6.25954,-5.57697,-13.51578,34.02673,43.14626,0.66182,-0.40516,0.54290,0.32110,-290.77190,222.57500,-127.60670
0.37255,0.65725,-0.01527,-3.84985,-3.30102,-0.28127,-0.70731,-3.15501,-5.93283,-13.96601,32.92258,33.89613,0.64921,-0.38577,0.50472,0.41828,-179.31140,317.36180,-95.28717
0.29629,0.63439,0.02187,-4.09583,-2.73292,0.23832,-3.20181,1.84208,-6.77176,-6.87429,40.32236,21.45427,0.65644,-0.33900,0.39794,0.54389,-29.10109,316.61430,-98.09901
0.22603,0.62014,0.04840,-4.18991,-2.20184,0.49725,-3.54763,4.37067,-7.68709,3.07645,44.49360,13.06723,0.64656,-0.33027,0.30140,0.61809,35.38662,197.41780,-112.69630
0.16821,0.61764,0.06634,-4.13124,-1.69742,0.62587,-3.31479,5.52168,-8.33541,12.42001,43.51520,7.59582,0.62779,-0.33482,0.21667,0.66845,43.36097,90.95110,-94.80851
0.12358,0.62825,0.07844,-3.90807,-1.14014,0.68296,-2.74976,5.92603,-8.56188,22.75789,36.46284,1.49067,0.60926,-0.34402,0.14229,0.70015,36.69822,25.27435,-57.85878
0.09134,0.64185,0.08713,-3.52804,-0.65777,0.67013,-2.40254,4.82232,-7.77925,27.91056,24.24982,-2.33560,0.58962,-0.35809,0.11588,0.71463,12.36939,-62.74900,40.07490
0.06460,0.64984,0.09365,-3.14349,-0.37365,0.62420,-2.44499,3.67585,-6.46981,27.57865,16.24985,-3.81172,0.57101,-0.36230,0.11208,0.72809,-12.77764,-75.08089,104.36410
0.03982,0.65454,0.09883,-2.81919,-0.21598,0.56972,-2.37361,3.15623,-5.28146,25.95906,10.56534,-4.99092,0.55870,-0.35719,0.10441,0.74120,2.07476,-39.54359,106.52260
0.02303,0.65943,0.10110,-2.43570,-0.09470,0.47924,-2.04542,2.78467,-3.63588,22.06436,5.97134,-6.23544,0.56108,-0.34061,0.10874,0.74656,33.21100,-18.30577,105.46800
0.00560,0.66267,0.10166,-2.15470,-0.02219,0.37852,-1.42393,2.69228,-2.57021,17.88318,5.51823,-8.19574,0.56888,-0.32577,0.10176,0.74826,47.09900,-9.08056,80.66848
-0.01186,0.66674,0.09941,-1.93914,0.04640,0.25600,-0.56751,2.45495,-1.96795,13.65177,4.97903,-9.15992,0.58161,-0.31982,0.08938,0.74260,69.97584,-14.44295,39.70629
-0.03091,0.67186,0.09615,-1.80489,0.11637,0.14633,-0.12686,1.78717,-1.66327,10.61085,6.08528,-9.05015,0.58646,-0.32599,0.08488,0.73661,48.47309,-44.48116,25.89973
-0.04742,0.68082,0.08990,-1.66046,0.23671,0.01075,0.04820,0.50564,-1.54862,8.65060,8.28188,-7.81770,0.58374,-0.35028,0.09347,0.72651,5.31758,-80.77031,10.94032
-0.06456,0.69016,0.08504,-1.55956,0.33579,-0.07142,0.03381,-0.43612,-1.61933,8.47747,7.90746,-5.74180,0.57587,-0.37573,0.09904,0.71930,-3.98345,-80.57976,-3.98896
-0.07870,0.70148,0.08023,-1.43380,0.44245,-0.13214,-0.25155,-1.38002,-1.67059,9.79031,6.73367,-2.79584,0.56061,-0.40500,0.11158,0.71361,-21.85752,-71.82613,-6.29462
-0.08830,0.71329,0.07725,-1.26090,0.53380,-0.15025,-0.68341,-1.94996,-1.69349,11.30420,4.63402,0.33432,0.54104,-0.42918,0.12387,0.71256,-35.15586,-38.45539,-1.84557
-0.09578,0.72288,0.07659,-1.09016,0.56822,-0.12621,-0.78645,-1.85378,-1.67578,12.16094,1.20968,3.01980,0.52910,-0.44206,0.12492,0.71346,-12.03715,-2.31677,-1.45617
-0.10144,0.73109,0.07702,-0.93153,0.57189,-0.09096,-0.80721,-1.70774,-1.81533,14.74755,-0.08301,2.17761,0.51681,-0.45559,0.12052,0.71472,-1.01727,21.71186,-4.37828
-0.10187,0.73609,0.08040,-0.72633,0.52366,-0.01423,-0.88241,-1.15292,-1.22746,10.43766,-4.99673,6.73096,0.51410,-0.44893,0.12475,0.72014,3.24874,25.41337,35.41266
-0.10314,0.73878,0.08505,-0.57787,0.44909,0.06511,-0.84471,-0.63117,-0.88270,11.24983,-5.58528,4.95825,0.51230,-0.44172,0.12399,0.72599,-3.07601,48.35070,25.32587
-0.10193,0.73995,0.09002,-0.42263,0.36631,0.13187,-0.89172,-0.28052,-0.48095,11.49105,-6.32124,4.50514,0.51037,-0.43327,0.12795,0.73173,0.27232,26.86893,23.12645
-0.09841,0.73992,0.09555,-0.26453,0.28121,0.19059,-1.03149,0.01440,-0.03517,11.35805,-6.34849,3.98457,0.50797,-0.42157,0.13592,0.73877,-8.20640,24.28821,30.59594
-0.09292,0.73860,0.10170,-0.11023,0.19451,0.24594,-1.31692,0.19324,0.41027,11.46321,-6.49275,3.86507,0.50263,-0.40842,0.14910,0.74722,-16.29665,17.84793,29.85664
-0.08499,0.73639,0.10811,0.04812,0.11326,0.29356,-1.63533,0.33497,0.80414,11.29958,-5.08961,2.73557,0.49528,-0.39373,0.16482,0.75664,-27.30889,10.51773,30.81056
-0.07519,0.73386,0.11436,0.20179,0.04176,0.32519,-1.48266,0.65648,0.97575,10.20463,-4.12853,1.43925,0.49591,-0.37807,0.16964,0.76312,-2.28852,19.55312,16.88488
-0.06413,0.73071,0.12017,0.34060,-0.02338,0.34278,-0.84697,1.17139,0.88395,9.50015,-4.13805,0.67784,0.50684,-0.36224,0.15894,0.76592,36.67601,36.44564,-7.76741
-0.05151,0.72694,0.12552,0.47306,-0.08174,0.35011,-0.15087,1.72872,0.72163,9.53075,-4.11111,0.21792,0.52202,-0.34489,0.14105,0.76724,48.52150,41.67214,-17.96112
-0.03846,0.72286,0.13052,0.58243,-0.12726,0.34992,0.33499,2.15100,0.58237,9.20591,-3.91552,-0.25039,0.53579,-0.32723,0.12328,0.76854,41.20329,40.12059,-16.97825
-0.02214,0.71729,0.13518,0.72078,-0.18594,0.34367,0.72733,2.59290,0.47791,8.95173,-4.08287,-0.63954,0.55014,-0.30654,0.10331,0.76987,26.68430,31.36536,-11.99354
-0.00595,0.71195,0.13937,0.82296,-0.22908,0.33282,0.78171,2.80676,0.54944,8.83075,-3.91376,-1.14801,0.55949,-0.28516,0.09184,0.77280,10.15883,21.24404,0.63853
0.01340,0.70503,0.14262,0.95566,-0.28506,0.30882,0.74830,3.02014,0.74972,8.27552,-3.41318,-1.96870,0.56827,-0.25969,0.08380,0.77628,-0.62585,13.34072,13.50263
0.03400,0.69765,0.14483,1.08216,-0.33716,0.27200,0.73151,3.20126,0.95770,7.95769,-3.12577,-2.80037,0.57717,-0.23302,0.07648,0.77892,0.80967,11.23313,13.06723
0.05525,0.69050,0.14607,1.19049,-0.37639,0.22701,0.73534,3.34091,1.15888,7.73200,-2.42090,-3.82375,0.58618,-0.20559,0.06987,0.78054,1.93604,9.02242,15.01255
0.07762,0.68311,0.14601,1.29442,-0.40744,0.16888,0.82967,3.50741,1.30449,7.32920,-1.84815,-4.73718,0.59668,-0.17694,0.06133,0.78032,6.38835,11.14990,10.60388
0.10107,0.67575,0.14448,1.39139,-0.43044,0.09958,0.97931,3.68472,1.39611,6.81748,-1.27500,-5.45285,0.60821,-0.14744,0.05083,0.77831,10.69761,13.41117,5.36253
0.12564,0.66886,0.14123,1.48229,-0.44208,0.01928,1.11713,3.84770,1.49899,6.46611,-0.32732,-6.26589,0.61976,-0.11657,0.04038,0.77503,10.37600,12.33923,5.28808
0.15096,0.66247,0.13635,1.56502,-0.44058,-0.07000,1.26418,4.03822,1.56548,5.41937,0.56419,-6.58166,0.63146,-0.08426,0.02835,0.77030,10.59563,13.31254,5.30375
0.17612,0.65656,0.13079,1.62361,-0.43216,-0.14803,1.38168,4.20470,1.56157,4.54392,0.97511,-6.62910,0.64221,-0.05227,0.01454,0.76460,9.03034,15.15903,-0.95227
0.20251,0.65175,0.12244,1.68766,-0.40887,-0.25309,1.47228,4.39708,1.57196,3.64495,1.99728,-6.64108,0.65215,-0.01842,-0.00023,0.75787,5.64150,13.22850,-0.85023
0.22839,0.64807,0.11356,1.72945,-0.37030,-0.34405,1.44873,4.50990,1.63372,2.49104,3.34645,-6.44220,0.65926,0.01571,-0.01268,0.75164,0.65137,8.81802,5.06148
0.25387,0.64590,0.10371,1.75429,-0.31567,-0.42994,1.36631,4.59222,1.65469,1.13662,4.53944,-6.05464,0.66398,0.04926,-0.02544,0.74569,-4.60603,4.55356,5.66706
0.27866,0.64495,0.09358,1.76081,-0.25642,-0.49912,1.25273,4.63522,1.63351,-0.00712,5.42350,-5.59849,0.66668,0.08163,-0.03874,0.73985,-7.84478,5.31651,1.11501
0.30221,0.64682,0.08186,1.74622,-0.16215,-0.57924,1.00128,4.61332,1.57770,-1.60037,6.29826,-4.62633,0.66507,0.11184,-0.05178,0.73654,-15.15042,-1.87576,1.10871
0.32472,0.64971,0.07039,1.71627,-0.07263,-0.63736,0.72103,4.54576,1.53019,-2.61207,6.57120,-3.89752,0.66105,0.14063,-0.06407,0.73426,-19.57452,-6.18113,2.07210
0.34614,0.65411,0.05861,1.67505,0.01923,-0.68735,0.43839,4.48953,1.46754,-3.34380,6.71471,-3.32318,0.65495,0.16850,-0.07703,0.73261,-19.67330,-6.70240,1.76137
0.36650,0.65973,0.04652,1.62531,0.11017,-0.73083,0.16823,4.47601,1.37642,-3.92259,6.42694,-2.88225,0.64707,0.19588,-0.09174,0.73110,-20.40196,-3.41332,-0.48015
0.38523,0.66700,0.03390,1.55843,0.20857,-0.77305,-0.13081,4.46496,1.26839,-4.58630,6.17088,-2.51175,0.63677,0.22217,-0.10761,0.73047,-20.10702,-2.39356,-0.35145
0.40311,0.67462,0.02131,1.49217,0.29102,-0.80615,-0.39540,4.48467,1.14439,-5.01033,5.78690,-2.22411,0.62524,0.24789,-0.12510,0.72937,-20.42171,-0.36580,-3.66337
0.42034,0.68249,0.00874,1.43163,0.35676,-0.83022,-0.61553,4.48401,1.04045,-5.15240,5.31007,-1.91693,0.61276,0.27266,-0.14269,0.72789,-19.81855,-0.53094,-3.96945
0.43539,0.69220,-0.00434,1.34826,0.43779,-0.85732,-0.88124,4.43236,0.97931,-5.30475,4.89146,-1.65596,0.59767,0.29606,-0.15947,0.72781,-17.60584,-4.03380,0.17936
0.44994,0.70213,-0.01741,1.27447,0.50326,-0.87851,-1.10820,4.36563,0.96494,-5.30391,4.43265,-1.48585,0.58147,0.31907,-0.17521,0.72759,-15.89899,-4.57481,2.89618
0.46393,0.71216,-0.03054,1.21011,0.55368,-0.89502,-1.26734,4.28579,0.98307,-5.52445,4.01558,-1.49860,0.56489,0.34161,-0.18965,0.72680,-13.59981,-7.00122,5.75279
0.47553,0.72339,-0.04429,1.11992,0.61155,-0.91787,-1.44245,4.18326,0.98578,-5.90491,3.31385,-1.35206,0.54690,0.36249,-0.20390,0.72658,-10.12065,-7.14770,4.22492
